Application:, Trigno Discover (2.0.1.2)
Date/Time:, 7/3/2025 11:51:17 AM
Collection Length (seconds):, 44.9955
Bicep_R (83254), , , , , , , , , , , , , , Tricep_R (83087)
sensor mode: 50, , , , , , , , , , , , , , sensor mode: 50
EMG 1 Time Series (s), EMG 1 (mV), ACC X Time Series (s), ACC X (G), ACC Y Time Series (s), ACC Y (G), ACC Z Time Series (s), ACC Z (G), GYRO X Time Series (s), GYRO X (deg/s), GYRO Y Time Series (s), GYRO Y (deg/s), GYRO Z Time Series (s), GYRO Z (deg/s), EMG 1 Time Series (s), EMG 1 (mV), ACC X Time Series (s), ACC X (G), ACC Y Time Series (s), ACC Y (G), ACC Z Time Series (s), ACC Z (G), GYRO X Time Series (s), GYRO X (deg/s), GYRO Y Time Series (s), GYRO Y (deg/s), GYRO Z Time Series (s), GYRO Z (deg/s)
, 1259.2593 Hz, , 148.1481 Hz, , 148.1481 Hz, , 148.1481 Hz, , 148.1481 Hz, , 148.1481 Hz, , 148.1481 Hz, , 1259.2593 Hz, , 148.1481 Hz, , 148.1481 Hz, , 148.1481 Hz, , 148.1481 Hz, , 148.1481 Hz, , 148.1481 Hz
, 0.0007941176470588235 s, , 0.00675 s, , 0.00675 s, , 0.00675 s, , 0.00675 s, , 0.00675 s, , 0.00675 s, , 0.0007941176470588235 s, , 0.00675 s, , 0.00675 s, , 0.00675 s, , 0.00675 s, , 0.00675 s, , 0.00675 s, , Type, Name, Label, Time (s), , Pair, E1, E2, T1, T2, V1, V2, Sensor, Channel, Units, Delta T, RMS, PKPK, Peak Value, TPK, Integral
0, -0.0005035, 0, 0.1612549, 0, -0.550293, 0, 0.7806396, 0, -16.2290077, 0, 14.519084, 0, -4.0152674, 0, 0.0199741, 0, -0.6322632, 0, -0.7382812, 0, -0.3512573, 0, -24.7786255, 0, 9.717557, 0, 3.038168, , , , , , , , , , , , , , , , , , , , , , 
0.0007941, -0.0082246, 0.00675, 0.1575317, 0.00675, -0.5507812, 0.00675, 0.7810059, 0.00675, -15.9465647, 0.00675, 14.5725193, 0.00675, -3.9465649, 0.0007941, 0.0193027, 0.00675, -0.6317139, 0.00675, -0.7357788, 0.00675, -0.3534546, 0.00675, -24.3053436, 0.00675, 9.4427481, 0.00675, 3.3358779, , , , , , , , , , , , , , , , , , , , , , 
0.0015882, -0.0109102, 0.0135, 0.1575928, 0.0135, -0.5496826, 0.0135, 0.7810059, 0.0135, -15.9465647, 0.0135, 14.2290077, 0.0135, -3.8473282, 0.0015882, 0.0196384, 0.0135, -0.6279907, 0.0135, -0.7328491, 0.0135, -0.3583984, 0.0135, -23.9236641, 0.0135, 9.5267172, 0.0135, 3.519084, , , , , , , , , , , , , , , , , , , , , , 
0.0023824, -0.0112459, 0.02025, 0.1623535, 0.02025, -0.5516357, 0.02025, 0.7811279, 0.02025, -15.7404585, 0.02025, 13.8244276, 0.02025, -3.7938931, 0.0023824, 0.018967, 0.02025, -0.6272583, 0.02025, -0.7305908, 0.02025, -0.3585205, 0.02025, -23.8167934, 0.02025, 9.641221, 0.02025, 3.3816793, , , , , , , , , , , , , , , , , , , , , , 
0.0031765, -0.0344091, 0.027, 0.1656494, 0.027, -0.5473633, 0.027, 0.7797241, 0.027, -15.5419846, 0.027, 13.1145039, 0.027, -3.9465649, 0.0031765, 0.0203098, 0.027, -0.6269531, 0.027, -0.7296143, 0.027, -0.361145, 0.027, -24.160305, 0.027, 10.5114508, 0.027, 3.038168, , , , , , , , , , , , , , , , , , , , , , 
0.0039706, -0.0538796, 0.03375, 0.1675415, 0.03375, -0.5467529, 0.03375, 0.7798462, 0.03375, -16.038168, 0.03375, 12.8091602, 0.03375, -4.221374, 0.0039706, 0.012253, 0.03375, -0.6318359, 0.03375, -0.7299805, 0.03375, -0.3580933, 0.03375, -24.6106873, 0.03375, 10.9312973, 0.03375, 2.8091602, , , , , , , , , , , , , , , , , , , , , , 
0.0047647, -0.0500191, 0.0405, 0.1662598, 0.0405, -0.5452271, 0.0405, 0.7813721, 0.0405, -16.2824421, 0.0405, 13.0992365, 0.0405, -4.2824426, 0.0047647, 0.0082246, 0.0405, -0.6323242, 0.0405, -0.7293091, 0.0405, -0.3590088, 0.0405, -24.67939, 0.0405, 10.9160309, 0.0405, 2.7022901, , , , , , , , , , , , , , , , , , , , , , 
0.0055588, -0.0337377, 0.04725, 0.1677856, 0.04725, -0.5438843, 0.04725, 0.7821045, 0.04725, -16.1526718, 0.04725, 13.6717558, 0.04725, -4.2824426, 0.0055588, 0.0092317, 0.04725, -0.6357422, 0.04725, -0.7246094, 0.04725, -0.3574219, 0.04725, -24.6564884, 0.04725, 10.4885492, 0.04725, 2.8396947, , , , , , , , , , , , , , , , , , , , , , 
0.0063529, -0.011078, 0.054, 0.1657104, 0.054, -0.5435181, 0.054, 0.7805786, 0.054, -16.2366409, 0.054, 14.1832066, 0.054, -4.0916033, 0.0063529, 0.0129244, 0.054, -0.6356201, 0.054, -0.7258301, 0.054, -0.3546143, 0.054, -24.7175579, 0.054, 10.1068707, 0.054, 3.2519083, , , , , , , , , , , , , , , , , , , , , , 
0.0071471, 0.0112459, 0.06075, 0.1650391, 0.06075, -0.5459595, 0.06075, 0.7802124, 0.06075, -15.9923668, 0.06075, 14.6259546, 0.06075, -3.740458, 0.0071471, 0.0147707, 0.06075, -0.6345215, 0.06075, -0.7250977, 0.06075, -0.3548584, 0.06075, -24.5954189, 0.06075, 9.5496187, 0.06075, 3.4732823, , , , , , , , , , , , , , , , , , , , , , 
0.0079412, 0.0260166, 0.0675, 0.1638794, 0.0675, -0.5453491, 0.0675, 0.7822876, 0.0675, -15.8931293, 0.0675, 15.0610685, 0.0675, -3.4656489, 0.0079412, 0.0186313, 0.0675, -0.6296997, 0.0675, -0.729248, 0.0675, -0.3569946, 0.0675, -24.6870232, 0.0675, 9.7938929, 0.0675, 3.4656489, , , , , , , , , , , , , , , , , , , , , , 
0.0087353, 0.0260166, 0.07425, 0.1657104, 0.07425, -0.5432739, 0.07425, 0.7835693, 0.07425, -15.9236641, 0.07425, 14.9694653, 0.07425, -3.4274809, 0.0087353, 0.0186313, 0.07425, -0.62677, 0.07425, -0.7299194, 0.07425, -0.3600464, 0.07425, -24.32061, 0.07425, 10.6106873, 0.07425, 3.351145, , , , , , , , , , , , , , , , , , , , , , 
0.0095294, 0.0223239, 0.081, 0.1605225, 0.081, -0.5432739, 0.081, 0.7831421, 0.081, -15.9312973, 0.081, 15.3282442, 0.081, -3.5954199, 0.0095294, 0.0184634, 0.081, -0.6296997, 0.081, -0.7304077, 0.081, -0.3579102, 0.081, -24.5114498, 0.081, 11.6030531, 0.081, 3.1526718, , , , , , , , , , , , , , , , , , , , , , 
0.0103235, 0.0203098, 0.08775, 0.1601562, 0.08775, -0.5420532, 0.08775, 0.7833862, 0.08775, -16.0229015, 0.08775, 15.6870232, 0.08775, -3.961832, 0.0103235, 0.0139315, 0.08775, -0.6320801, 0.08775, -0.730835, 0.08775, -0.3605347, 0.08775, -24.8091602, 0.08775, 12.839695, 0.08775, 2.870229, , , , , , , , , , , , , , , , , , , , , , 
0.0111176, 0.0119173, 0.0945, 0.159668, 0.0945, -0.5449829, 0.0945, 0.7817383, 0.0945, -15.9923668, 0.0945, 15.8549614, 0.0945, -4.4885497, 0.0111176, 0.0104067, 0.0945, -0.638916, 0.0945, -0.7304688, 0.0945, -0.3566895, 0.0945, -25.0534344, 0.0945, 13.3740454, 0.0945, 2.7099237, , , , , , , , , , , , , , , , , , , , , , 
0.0119118, 0.0006714, 0.10125, 0.1571045, 0.10125, -0.5422363, 0.10125, 0.7826538, 0.10125, -16.1450386, 0.10125, 15.9694653, 0.10125, -4.5572519, 0.0119118, 0.0132601, 0.10125, -0.6462402, 0.10125, -0.7296143, 0.10125, -0.3554077, 0.10125, -24.9923668, 0.10125, 12.9541988, 0.10125, 2.5877862, , , , , , , , , , , , , , , , , , , , , , 
0.0127059, -0.0065461, 0.108, 0.1535645, 0.108, -0.543335, 0.108, 0.7825317, 0.108, -16.3435116, 0.108, 15.7557249, 0.108, -4.6335878, 0.0127059, 0.0099031, 0.108, -0.6453247, 0.108, -0.7302856, 0.108, -0.3566284, 0.108, -25.0152664, 0.108, 11.717557, 0.108, 2.5572519, , , , , , , , , , , , , , , , , , , , , , 
0.0135, -0.0090639, 0.11475, 0.1553955, 0.11475, -0.5476074, 0.11475, 0.7802734, 0.11475, -16.2671757, 0.11475, 15.3129768, 0.11475, -4.3435116, 0.0135, 0.0058747, 0.11475, -0.6436768, 0.11475, -0.7302246, 0.11475, -0.3615723, 0.11475, -24.8244267, 0.11475, 10.3893127, 0.11475, 2.5572519, , , , , , , , , , , , , , , , , , , , , , 
0.0142941, -0.0099031, 0.1215, 0.1546021, 0.1215, -0.5469971, 0.1215, 0.7794189, 0.1215, -16.4503822, 0.1215, 14.6259546, 0.1215, -4.1832061, 0.0142941, 0.0057069, 0.1215, -0.6389771, 0.1215, -0.7318726, 0.1215, -0.3621826, 0.1215, -24.9923668, 0.1215, 10.0305347, 0.1215, 2.6030533, , , , , , , , , , , , , , , , , , , , , , 
0.0150882, -0.0107424, 0.12825, 0.1549072, 0.12825, -0.5460815, 0.12825, 0.7816162, 0.12825, -16.4198475, 0.12825, 14.1221371, 0.12825, -4.0076337, 0.0150882, 0.0062104, 0.12825, -0.6328125, 0.12825, -0.7279663, 0.12825, -0.3622437, 0.12825, -25.4885502, 0.12825, 10.3358774, 0.12825, 2.5572519, , , , , , , , , , , , , , , , , , , , , , 
0.0158824, -0.0132601, 0.135, 0.159668, 0.135, -0.5499268, 0.135, 0.7781372, 0.135, -15.9694653, 0.135, 13.5648851, 0.135, -4.0534353, 0.0158824, 0.0065461, 0.135, -0.6265869, 0.135, -0.7305908, 0.135, -0.3557129, 0.135, -25.3435116, 0.135, 10.4274807, 0.135, 2.6793892, , , , , , , , , , , , , , , , , , , , , , 
0.0166765, -0.0152743, 0.14175, 0.1624756, 0.14175, -0.5489502, 0.14175, 0.776123, 0.14175, -16.0152664, 0.14175, 13.2442751, 0.14175, -4.1526718, 0.0166765, 0.0119173, 0.14175, -0.6246948, 0.14175, -0.7280884, 0.14175, -0.3502197, 0.14175, -25.0152664, 0.14175, 10.2900763, 0.14175, 2.7862597, , , , , , , , , , , , , , , , , , , , , , 
0.0174706, -0.01561, 0.1485, 0.1643066, 0.1485, -0.5483398, 0.1485, 0.776123, 0.1485, -15.5877867, 0.1485, 13.5801525, 0.1485, -4.1679387, 0.0174706, 0.0152743, 0.1485, -0.6230469, 0.1485, -0.7260742, 0.1485, -0.3495483, 0.1485, -24.557251, 0.1485, 9.8549614, 0.1485, 3, , , , , , , , , , , , , , , , , , , , , , 
0.0182647, -0.0109102, 0.15525, 0.1630249, 0.15525, -0.5510254, 0.15525, 0.7776489, 0.15525, -15.5038166, 0.15525, 14.3129768, 0.15525, -3.8931298, 0.0182647, 0.0219883, 0.15525, -0.6281128, 0.15525, -0.7271729, 0.15525, -0.350708, 0.15525, -24.5038166, 0.15525, 9.6488552, 0.15525, 3.1450381, , , , , , , , , , , , , , , , , , , , , , 
0.0190588, -0.0105745, 0.162, 0.1641235, 0.162, -0.5462036, 0.162, 0.7817993, 0.162, -15.4351149, 0.162, 15.2519083, 0.162, -3.8778627, 0.0190588, 0.0229953, 0.162, -0.6276855, 0.162, -0.7265625, 0.162, -0.3547974, 0.162, -24.6183205, 0.162, 9.7404585, 0.162, 3.2519083, , , , , , , , , , , , , , , , , , , , , , 
0.0198529, -0.0115816, 0.16875, 0.1641235, 0.16875, -0.5456543, 0.16875, 0.7807617, 0.16875, -15.2366409, 0.16875, 15.5496187, 0.16875, -3.9007633, 0.0198529, 0.0246738, 0.16875, -0.6308594, 0.16875, -0.7277222, 0.16875, -0.3569336, 0.16875, -24.8167934, 0.16875, 10.4503813, 0.16875, 3.4427481, , , , , , , , , , , , , , , , , , , , , , 
0.0206471, -0.0092317, 0.1755, 0.1557007, 0.1755, -0.5432129, 0.1755, 0.7834473, 0.1755, -15.4961834, 0.1755, 15.5496187, 0.1755, -3.870229, 0.0206471, 0.0172885, 0.1755, -0.6287231, 0.1755, -0.7305908, 0.1755, -0.3604126, 0.1755, -24.8931293, 0.1755, 10.641221, 0.1755, 3.5343511, , , , , , , , , , , , , , , , , , , , , , 
0.0214412, -0.0072175, 0.18225, 0.1517944, 0.18225, -0.5454712, 0.18225, 0.7803955, 0.18225, -15.6641226, 0.18225, 15.3664122, 0.18225, -3.7862597, 0.0214412, 0.0109102, 0.18225, -0.6337891, 0.18225, -0.7321777, 0.18225, -0.3619385, 0.18225, -24.8244267, 0.18225, 10.8931293, 0.18225, 3.740458, , , , , , , , , , , , , , , , , , , , , , 
0.0222353, -0.0082246, 0.189, 0.1539917, 0.189, -0.5459595, 0.189, 0.7811279, 0.189, -15.6030531, 0.189, 15.5038166, 0.189, -3.6870229, 0.0222353, 0.0090639, 0.189, -0.6378174, 0.189, -0.7347412, 0.189, -0.3637085, 0.189, -24.5038166, 0.189, 10.717557, 0.189, 4.1221375, , , , , , , , , , , , , , , , , , , , , , 
0.0230294, -0.0095674, 0.19575, 0.1566772, 0.19575, -0.5507812, 0.19575, 0.781189, 0.19575, -15.9160309, 0.19575, 15.2213745, 0.19575, -3.8244274, 0.0230294, 0.0119173, 0.19575, -0.6362305, 0.19575, -0.7369995, 0.19575, -0.3637085, 0.19575, -24.3129768, 0.19575, 10.679389, 0.19575, 4.0839696, , , , , , , , , , , , , , , , , , , , , , 
0.0238235, -0.0135958, 0.2025, 0.1591797, 0.2025, -0.546814, 0.2025, 0.7821045, 0.2025, -16.0229015, 0.2025, 14.6870232, 0.2025, -3.7328243, 0.0238235, 0.0199741, 0.2025, -0.633667, 0.2025, -0.7356567, 0.2025, -0.361145, 0.2025, -24.4198475, 0.2025, 10.717557, 0.2025, 3.5419848, , , , , , , , , , , , , , , , , , , , , , 
0.0246176, -0.014435, 0.20925, 0.1630859, 0.20925, -0.5469971, 0.20925, 0.7817383, 0.20925, -16.2671757, 0.20925, 14.3435116, 0.20925, -4.0152674, 0.0246176, 0.0204776, 0.20925, -0.6305542, 0.20925, -0.7333984, 0.20925, -0.3615112, 0.20925, -24.2290077, 0.20925, 11.0534353, 0.20925, 2.9389312, , , , , , , , , , , , , , , , , , , , , , 
0.0254118, -0.0135958, 0.216, 0.1620483, 0.216, -0.5482178, 0.216, 0.7807617, 0.216, -16.2977104, 0.216, 14.320611, 0.216, -4.1450381, 0.0254118, 0.0142672, 0.216, -0.6311035, 0.216, -0.7344971, 0.216, -0.3590088, 0.216, -24.5267181, 0.216, 11.8091602, 0.216, 2.2748091, , , , , , , , , , , , , , , , , , , , , , 
0.0262059, -0.0092317, 0.22275, 0.1598511, 0.22275, -0.5489502, 0.22275, 0.7800293, 0.22275, -16.6488552, 0.22275, 14.2061071, 0.22275, -4.2824426, 0.0262059, 0.0105745, 0.22275, -0.6386108, 0.22275, -0.7319946, 0.22275, -0.3602295, 0.22275, -24.8702297, 0.22275, 12.3129768, 0.22275, 1.8244275, , , , , , , , , , , , , , , , , , , , , , 
0.027, -0.0035248, 0.2295, 0.1589355, 0.2295, -0.5493774, 0.2295, 0.7821655, 0.2295, -16.6183205, 0.2295, 14.038168, 0.2295, -4.4427481, 0.027, 0.0140993, 0.2295, -0.637146, 0.2295, -0.7324829, 0.2295, -0.3548584, 0.2295, -25.0763359, 0.2295, 12.0152674, 0.2295, 1.7251909, , , , , , , , , , , , , , , , , , , , , , 
0.0277941, -0.0052033, 0.23625, 0.1587524, 0.23625, -0.5508423, 0.23625, 0.7776489, 0.23625, -16.3511448, 0.23625, 13.9465647, 0.23625, -4.3282442, 0.0277941, 0.0125887, 0.23625, -0.6376343, 0.23625, -0.732666, 0.23625, -0.3550415, 0.23625, -25.2671757, 0.23625, 11.4656487, 0.23625, 1.8778626, , , , , , , , , , , , , , , , , , , , , , 
0.0285882, -0.0099031, 0.243, 0.161499, 0.243, -0.5458374, 0.243, 0.7781372, 0.243, -16.4580154, 0.243, 14.3129768, 0.243, -4.1679387, 0.0285882, 0.0095674, 0.243, -0.6358643, 0.243, -0.7318115, 0.243, -0.3497925, 0.243, -25.2213745, 0.243, 10.9083967, 0.243, 2.1068702, , , , , , , , , , , , , , , , , , , , , , 
0.0293824, -0.0142672, 0.24975, 0.1633911, 0.24975, -0.5462036, 0.24975, 0.7786865, 0.24975, -16.4885502, 0.24975, 14.4580154, 0.24975, -3.8854961, 0.0293824, 0.008896, 0.24975, -0.633667, 0.24975, -0.7319946, 0.24975, -0.3501587, 0.24975, -25.038168, 0.24975, 10.8549614, 0.24975, 2.4580152, , , , , , , , , , , , , , , , , , , , , , 
0.0301765, -0.0179599, 0.2565, 0.1609497, 0.2565, -0.5454712, 0.2565, 0.7813721, 0.2565, -16.4885502, 0.2565, 14.2519083, 0.2565, -4.038168, 0.0301765, 0.0112459, 0.2565, -0.631958, 0.2565, -0.7319946, 0.2565, -0.3499146, 0.2565, -24.6106873, 0.2565, 10.641221, 0.2565, 2.8320611, , , , , , , , , , , , , , , , , , , , , , 
0.0309706, -0.0166171, 0.26325, 0.1604004, 0.26325, -0.5477295, 0.26325, 0.7809448, 0.26325, -16.2748089, 0.26325, 14.4656487, 0.26325, -3.7938931, 0.0309706, 0.0105745, 0.26325, -0.6304321, 0.26325, -0.7289429, 0.26325, -0.3511963, 0.26325, -24.4885502, 0.26325, 9.9312973, 0.26325, 3.259542, , , , , , , , , , , , , , , , , , , , , , 
0.0317647, -0.0129244, 0.27, 0.1610718, 0.27, -0.546814, 0.27, 0.7816772, 0.27, -15.9923668, 0.27, 15.0305347, 0.27, -3.8167939, 0.0317647, 0.012253, 0.27, -0.6281738, 0.27, -0.7332153, 0.27, -0.3525391, 0.27, -24.0305347, 0.27, 9.5038166, 0.27, 3.4503818, , , , , , , , , , , , , , , , , , , , , , 
0.0325588, -0.0085603, 0.27675, 0.1590576, 0.27675, -0.5489502, 0.27675, 0.7797241, 0.27675, -15.8854961, 0.27675, 15.0839691, 0.27675, -3.7328243, 0.0325588, 0.0152743, 0.27675, -0.6337891, 0.27675, -0.7331543, 0.27675, -0.3580322, 0.27675, -23.801527, 0.27675, 9.4122133, 0.27675, 3.6564887, , , , , , , , , , , , , , , , , , , , , , 
0.0333529, -0.0068818, 0.2835, 0.1599731, 0.2835, -0.5456543, 0.2835, 0.7796021, 0.2835, -15.8778629, 0.2835, 14.3129768, 0.2835, -3.6717558, 0.0333529, 0.01561, 0.2835, -0.6333008, 0.2835, -0.7307739, 0.2835, -0.3614502, 0.2835, -23.4274807, 0.2835, 9.4503813, 0.2835, 3.5877862, , , , , , , , , , , , , , , , , , , , , , 
0.0341471, -0.0046998, 0.29025, 0.1593018, 0.29025, -0.5485229, 0.29025, 0.7778931, 0.29025, -15.7251911, 0.29025, 14.198473, 0.29025, -3.5496182, 0.0341471, 0.0172885, 0.29025, -0.6318359, 0.29025, -0.7316895, 0.29025, -0.3654785, 0.29025, -23.6870232, 0.29025, 9.9465647, 0.29025, 3.4198472, , , , , , , , , , , , , , , , , , , , , , 
0.0349412, -0.0068818, 0.297, 0.1558838, 0.297, -0.5455933, 0.297, 0.7833862, 0.297, -15.8320608, 0.297, 14.282443, 0.297, -3.5877862, 0.0349412, 0.0157778, 0.297, -0.6353149, 0.297, -0.7346802, 0.297, -0.3646851, 0.297, -24.0992374, 0.297, 10.160305, 0.297, 3.3969467, , , , , , , , , , , , , , , , , , , , , , 
0.0357353, -0.0102388, 0.30375, 0.1593628, 0.30375, -0.5477905, 0.30375, 0.7825317, 0.30375, -15.9465647, 0.30375, 14.5954199, 0.30375, -3.8167939, 0.0357353, 0.0164492, 0.30375, -0.6357422, 0.30375, -0.7310791, 0.30375, -0.3648071, 0.30375, -24.7786255, 0.30375, 10.4274807, 0.30375, 3.3282442, , , , , , , , , , , , , , , , , , , , , , 
0.0365294, -0.0151064, 0.3105, 0.1570435, 0.3105, -0.545166, 0.3105, 0.7862549, 0.3105, -16.1145039, 0.3105, 14.7557249, 0.3105, -3.7328243, 0.0365294, 0.0162814, 0.3105, -0.6339722, 0.3105, -0.7307739, 0.3105, -0.3618774, 0.3105, -25.0076332, 0.3105, 10.4580154, 0.3105, 3.0534351, , , , , , , , , , , , , , , , , , , , , , 
0.0373235, -0.0270237, 0.31725, 0.1572876, 0.31725, -0.5459595, 0.31725, 0.7817383, 0.31725, -16.5419846, 0.31725, 14.641221, 0.31725, -3.9770992, 0.0373235, 0.0146029, 0.31725, -0.6349487, 0.31725, -0.7333374, 0.31725, -0.3588257, 0.31725, -25.1679382, 0.31725, 10.5725193, 0.31725, 2.7099237, , , , , , , , , , , , , , , , , , , , , , 
0.0381176, -0.0323949, 0.324, 0.1575317, 0.324, -0.5439453, 0.324, 0.7827759, 0.324, -16.6259537, 0.324, 14.038168, 0.324, -4.1679387, 0.0381176, 0.017792, 0.324, -0.6344604, 0.324, -0.730957, 0.324, -0.3556519, 0.324, -25.0229015, 0.324, 10.6641226, 0.324, 2.3053436, , , , , , , , , , , , , , , , , , , , , , 
0.0389118, -0.0229953, 0.33075, 0.157959, 0.33075, -0.5474854, 0.33075, 0.7775879, 0.33075, -16.4580154, 0.33075, 13.8167934, 0.33075, -4.1755724, 0.0389118, 0.0181277, 0.33075, -0.6356812, 0.33075, -0.725708, 0.33075, -0.3552246, 0.33075, -24.8244267, 0.33075, 10.6717558, 0.33075, 2.1984732, , , , , , , , , , , , , , , , , , , , , , 
0.0397059, -0.005539, 0.3375, 0.1567383, 0.3375, -0.5466919, 0.3375, 0.7756348, 0.3375, -16.0992374, 0.3375, 14.0229006, 0.3375, -4.2748094, 0.0397059, 0.0176242, 0.3375, -0.6353149, 0.3375, -0.7230835, 0.3375, -0.3533325, 0.3375, -24.8091602, 0.3375, 10.6564884, 0.3375, 2.1526718, , , , , , , , , , , , , , , , , , , , , , 
0.0405, 0.0065461, 0.34425, 0.1594238, 0.34425, -0.5494995, 0.34425, 0.7750244, 0.34425, -16, 0.34425, 14.5343513, 0.34425, -4.2977099, 0.0405, 0.0135958, 0.34425, -0.6333618, 0.34425, -0.7279663, 0.34425, -0.3547363, 0.34425, -25.1450386, 0.34425, 10.3893127, 0.34425, 2.1908398, , , , , , , , , , , , , , , , , , , , , , 
0.0412941, 0.0045319, 0.351, 0.1619263, 0.351, -0.5490112, 0.351, 0.7774658, 0.351, -15.9465647, 0.351, 14.5572519, 0.351, -4.2824426, 0.0412941, 0.008896, 0.351, -0.6262207, 0.351, -0.7294922, 0.351, -0.3587646, 0.351, -25.3435116, 0.351, 10.1221371, 0.351, 2.1145039, , , , , , , , , , , , , , , , , , , , , , 
0.0420882, -0.0040284, 0.35775, 0.1591797, 0.35775, -0.5463257, 0.35775, 0.7792358, 0.35775, -15.7099237, 0.35775, 14.2671757, 0.35775, -4.1450381, 0.0420882, 0.0125887, 0.35775, -0.6229248, 0.35775, -0.7267456, 0.35775, -0.3596191, 0.35775, -25.160305, 0.35775, 10.3893127, 0.35775, 2.3129771, , , , , , , , , , , , , , , , , , , , , , 
0.0428824, -0.0058747, 0.3645, 0.1568604, 0.3645, -0.5429077, 0.3645, 0.7765503, 0.3645, -16.038168, 0.3645, 14.1374044, 0.3645, -3.9541984, 0.0428824, 0.0129244, 0.3645, -0.6237793, 0.3645, -0.7271729, 0.3645, -0.3583374, 0.3645, -24.7938938, 0.3645, 10.6870232, 0.3645, 2.4351146, , , , , , , , , , , , , , , , , , , , , , 
0.0436765, -0.0008392, 0.37125, 0.1521606, 0.37125, -0.5459595, 0.37125, 0.7824707, 0.37125, -16.1145039, 0.37125, 14.519084, 0.37125, -3.908397, 0.0436765, 0.0125887, 0.37125, -0.6263428, 0.37125, -0.7269897, 0.37125, -0.3590088, 0.37125, -24.6641216, 0.37125, 10.7480917, 0.37125, 3.0305343, , , , , , , , , , , , , , , , , , , , , , 
0.0444706, -0.0010071, 0.378, 0.1544189, 0.378, -0.5482788, 0.378, 0.7773438, 0.378, -15.6183205, 0.378, 15.0992365, 0.378, -3.7022901, 0.0444706, 0.0105745, 0.378, -0.6306763, 0.378, -0.7301636, 0.378, -0.3533325, 0.378, -24.6717548, 0.378, 10.038168, 0.378, 3.7251909, , , , , , , , , , , , , , , , , , , , , , 
0.0452647, -0.005539, 0.38475, 0.1524048, 0.38475, -0.5449219, 0.38475, 0.7820435, 0.38475, -15.4885492, 0.38475, 14.9847326, 0.38475, -3.4503818, 0.0452647, 0.0139315, 0.38475, -0.633667, 0.38475, -0.7300415, 0.38475, -0.3546753, 0.38475, -24.5038166, 0.38475, 9.3664122, 0.38475, 4.3435116, , , , , , , , , , , , , , , , , , , , , , 
0.0460588, -0.0099031, 0.3915, 0.1566772, 0.3915, -0.5485229, 0.3915, 0.7802124, 0.3915, -15.5038166, 0.3915, 14.6946564, 0.3915, -3.351145, 0.0460588, 0.0135958, 0.3915, -0.6350708, 0.3915, -0.732666, 0.3915, -0.3579102, 0.3915, -24.5877857, 0.3915, 9.4274807, 0.3915, 4.2366414, , , , , , , , , , , , , , , , , , , , , , 
0.0468529, -0.0068818, 0.39825, 0.1621704, 0.39825, -0.548584, 0.39825, 0.7790527, 0.39825, -15.5572519, 0.39825, 14.1526718, 0.39825, -3.3282442, 0.0468529, 0.0070497, 0.39825, -0.6350708, 0.39825, -0.7337646, 0.39825, -0.3569336, 0.39825, -24.519083, 0.39825, 9.9312973, 0.39825, 3.7328243, , , , , , , , , , , , , , , , , , , , , , 
0.0476471, -0.0075532, 0.405, 0.1621094, 0.405, -0.5488892, 0.405, 0.7789307, 0.405, -15.7557249, 0.405, 13.5877867, 0.405, -3.5267177, 0.0476471, 0.0078889, 0.405, -0.6361694, 0.405, -0.7353516, 0.405, -0.3586426, 0.405, -24.5114498, 0.405, 11.0305347, 0.405, 3.1374047, , , , , , , , , , , , , , , , , , , , , , 
0.0484412, -0.0092317, 0.41175, 0.1641235, 0.41175, -0.543457, 0.41175, 0.7841187, 0.41175, -15.7786255, 0.41175, 13.8091602, 0.41175, -3.7862597, 0.0484412, 0.010071, 0.41175, -0.6395264, 0.41175, -0.7374878, 0.41175, -0.3598022, 0.41175, -24.5496178, 0.41175, 11.9541988, 0.41175, 2.4351146, , , , , , , , , , , , , , , , , , , , , , 
0.0492353, -0.0068818, 0.4185, 0.1595459, 0.4185, -0.5424805, 0.4185, 0.7835693, 0.4185, -16.358778, 0.4185, 14.0229006, 0.4185, -4.0839696, 0.0492353, 0.0097353, 0.4185, -0.6397705, 0.4185, -0.7371826, 0.4185, -0.3587036, 0.4185, -24.7480907, 0.4185, 12.2595415, 0.4185, 1.9160305, , , , , , , , , , , , , , , , , , , , , , 
0.0500294, -0.0075532, 0.42525, 0.1615601, 0.42525, -0.5450439, 0.42525, 0.7836304, 0.42525, -16.9160309, 0.42525, 13.6488552, 0.42525, -4.2900763, 0.0500294, 0.0132601, 0.42525, -0.6414795, 0.42525, -0.7350464, 0.42525, -0.3571167, 0.42525, -24.8473282, 0.42525, 11.8702288, 0.42525, 1.8320611, , , , , , , , , , , , , , , , , , , , , , 
0.0508235, -0.0099031, 0.432, 0.1593018, 0.432, -0.5498047, 0.432, 0.78125, 0.432, -17.0152664, 0.432, 13.4427481, 0.432, -4.6106873, 0.0508235, 0.0132601, 0.432, -0.6419067, 0.432, -0.7339478, 0.432, -0.3580933, 0.432, -25.1068707, 0.432, 11.320611, 0.432, 2, , , , , , , , , , , , , , , , , , , , , , 
0.0516176, -0.0114137, 0.43875, 0.1591187, 0.43875, -0.5516968, 0.43875, 0.7807007, 0.43875, -16.9694653, 0.43875, 13.4503813, 0.43875, -4.5572519, 0.0516176, 0.0087282, 0.43875, -0.6375122, 0.43875, -0.7362671, 0.43875, -0.3553467, 0.43875, -25.1145039, 0.43875, 10.1221371, 0.43875, 2.3206108, , , , , , , , , , , , , , , , , , , , , , 
0.0524118, -0.0068818, 0.4455, 0.1619873, 0.4455, -0.5537109, 0.4455, 0.777832, 0.4455, -16.6335869, 0.4455, 13.282443, 0.4455, -4.1679387, 0.0524118, -0.0041962, 0.4455, -0.6333008, 0.4455, -0.7337036, 0.4455, -0.3545532, 0.4455, -25.0305347, 0.4455, 8.9541988, 0.4455, 2.6793892, , , , , , , , , , , , , , , , , , , , , , 
0.0532059, -0.0078889, 0.45225, 0.1607056, 0.45225, -0.5540771, 0.45225, 0.7794189, 0.45225, -16.3282452, 0.45225, 13.4351149, 0.45225, -4.2519083, 0.0532059, -0.0109102, 0.45225, -0.6262207, 0.45225, -0.7359619, 0.45225, -0.3544312, 0.45225, -24.2900772, 0.45225, 8.3664122, 0.45225, 3, , , , , , , , , , , , , , , , , , , , , , 
0.054, -0.0062104, 0.459, 0.1582031, 0.459, -0.5529785, 0.459, 0.7784424, 0.459, -16.1832066, 0.459, 13.7709923, 0.459, -4, 0.054, -0.0102388, 0.459, -0.6193848, 0.459, -0.7338867, 0.459, -0.3572388, 0.459, -23.8854961, 0.459, 8.5114508, 0.459, 2.9389312, , , , , , , , , , , , , , , , , , , , , , 
0.0547941, -0.0062104, 0.46575, 0.1586914, 0.46575, -0.5498047, 0.46575, 0.7758789, 0.46575, -16.2748089, 0.46575, 14.2900763, 0.46575, -3.7175572, 0.0547941, -0.0115816, 0.46575, -0.623291, 0.46575, -0.7301636, 0.46575, -0.3546143, 0.46575, -23.7938938, 0.46575, 9.5038166, 0.46575, 2.9847329, , , , , , , , , , , , , , , , , , , , , , 
0.0555882, -0.0097353, 0.4725, 0.1569214, 0.4725, -0.5454712, 0.4725, 0.7780151, 0.4725, -16.1374054, 0.4725, 14.3282442, 0.4725, -3.7251909, 0.0555882, -0.011078, 0.4725, -0.6260986, 0.4725, -0.7316284, 0.4725, -0.3536987, 0.4725, -23.9770985, 0.4725, 10.198473, 0.4725, 3.0610688, , , , , , , , , , , , , , , , , , , , , , 
0.0563824, -0.0117494, 0.47925, 0.1572876, 0.47925, -0.5454712, 0.47925, 0.7800293, 0.47925, -16.2366409, 0.47925, 14.3435116, 0.47925, -3.5877862, 0.0563824, -0.0035248, 0.47925, -0.6325073, 0.47925, -0.7316895, 0.47925, -0.3535156, 0.47925, -24, 0.47925, 10.8625956, 0.47925, 3.2290077, , , , , , , , , , , , , , , , , , , , , , 
0.0571765, -0.0105745, 0.486, 0.1619263, 0.486, -0.5426636, 0.486, 0.7780151, 0.486, -16.4122143, 0.486, 13.7709923, 0.486, -3.7480917, 0.0571765, 0.0078889, 0.486, -0.6370239, 0.486, -0.7293091, 0.486, -0.3544922, 0.486, -24.358778, 0.486, 10.9923668, 0.486, 3.1755726, , , , , , , , , , , , , , , , , , , , , , 
0.0579706, -0.0102388, 0.49275, 0.1656494, 0.49275, -0.5432129, 0.49275, 0.7823486, 0.49275, -16.5648861, 0.49275, 13.5114508, 0.49275, -3.9541984, 0.0579706, 0.0142672, 0.49275, -0.6376343, 0.49275, -0.7268066, 0.49275, -0.3547974, 0.49275, -24.2900772, 0.49275, 10.6259546, 0.49275, 3.1145039, , , , , , , , , , , , , , , , , , , , , , 
0.0587647, -0.0095674, 0.4995, 0.1636963, 0.4995, -0.5473022, 0.4995, 0.7828979, 0.4995, -16.519083, 0.4995, 13.5343513, 0.4995, -3.8549619, 0.0587647, 0.0164492, 0.4995, -0.6375732, 0.4995, -0.7223511, 0.4995, -0.3581543, 0.4995, -24.4961834, 0.4995, 9.8625956, 0.4995, 3.0763359, , , , , , , , , , , , , , , , , , , , , , 
0.0595588, -0.0082246, 0.50625, 0.1640625, 0.50625, -0.5474243, 0.50625, 0.7814941, 0.50625, -16.0687027, 0.50625, 14.198473, 0.50625, -3.9236641, 0.0595588, 0.0152743, 0.50625, -0.6353149, 0.50625, -0.7247314, 0.50625, -0.3578491, 0.50625, -24.5725193, 0.50625, 9.6106873, 0.50625, 2.8244274, , , , , , , , , , , , , , , , , , , , , , 
0.0603529, -0.0092317, 0.513, 0.1680298, 0.513, -0.5419312, 0.513, 0.7805786, 0.513, -16.0076332, 0.513, 14.4732828, 0.513, -3.7099237, 0.0603529, 0.0139315, 0.513, -0.6310425, 0.513, -0.7241821, 0.513, -0.3592529, 0.513, -24.442749, 0.513, 9.5419846, 0.513, 2.8091602, , , , , , , , , , , , , , , , , , , , , , 
0.0611471, -0.0095674, 0.51975, 0.159729, 0.51975, -0.5415039, 0.51975, 0.7818604, 0.51975, -16.1679382, 0.51975, 14.5648851, 0.51975, -3.7251909, 0.0611471, 0.0085603, 0.51975, -0.6322021, 0.51975, -0.7282715, 0.51975, -0.3562012, 0.51975, -24.2290077, 0.51975, 10.1526718, 0.51975, 2.7633588, , , , , , , , , , , , , , , , , , , , , , 
0.0619412, -0.0065461, 0.5265, 0.1581421, 0.5265, -0.5412598, 0.5265, 0.7850342, 0.5265, -15.9694653, 0.5265, 14.4732828, 0.5265, -3.9389312, 0.0619412, 0.0036927, 0.5265, -0.6307373, 0.5265, -0.7280884, 0.5265, -0.3543091, 0.5265, -24.2595425, 0.5265, 10.9694653, 0.5265, 2.6030533, , , , , , , , , , , , , , , , , , , , , , 
0.0627353, -0.005539, 0.53325, 0.1556396, 0.53325, -0.5432739, 0.53325, 0.7869873, 0.53325, -15.6564884, 0.53325, 14.6183205, 0.53325, -4.038168, 0.0627353, 0.0038605, 0.53325, -0.6317139, 0.53325, -0.7268677, 0.53325, -0.3554077, 0.53325, -24.442749, 0.53325, 11.3129768, 0.53325, 2.7022901, , , , , , , , , , , , , , , , , , , , , , 
0.0635294, -0.005539, 0.54, 0.1532593, 0.54, -0.5407715, 0.54, 0.7892456, 0.54, -15.8549614, 0.54, 14.7786255, 0.54, -4.2748094, 0.0635294, -0.0025177, 0.54, -0.6345825, 0.54, -0.7313232, 0.54, -0.3534546, 0.54, -24.3282452, 0.54, 10.8854961, 0.54, 2.9694657, , , , , , , , , , , , , , , , , , , , , , 
0.0643235, -0.0028534, 0.54675, 0.1589966, 0.54675, -0.5401611, 0.54675, 0.7858887, 0.54675, -15.8549614, 0.54675, 14.6183205, 0.54675, -4.3893127, 0.0643235, -0.0015106, 0.54675, -0.637146, 0.54675, -0.7286377, 0.54675, -0.3555908, 0.54675, -24.038168, 0.54675, 10.5496187, 0.54675, 3.0534351, , , , , , , , , , , , , , , , , , , , , , 
0.0651176, 0.0005035, 0.5535, 0.1621704, 0.5535, -0.5445557, 0.5535, 0.7827148, 0.5535, -16.1679382, 0.5535, 13.9160309, 0.5535, -4.5954199, 0.0651176, 0.0052033, 0.5535, -0.640564, 0.5535, -0.7320557, 0.5535, -0.3583984, 0.5535, -23.9236641, 0.5535, 9.641221, 0.5535, 3.1603053, , , , , , , , , , , , , , , , , , , , , , 
0.0659118, 0.0003357, 0.56025, 0.163208, 0.56025, -0.546814, 0.56025, 0.7839966, 0.56025, -16.4961834, 0.56025, 12.8778629, 0.56025, -4.5496182, 0.0659118, 0.0087282, 0.56025, -0.6401978, 0.56025, -0.7280884, 0.56025, -0.3667603, 0.56025, -24.1755733, 0.56025, 9.5648851, 0.56025, 2.9160306, , , , , , , , , , , , , , , , , , , , , , 
0.0667059, -0.0018463, 0.567, 0.1660767, 0.567, -0.5471802, 0.567, 0.7780151, 0.567, -16.5267181, 0.567, 12.5648851, 0.567, -4.6641221, 0.0667059, 0.0166171, 0.567, -0.6361694, 0.567, -0.7279053, 0.567, -0.3621216, 0.567, -24.6488552, 0.567, 9.7099237, 0.567, 2.6259542, , , , , , , , , , , , , , , , , , , , , , 
0.0675, -0.0005035, 0.57375, 0.1664429, 0.57375, -0.5483398, 0.57375, 0.7741699, 0.57375, -16.557251, 0.57375, 12.8778629, 0.57375, -4.5267177, 0.0675, 0.0226596, 0.57375, -0.6328735, 0.57375, -0.7293701, 0.57375, -0.3602905, 0.57375, -25.0839691, 0.57375, 10.3893127, 0.57375, 2.3206108, , , , , , , , , , , , , , , , , , , , , , 
0.0682941, 0.0011749, 0.5805, 0.1656494, 0.5805, -0.5480347, 0.5805, 0.7724609, 0.5805, -16.4045811, 0.5805, 13.160305, 0.5805, -4.4961834, 0.0682941, 0.0234989, 0.5805, -0.6291504, 0.5805, -0.7307739, 0.5805, -0.3533325, 0.5805, -25.3740463, 0.5805, 10.9312973, 0.5805, 2.3969467, , , , , , , , , , , , , , , , , , , , , , 
0.0690882, -0.0015106, 0.58725, 0.164978, 0.58725, -0.5482178, 0.58725, 0.7753296, 0.58725, -16.519083, 0.58725, 13.3282442, 0.58725, -4.5038166, 0.0690882, 0.0240024, 0.58725, -0.6245728, 0.58725, -0.7322998, 0.58725, -0.3469849, 0.58725, -25.2595425, 0.58725, 10.8244276, 0.58725, 2.3053436, , , , , , , , , , , , , , , , , , , , , , 
0.0698824, -0.0038605, 0.594, 0.1608276, 0.594, -0.5485229, 0.594, 0.7783813, 0.594, -16.1755733, 0.594, 14.320611, 0.594, -4.3282442, 0.0698824, 0.0213169, 0.594, -0.6234131, 0.594, -0.7283325, 0.594, -0.3464355, 0.594, -24.961832, 0.594, 10.6030531, 0.594, 2.2061069, , , , , , , , , , , , , , , , , , , , , , 
0.0706765, -0.0092317, 0.60075, 0.1616211, 0.60075, -0.552063, 0.60075, 0.78125, 0.60075, -16.0839691, 0.60075, 15.358779, 0.60075, -4.1145039, 0.0706765, 0.0229953, 0.60075, -0.6257935, 0.60075, -0.7287598, 0.60075, -0.3460693, 0.60075, -24.7328243, 0.60075, 10.4961834, 0.60075, 2.6183207, , , , , , , , , , , , , , , , , , , , , , 
0.0714706, -0.0092317, 0.6075, 0.1565552, 0.6075, -0.5482788, 0.6075, 0.78479, 0.6075, -15.7099237, 0.6075, 15.7328243, 0.6075, -3.9847329, 0.0714706, 0.0142672, 0.6075, -0.6259155, 0.6075, -0.7311401, 0.6075, -0.3530273, 0.6075, -24.5038166, 0.6075, 10.4656487, 0.6075, 3.0458016, , , , , , , , , , , , , , , , , , , , , , 
0.0722647, -0.0060426, 0.61425, 0.1569214, 0.61425, -0.5491943, 0.61425, 0.7817383, 0.61425, -15.4503813, 0.61425, 15.5343513, 0.61425, -3.7251909, 0.0722647, 0.0075532, 0.61425, -0.6306763, 0.61425, -0.7327271, 0.61425, -0.3581543, 0.61425, -24.4656487, 0.61425, 10.5725193, 0.61425, 3.6183207, , , , , , , , , , , , , , , , , , , , , , 
0.0730588, -0.0068818, 0.621, 0.1587524, 0.621, -0.5452881, 0.621, 0.7807617, 0.621, -15.6488552, 0.621, 14.7938929, 0.621, -3.6946564, 0.0730588, 0.0082246, 0.621, -0.6296997, 0.621, -0.732666, 0.621, -0.359375, 0.621, -24.32061, 0.621, 10.4885492, 0.621, 3.961832, , , , , , , , , , , , , , , , , , , , , , 
0.0738529, -0.0085603, 0.62775, 0.1608887, 0.62775, -0.5431519, 0.62775, 0.7836304, 0.62775, -15.8091602, 0.62775, 14.3969469, 0.62775, -3.8167939, 0.0738529, 0.011078, 0.62775, -0.6353149, 0.62775, -0.7319946, 0.62775, -0.3610229, 0.62775, -24.0152664, 0.62775, 10.679389, 0.62775, 4.1450381, , , , , , , , , , , , , , , , , , , , , , 
0.0746471, -0.0169528, 0.6345, 0.1616211, 0.6345, -0.5426025, 0.6345, 0.7838135, 0.6345, -16.160305, 0.6345, 14.839695, 0.6345, -3.8091602, 0.0746471, 0.012253, 0.6345, -0.6367798, 0.6345, -0.7347412, 0.6345, -0.359375, 0.6345, -23.8931293, 0.6345, 11.038168, 0.6345, 4.0152674, , , , , , , , , , , , , , , , , , , , , , 
0.0754412, -0.0256809, 0.64125, 0.1577759, 0.64125, -0.5461426, 0.64125, 0.7835083, 0.64125, -16.3816795, 0.64125, 15.3358774, 0.64125, -3.8931298, 0.0754412, 0.0162814, 0.64125, -0.6428223, 0.64125, -0.7359619, 0.64125, -0.3571167, 0.64125, -23.67939, 0.64125, 11.0534353, 0.64125, 3.778626, , , , , , , , , , , , , , , , , , , , , , 
0.0762353, -0.0219883, 0.648, 0.1557617, 0.648, -0.5482788, 0.648, 0.7782593, 0.648, -16.5725193, 0.648, 14.4351149, 0.648, -3.8244274, 0.0762353, 0.0152743, 0.648, -0.6419067, 0.648, -0.7320557, 0.648, -0.355835, 0.648, -23.9541988, 0.648, 11.4045801, 0.648, 3.1679389, , , , , , , , , , , , , , , , , , , , , , 
0.0770294, -0.0135958, 0.65475, 0.1582031, 0.65475, -0.546814, 0.65475, 0.7758179, 0.65475, -16.7480907, 0.65475, 13.6106873, 0.65475, -3.8091602, 0.0770294, 0.01561, 0.65475, -0.6400757, 0.65475, -0.7365723, 0.65475, -0.3555908, 0.65475, -24.2442741, 0.65475, 11.6183205, 0.65475, 2.4274809, , , , , , , , , , , , , , , , , , , , , , 
0.0778235, -0.0058747, 0.6615, 0.1618042, 0.6615, -0.5466309, 0.6615, 0.7796631, 0.6615, -17, 0.6615, 12.5419846, 0.6615, -4.1679387, 0.0778235, 0.0186313, 0.6615, -0.6374512, 0.6615, -0.7349854, 0.6615, -0.3547974, 0.6615, -24.4961834, 0.6615, 11.7633591, 0.6615, 1.6870229, , , , , , , , , , , , , , , , , , , , , , 
0.0786176, -0.0003357, 0.66825, 0.1651001, 0.66825, -0.5494995, 0.66825, 0.7825317, 0.66825, -16.8244267, 0.66825, 12.8091602, 0.66825, -4.519084, 0.0786176, 0.0216526, 0.66825, -0.6390991, 0.66825, -0.7342529, 0.66825, -0.3513184, 0.66825, -24.7557259, 0.66825, 11.7099237, 0.66825, 1.3664122, , , , , , , , , , , , , , , , , , , , , , 
0.0794118, 0.0025177, 0.675, 0.1611938, 0.675, -0.5494995, 0.675, 0.7843628, 0.675, -16.8320618, 0.675, 13.5572519, 0.675, -4.519084, 0.0794118, 0.0199741, 0.675, -0.6383667, 0.675, -0.7346191, 0.675, -0.3500366, 0.675, -25.0763359, 0.675, 11.2213745, 0.675, 1.1603054, , , , , , , , , , , , , , , , , , , , , , 
0.0802059, -0.0005035, 0.68175, 0.1613159, 0.68175, -0.5516968, 0.68175, 0.7848511, 0.68175, -16.5114498, 0.68175, 14.0687027, 0.68175, -4.3282442, 0.0802059, 0.0135958, 0.68175, -0.6376343, 0.68175, -0.7286987, 0.68175, -0.3522339, 0.68175, -25.038168, 0.68175, 10.2900763, 0.68175, 1.3129771, , , , , , , , , , , , , , , , , , , , , , 
0.081, -0.0068818, 0.6885, 0.1542969, 0.6885, -0.552002, 0.6885, 0.7826538, 0.6885, -16.603054, 0.6885, 14.1145039, 0.6885, -4.1679387, 0.081, 0.0078889, 0.6885, -0.638855, 0.6885, -0.730835, 0.6885, -0.3546143, 0.6885, -24.8625946, 0.6885, 9.3282442, 0.6885, 1.9923664, , , , , , , , , , , , , , , , , , , , , , 
0.0817941, -0.0112459, 0.69525, 0.1575317, 0.69525, -0.5501099, 0.69525, 0.7807617, 0.69525, -16.480917, 0.69525, 13.6717558, 0.69525, -4.1679387, 0.0817941, 0.0031891, 0.69525, -0.6339111, 0.69525, -0.7324829, 0.69525, -0.3516235, 0.69525, -24.5419846, 0.69525, 8.9770994, 0.69525, 2.6335878, , , , , , , , , , , , , , , , , , , , , , 
0.0825882, -0.0124208, 0.702, 0.1588745, 0.702, -0.5487061, 0.702, 0.7832031, 0.702, -16.4045811, 0.702, 12.9770994, 0.702, -3.8549619, 0.0825882, 0.0078889, 0.702, -0.6289673, 0.702, -0.7325439, 0.702, -0.3532715, 0.702, -24.3893127, 0.702, 8.7022905, 0.702, 3.2748091, , , , , , , , , , , , , , , , , , , , , , 
0.0833824, -0.0166171, 0.70875, 0.1555786, 0.70875, -0.5496826, 0.70875, 0.7798462, 0.70875, -16.3053436, 0.70875, 12.8778629, 0.70875, -3.6412213, 0.0833824, 0.0078889, 0.70875, -0.6260986, 0.70875, -0.7293701, 0.70875, -0.3539429, 0.70875, -24.1374054, 0.70875, 8.679389, 0.70875, 3.740458, , , , , , , , , , , , , , , , , , , , , , 
0.0841765, -0.0203098, 0.7155, 0.161499, 0.7155, -0.5484009, 0.7155, 0.7786865, 0.7155, -15.9389315, 0.7155, 12.9923668, 0.7155, -3.6641221, 0.0841765, 0.0115816, 0.7155, -0.6240845, 0.7155, -0.7315674, 0.7155, -0.3556519, 0.7155, -24.2061062, 0.7155, 8.8091602, 0.7155, 3.8625953, , , , , , , , , , , , , , , , , , , , , , 
0.0849706, -0.0198062, 0.72225, 0.1658936, 0.72225, -0.5499268, 0.72225, 0.7753296, 0.72225, -15.8854961, 0.72225, 13.3282442, 0.72225, -3.5496182, 0.0849706, 0.0152743, 0.72225, -0.6237183, 0.72225, -0.7301636, 0.72225, -0.3566895, 0.72225, -24.1832066, 0.72225, 9.2061071, 0.72225, 3.648855, , , , , , , , , , , , , , , , , , , , , , 
0.0857647, -0.0149386, 0.729, 0.1657104, 0.729, -0.5493774, 0.729, 0.7769775, 0.729, -15.7709923, 0.729, 13.5954199, 0.729, -3.7480917, 0.0857647, 0.0213169, 0.729, -0.6307983, 0.729, -0.729126, 0.729, -0.3568115, 0.729, -23.9923668, 0.729, 9.3969469, 0.729, 3.4351146, , , , , , , , , , , , , , , , , , , , , , 
0.0865588, -0.0132601, 0.73575, 0.1638184, 0.73575, -0.5472412, 0.73575, 0.7774048, 0.73575, -15.7251911, 0.73575, 14.0305347, 0.73575, -3.7938931, 0.0865588, 0.0236667, 0.73575, -0.6289673, 0.73575, -0.7289429, 0.73575, -0.3573608, 0.73575, -24.0839691, 0.73575, 9.8091602, 0.73575, 3.1450381, , , , , , , , , , , , , , , , , , , , , , 
0.0873529, -0.0109102, 0.7425, 0.1655884, 0.7425, -0.5491333, 0.7425, 0.7787476, 0.7425, -15.9083967, 0.7425, 14.3129768, 0.7425, -3.8320611, 0.0873529, 0.030045, 0.7425, -0.6334229, 0.7425, -0.7266235, 0.7425, -0.3600464, 0.7425, -24.4732819, 0.7425, 10.0839691, 0.7425, 2.7480917, , , , , , , , , , , , , , , , , , , , , , 
0.0881471, -0.0129244, 0.74925, 0.1655884, 0.74925, -0.5467529, 0.74925, 0.7798462, 0.74925, -16.0076332, 0.74925, 14.7404585, 0.74925, -3.8931298, 0.0881471, 0.0340734, 0.74925, -0.6331787, 0.74925, -0.7280273, 0.74925, -0.3587036, 0.74925, -24.9770985, 0.74925, 10.5114508, 0.74925, 2.5877862, , , , , , , , , , , , , , , , , , , , , , 
0.0889412, -0.0152743, 0.756, 0.1638184, 0.756, -0.5464478, 0.756, 0.7816772, 0.756, -15.961832, 0.756, 15.0305347, 0.756, -3.8396947, 0.0889412, 0.0354162, 0.756, -0.631958, 0.756, -0.7315063, 0.756, -0.3569946, 0.756, -24.9465656, 0.756, 10.6641226, 0.756, 2.389313, , , , , , , , , , , , , , , , , , , , , , 
0.0897353, -0.0152743, 0.76275, 0.1623535, 0.76275, -0.546875, 0.76275, 0.7838745, 0.76275, -16.0763359, 0.76275, 15.0534353, 0.76275, -3.8473282, 0.0897353, 0.0280308, 0.76275, -0.6349487, 0.76275, -0.7330933, 0.76275, -0.354126, 0.76275, -24.9923668, 0.76275, 10.9007635, 0.76275, 2.519084, , , , , , , , , , , , , , , , , , , , , , 
0.0905294, -0.0125887, 0.7695, 0.1640625, 0.7695, -0.5456543, 0.7695, 0.7832642, 0.7695, -16.1297703, 0.7695, 14.961832, 0.7695, -4.0458016, 0.0905294, 0.026688, 0.7695, -0.635498, 0.7695, -0.732666, 0.7695, -0.3527222, 0.7695, -24.961832, 0.7695, 11.5725193, 0.7695, 2.4961832, , , , , , , , , , , , , , , , , , , , , , 
0.0913235, -0.0075532, 0.77625, 0.1624756, 0.77625, -0.5464478, 0.77625, 0.7788086, 0.77625, -16.1068707, 0.77625, 14.5725193, 0.77625, -4.221374, 0.0913235, 0.0265202, 0.77625, -0.6372681, 0.77625, -0.7322998, 0.77625, -0.3533325, 0.77625, -25.1450386, 0.77625, 12.1145039, 0.77625, 2.3740458, , , , , , , , , , , , , , , , , , , , , , 
0.0921176, -0.0109102, 0.783, 0.1622925, 0.783, -0.5501709, 0.783, 0.7763672, 0.783, -16.0992374, 0.783, 14.6335878, 0.783, -4.4503818, 0.0921176, 0.0169528, 0.783, -0.6372681, 0.783, -0.7297363, 0.783, -0.3509521, 0.783, -25.038168, 0.783, 11.5954199, 0.783, 2.6641221, , , , , , , , , , , , , , , , , , , , , , 
0.0929118, -0.0132601, 0.78975, 0.1608276, 0.78975, -0.5516357, 0.78975, 0.7786865, 0.78975, -15.7480917, 0.78975, 14.8549614, 0.78975, -4.4045801, 0.0929118, 0.0149386, 0.78975, -0.6348877, 0.78975, -0.7279663, 0.78975, -0.3554688, 0.78975, -24.9770985, 0.78975, 10.519084, 0.78975, 2.5419848, , , , , , , , , , , , , , , , , , , , , , 
0.0937059, -0.0112459, 0.7965, 0.1593628, 0.7965, -0.5493774, 0.7965, 0.7774658, 0.7965, -15.7099237, 0.7965, 14.519084, 0.7965, -4.5038166, 0.0937059, 0.0112459, 0.7965, -0.6343994, 0.7965, -0.7259521, 0.7965, -0.3580933, 0.7965, -25.0229015, 0.7965, 10.2061071, 0.7965, 2.5038168, , , , , , , , , , , , , , , , , , , , , , 
0.0945, -0.011078, 0.80325, 0.1567993, 0.80325, -0.5507812, 0.80325, 0.7788086, 0.80325, -15.5954199, 0.80325, 14.2671757, 0.80325, -4.3740458, 0.0945, 0.0132601, 0.80325, -0.6298218, 0.80325, -0.7276611, 0.80325, -0.3571167, 0.80325, -25.3740463, 0.80325, 9.6335878, 0.80325, 2.5877862, , , , , , , , , , , , , , , , , , , , , , 
0.0952941, -0.008896, 0.81, 0.1586914, 0.81, -0.5509644, 0.81, 0.7774048, 0.81, -15.5572519, 0.81, 14, 0.81, -4.2519083, 0.0952941, 0.0179599, 0.81, -0.6251221, 0.81, -0.7304077, 0.81, -0.357666, 0.81, -25.2213745, 0.81, 9.5954199, 0.81, 2.8549619, , , , , , , , , , , , , , , , , , , , , , 
0.0960882, -0.0052033, 0.81675, 0.1564331, 0.81675, -0.552002, 0.81675, 0.7756958, 0.81675, -15.6259546, 0.81675, 14.0992365, 0.81675, -4.2061067, 0.0960882, 0.0182956, 0.81675, -0.6229858, 0.81675, -0.7327881, 0.81675, -0.3532715, 0.81675, -25.1221371, 0.81675, 9.9847326, 0.81675, 3.2824428, , , , , , , , , , , , , , , , , , , , , , 
0.0968824, -0.0050355, 0.8235, 0.1576538, 0.8235, -0.5435791, 0.8235, 0.7704468, 0.8235, -15.6564884, 0.8235, 14.0305347, 0.8235, -3.7557251, 0.0968824, 0.01561, 0.8235, -0.6218872, 0.8235, -0.7346191, 0.8235, -0.352356, 0.8235, -24.7251911, 0.8235, 10.4274807, 0.8235, 3.5419848, , , , , , , , , , , , , , , , , , , , , , 
0.0976765, -0.0052033, 0.83025, 0.163208, 0.83025, -0.5518188, 0.83025, 0.7716675, 0.83025, -15.6717558, 0.83025, 13.6030531, 0.83025, -3.5648854, 0.0976765, 0.0149386, 0.83025, -0.6257935, 0.83025, -0.736084, 0.83025, -0.3527222, 0.83025, -24.5114498, 0.83025, 10.7938929, 0.83025, 3.7022901, , , , , , , , , , , , , , , , , , , , , , 
0.0984706, -0.0035248, 0.837, 0.170105, 0.837, -0.5516968, 0.837, 0.7785034, 0.837, -16.1068707, 0.837, 13.2595415, 0.837, -3.5496182, 0.0984706, 0.0135958, 0.837, -0.6304321, 0.837, -0.7346802, 0.837, -0.3521118, 0.837, -24.2977104, 0.837, 11.038168, 0.837, 3.5267177, , , , , , , , , , , , , , , , , , , , , , 
0.0992647, -0.0036927, 0.84375, 0.1710815, 0.84375, -0.5509644, 0.84375, 0.7785034, 0.84375, -16.3511448, 0.84375, 13.3511448, 0.84375, -3.6641221, 0.0992647, 0.0166171, 0.84375, -0.631958, 0.84375, -0.7380981, 0.84375, -0.3522339, 0.84375, -24.5343513, 0.84375, 11.1908398, 0.84375, 3.2900763, , , , , , , , , , , , , , , , , , , , , , 
0.1000588, -0.006714, 0.8505, 0.1716309, 0.8505, -0.5546265, 0.8505, 0.7826538, 0.8505, -16.4198475, 0.8505, 14.1221371, 0.8505, -4.1297708, 0.1000588, 0.0193027, 0.8505, -0.6363525, 0.8505, -0.7364502, 0.8505, -0.354248, 0.8505, -24.8702297, 0.8505, 11.4580154, 0.8505, 2.9160306, , , , , , , , , , , , , , , , , , , , , , 
0.1008529, -0.0068818, 0.85725, 0.1672974, 0.85725, -0.5543213, 0.85725, 0.7813721, 0.85725, -16.442749, 0.85725, 14.7022905, 0.85725, -4.3511453, 0.1008529, 0.0231632, 0.85725, -0.6409302, 0.85725, -0.7357178, 0.85725, -0.3536377, 0.85725, -24.9312973, 0.85725, 11.3358774, 0.85725, 2.5419848, , , , , , , , , , , , , , , , , , , , , , 
0.1016471, -0.0065461, 0.864, 0.1626587, 0.864, -0.5499268, 0.864, 0.7801514, 0.864, -16.3435116, 0.864, 15.0229006, 0.864, -4.5114503, 0.1016471, 0.023331, 0.864, -0.6377563, 0.864, -0.736145, 0.864, -0.3549805, 0.864, -24.6717548, 0.864, 11.2137403, 0.864, 2.389313, , , , , , , , , , , , , , , , , , , , , , 
0.1024412, -0.0062104, 0.87075, 0.1575928, 0.87075, -0.5528564, 0.87075, 0.7805786, 0.87075, -16.2366409, 0.87075, 15.1221371, 0.87075, -4.3740458, 0.1024412, 0.0186313, 0.87075, -0.6383057, 0.87075, -0.737793, 0.87075, -0.3554077, 0.87075, -24.8702297, 0.87075, 10.7328243, 0.87075, 2.3816793, , , , , , , , , , , , , , , , , , , , , , 
0.1032353, -0.0077211, 0.8775, 0.1564331, 0.8775, -0.5515137, 0.8775, 0.7766113, 0.8775, -16.5267181, 0.8775, 15.2671757, 0.8775, -4.3740458, 0.1032353, 0.0206455, 0.8775, -0.6314697, 0.8775, -0.737854, 0.8775, -0.3562622, 0.8775, -24.9083977, 0.8775, 10.320611, 0.8775, 2.5343511, , , , , , , , , , , , , , , , , , , , , , 
0.1040294, -0.0072175, 0.88425, 0.1577759, 0.88425, -0.5507202, 0.88425, 0.7756958, 0.88425, -16.5267181, 0.88425, 15.0076332, 0.88425, -4.0992365, 0.1040294, 0.0194705, 0.88425, -0.6288452, 0.88425, -0.7384033, 0.88425, -0.3565063, 0.88425, -24.603054, 0.88425, 10.480916, 0.88425, 2.5954199, , , , , , , , , , , , , , , , , , , , , , 
0.1048235, -0.0092317, 0.891, 0.1596069, 0.891, -0.5504761, 0.891, 0.7728882, 0.891, -16.5877857, 0.891, 14.2366409, 0.891, -3.6793892, 0.1048235, 0.0169528, 0.891, -0.6271362, 0.891, -0.7402344, 0.891, -0.3525391, 0.891, -24.519083, 0.891, 10.8167934, 0.891, 2.7709923, , , , , , , , , , , , , , , , , , , , , , 
0.1056176, -0.0276951, 0.89775, 0.1618652, 0.89775, -0.5512085, 0.89775, 0.7761841, 0.89775, -16.7404575, 0.89775, 12.9541988, 0.89775, -3.7709923, 0.1056176, 0.0135958, 0.89775, -0.6268311, 0.89775, -0.7393188, 0.89775, -0.3486328, 0.89775, -24.1755733, 0.89775, 11.4732828, 0.89775, 2.8473282, , , , , , , , , , , , , , , , , , , , , , 
0.1064118, -0.0433051, 0.9045, 0.163208, 0.9045, -0.552063, 0.9045, 0.7734985, 0.9045, -16.4045811, 0.9045, 12.7251911, 0.9045, -3.8244274, 0.1064118, 0.0139315, 0.9045, -0.6289673, 0.9045, -0.7360229, 0.9045, -0.3467407, 0.9045, -23.9541988, 0.9045, 11.3816795, 0.9045, 2.8015268, , , , , , , , , , , , , , , , , , , , , , 
0.1072059, -0.0394446, 0.91125, 0.1641235, 0.91125, -0.5549316, 0.91125, 0.7771606, 0.91125, -16.038168, 0.91125, 13.2977095, 0.91125, -3.8015268, 0.1072059, 0.0052033, 0.91125, -0.6312256, 0.91125, -0.7297363, 0.91125, -0.3468018, 0.91125, -24.2748089, 0.91125, 11.2366409, 0.91125, 2.5954199, , , , , , , , , , , , , , , , , , , , , , 
0.108, -0.0209812, 0.918, 0.1651001, 0.918, -0.5525513, 0.918, 0.7744751, 0.918, -15.8625956, 0.918, 14.3511448, 0.918, -3.7251909, 0.108, 0.0010071, 0.918, -0.6325073, 0.918, -0.727356, 0.918, -0.3463745, 0.918, -24.5267181, 0.918, 11.1679392, 0.918, 2.4961832, , , , , , , , , , , , , , , , , , , , , , 
0.1087941, 0.0045319, 0.92475, 0.1612549, 0.92475, -0.5428467, 0.92475, 0.7758789, 0.92475, -15.8778629, 0.92475, 14.7022905, 0.92475, -3.7175572, 0.1087941, 0.0041962, 0.92475, -0.6323242, 0.92475, -0.725647, 0.92475, -0.3486328, 0.92475, -25.0458012, 0.92475, 11.0610685, 0.92475, 2.0992367, , , , , , , , , , , , , , , , , , , , , , 
0.1095882, 0.0193027, 0.9315, 0.1590576, 0.9315, -0.5430908, 0.9315, 0.7785034, 0.9315, -15.6335878, 0.9315, 14.2061071, 0.9315, -3.4961832, 0.1095882, 0.0018463, 0.9315, -0.6381226, 0.9315, -0.7249146, 0.9315, -0.3527832, 0.9315, -24.961832, 0.9315, 10.2061071, 0.9315, 2.1908398, , , , , , , , , , , , , , , , , , , , , , 
0.1103824, 0.0271916, 0.93825, 0.161499, 0.93825, -0.5439453, 0.93825, 0.7813721, 0.93825, -15.9007635, 0.93825, 13.717557, 0.93825, -3.3969467, 0.1103824, 0.0008392, 0.93825, -0.6365356, 0.93825, -0.7260742, 0.93825, -0.352478, 0.93825, -24.8625946, 0.93825, 9.7480917, 0.93825, 2.610687, , , , , , , , , , , , , , , , , , , , , , 
0.1111765, 0.0240024, 0.945, 0.1596069, 0.945, -0.5422974, 0.945, 0.7832031, 0.945, -16.0534344, 0.945, 13.198473, 0.945, -3.2290077, 0.1111765, 0.0005035, 0.945, -0.6384888, 0.945, -0.7303467, 0.945, -0.3538818, 0.945, -24.5114498, 0.945, 9.2442751, 0.945, 3, , , , , , , , , , , , , , , , , , , , , , 
0.1119706, 0.0179599, 0.95175, 0.1628418, 0.95175, -0.5446167, 0.95175, 0.7825928, 0.95175, -15.9312973, 0.95175, 12.7480917, 0.95175, -2.9694657, 0.1119706, 0.0008392, 0.95175, -0.6345215, 0.95175, -0.7357178, 0.95175, -0.3553467, 0.95175, -24.5343513, 0.95175, 9.038168, 0.95175, 3.4961832, , , , , , , , , , , , , , , , , , , , , , 
0.1127647, 0.0119173, 0.9585, 0.1662598, 0.9585, -0.5471802, 0.9585, 0.7835083, 0.9585, -16.198473, 0.9585, 12.4503813, 0.9585, -2.9770992, 0.1127647, -0.0041962, 0.9585, -0.6318359, 0.9585, -0.7402344, 0.9585, -0.3591919, 0.9585, -23.961832, 0.9585, 9.839695, 0.9585, 3.3816793, , , , , , , , , , , , , , , , , , , , , , 
0.1135588, 0.0018463, 0.96525, 0.1732178, 0.96525, -0.5445557, 0.96525, 0.7872314, 0.96525, -16.1908398, 0.96525, 13.2137403, 0.96525, -3.1755726, 0.1135588, -0.012253, 0.96525, -0.6278687, 0.96525, -0.7427368, 0.96525, -0.3598633, 0.96525, -23.4351139, 0.96525, 11.0534353, 0.96525, 2.9847329, , , , , , , , , , , , , , , , , , , , , , 
0.1143529, -0.0025177, 0.972, 0.1748047, 0.972, -0.5411987, 0.972, 0.7870483, 0.972, -16.8854961, 0.972, 14.7938929, 0.972, -3.8549619, 0.1143529, -0.0139315, 0.972, -0.6334839, 0.972, -0.7463989, 0.972, -0.3565674, 0.972, -22.641222, 0.972, 12.7557249, 0.972, 2.8396947, , , , , , , , , , , , , , , , , , , , , , 
0.1151471, -0.0045319, 0.97875, 0.1705933, 0.97875, -0.5411377, 0.97875, 0.7921143, 0.97875, -17.7328243, 0.97875, 15.8702288, 0.97875, -4.3435116, 0.1151471, -0.0162814, 0.97875, -0.6442871, 0.97875, -0.7398071, 0.97875, -0.3556519, 0.97875, -22.0229015, 0.97875, 13.5343513, 0.97875, 2.6259542, , , , , , , , , , , , , , , , , , , , , , 
0.1159412, -0.0057069, 0.9855, 0.1661987, 0.9855, -0.5447998, 0.9855, 0.7896729, 0.9855, -17.8625946, 0.9855, 16.1145039, 0.9855, -4.5419846, 0.1159412, -0.0169528, 0.9855, -0.6478271, 0.9855, -0.7348022, 0.9855, -0.3574219, 0.9855, -21.8473282, 0.9855, 12.6717558, 0.9855, 2.2366412, , , , , , , , , , , , , , , , , , , , , , 
0.1167353, -0.0082246, 0.99225, 0.1618652, 0.99225, -0.5477905, 0.99225, 0.786377, 0.99225, -18.2213745, 0.99225, 15.5267172, 0.99225, -4.6259542, 0.1167353, -0.012253, 0.99225, -0.6500244, 0.99225, -0.7328491, 0.99225, -0.3587036, 0.99225, -22.519083, 0.99225, 11.0992365, 0.99225, 1.740458, , , , , , , , , , , , , , , , , , , , , , 
0.1175294, -0.011078, 0.999, 0.1572266, 0.999, -0.5509033, 0.999, 0.7858276, 0.999, -18.0839691, 0.999, 14.5496187, 0.999, -4.6335878, 0.1175294, -0.0048676, 0.999, -0.6444092, 0.999, -0.7318726, 0.999, -0.3615723, 0.999, -23.6259537, 0.999, 9.6946564, 0.999, 1.389313, , , , , , , , , , , , , , , , , , , , , , 
0.1183235, -0.0135958, 1.00575, 0.161377, 1.00575, -0.5540161, 1.00575, 0.7843628, 1.00575, -17.8473282, 1.00575, 13.358779, 1.00575, -4.7175574, 0.1183235, 0.0013428, 1.00575, -0.6343994, 1.00575, -0.7331543, 1.00575, -0.3589478, 1.00575, -23.9923668, 1.00575, 9.2900763, 1.00575, 1.1755725, , , , , , , , , , , , , , , , , , , , , , 
0.1191176, -0.0164492, 1.0125, 0.1601562, 1.0125, -0.5515747, 1.0125, 0.7822266, 1.0125, -17.7022896, 1.0125, 12.6259546, 1.0125, -4.6564884, 0.1191176, 0.0031891, 1.0125, -0.630188, 1.0125, -0.7354736, 1.0125, -0.3543091, 1.0125, -24.198473, 1.0125, 9.358779, 1.0125, 1.2137405, , , , , , , , , , , , , , , , , , , , , , 
0.1199118, -0.0206455, 1.01925, 0.1613159, 1.01925, -0.5543213, 1.01925, 0.7780762, 1.01925, -18.1145039, 1.01925, 12.1297712, 1.01925, -4.5954199, 0.1199118, 0.0057069, 1.01925, -0.6279907, 1.01925, -0.7346802, 1.01925, -0.3496094, 1.01925, -23.8091602, 1.01925, 9.282443, 1.01925, 1.0610687, , , , , , , , , , , , , , , , , , , , , , 
0.1207059, -0.0317235, 1.026, 0.1638184, 1.026, -0.5565186, 1.026, 0.7814941, 1.026, -18.1679382, 1.026, 12.2595415, 1.026, -4.3129773, 0.1207059, 0.0095674, 1.026, -0.6290894, 1.026, -0.741333, 1.026, -0.3458862, 1.026, -23.3740463, 1.026, 9.0610685, 1.026, 0.9389313, , , , , , , , , , , , , , , , , , , , , , 
0.1215, -0.0370947, 1.03275, 0.159729, 1.03275, -0.5545654, 1.03275, 0.7807007, 1.03275, -17.8931293, 1.03275, 13.0610685, 1.03275, -3.8244274, 0.1215, 0.0090639, 1.03275, -0.6359863, 1.03275, -0.7390747, 1.03275, -0.3466187, 1.03275, -23.1297703, 1.03275, 8.7938929, 1.03275, 1.1603054, , , , , , , , , , , , , , , , , , , , , , 
0.1222941, -0.0290379, 1.0395, 0.1550293, 1.0395, -0.5513306, 1.0395, 0.7793579, 1.0395, -17.6183205, 1.0395, 13.8167934, 1.0395, -3.6183207, 0.1222941, 0.005539, 1.0395, -0.6385498, 1.0395, -0.7406006, 1.0395, -0.3486328, 1.0395, -23.198473, 1.0395, 8.4045801, 1.0395, 1.3587786, , , , , , , , , , , , , , , , , , , , , , 
0.1230882, -0.0109102, 1.04625, 0.1464233, 1.04625, -0.5529785, 1.04625, 0.7779541, 1.04625, -17.4198475, 1.04625, 13.6564884, 1.04625, -3.2442749, 0.1230882, 0.0045319, 1.04625, -0.6428833, 1.04625, -0.7381592, 1.04625, -0.348877, 1.04625, -23.2900772, 1.04625, 7.9312978, 1.04625, 1.5954199, , , , , , , , , , , , , , , , , , , , , , 
0.1238824, 0.0023499, 1.053, 0.1413574, 1.053, -0.548645, 1.053, 0.7781982, 1.053, -17.4885502, 1.053, 12.9465647, 1.053, -3.0229008, 0.1238824, -0.0001678, 1.053, -0.645752, 1.053, -0.7360229, 1.053, -0.3543701, 1.053, -22.961832, 1.053, 6.480916, 1.053, 1.7938931, , , , , , , , , , , , , , , , , , , , , , 
0.1246765, 0.0045319, 1.05975, 0.1464844, 1.05975, -0.5432129, 1.05975, 0.777771, 1.05975, -17.801527, 1.05975, 11.5572519, 1.05975, -2.6946564, 0.1246765, 0.0045319, 1.05975, -0.6453857, 1.05975, -0.7374878, 1.05975, -0.3575439, 1.05975, -22.8167934, 1.05975, 5.2900763, 1.05975, 2.129771, , , , , , , , , , , , , , , , , , , , , , 
0.1254706, 0.0018463, 1.0665, 0.1497803, 1.0665, -0.5464478, 1.0665, 0.7767334, 1.0665, -18.2671757, 1.0665, 9.6259546, 1.0665, -2.8091602, 0.1254706, 0.0125887, 1.0665, -0.6422119, 1.0665, -0.7372437, 1.0665, -0.3568726, 1.0665, -22.7328243, 1.0665, 5.2137403, 1.0665, 2.3740458, , , , , , , , , , , , , , , , , , , , , , 
0.1262647, -0.0005035, 1.07325, 0.1577759, 1.07325, -0.5473633, 1.07325, 0.7828979, 1.07325, -18.5648861, 1.07325, 7.9465647, 1.07325, -3.0763359, 0.1262647, 0.0152743, 1.07325, -0.6414795, 1.07325, -0.7337036, 1.07325, -0.3588257, 1.07325, -22.9083977, 1.07325, 5.7709923, 1.07325, 2.2748091, , , , , , , , , , , , , , , , , , , , , , 
0.1270588, -0.0068818, 1.08, 0.1643677, 1.08, -0.5472412, 1.08, 0.7801514, 1.08, -18.4885502, 1.08, 7.2519083, 1.08, -3.4198472, 0.1270588, 0.0240024, 1.08, -0.6397705, 1.08, -0.7371216, 1.08, -0.3527222, 1.08, -23.0305347, 1.08, 6.2366414, 1.08, 1.9007634, , , , , , , , , , , , , , , , , , , , , , 
0.1278529, -0.012253, 1.08675, 0.1676025, 1.08675, -0.548645, 1.08675, 0.7803955, 1.08675, -18.4351139, 1.08675, 7.6870227, 1.08675, -3.5419848, 0.1278529, 0.0240024, 1.08675, -0.6418457, 1.08675, -0.7368774, 1.08675, -0.348938, 1.08675, -22.9847336, 1.08675, 6.2977099, 1.08675, 1.4122137, , , , , , , , , , , , , , , , , , , , , , 
0.1286471, -0.0129244, 1.0935, 0.1716309, 1.0935, -0.5499268, 1.0935, 0.7739868, 1.0935, -18.9007626, 1.0935, 8.5343513, 1.0935, -3.5114503, 0.1286471, 0.0213169, 1.0935, -0.6383667, 1.0935, -0.7358398, 1.0935, -0.3429565, 1.0935, -22.7099228, 1.0935, 5.5496182, 1.0935, 0.740458, , , , , , , , , , , , , , , , , , , , , , 
0.1294412, -0.0117494, 1.10025, 0.1712646, 1.10025, -0.5518188, 1.10025, 0.7724609, 1.10025, -18.9083977, 1.10025, 9.1374044, 1.10025, -3.5343511, 0.1294412, 0.0223239, 1.10025, -0.6334229, 1.10025, -0.7373657, 1.10025, -0.3409424, 1.10025, -22.4045811, 1.10025, 4.9312978, 1.10025, 0.2366412, , , , , , , , , , , , , , , , , , , , , , 
0.1302353, -0.0078889, 1.107, 0.1700439, 1.107, -0.5498047, 1.107, 0.7668457, 1.107, -18.8854961, 1.107, 9.6259546, 1.107, -3.259542, 0.1302353, 0.0176242, 1.107, -0.6281128, 1.107, -0.734375, 1.107, -0.3436279, 1.107, -22.2137413, 1.107, 5.1221375, 1.107, -0.1603053, , , , , , , , , , , , , , , , , , , , , , 
0.1310294, -0.0095674, 1.11375, 0.1691895, 1.11375, -0.5515747, 1.11375, 0.7659302, 1.11375, -18.9541988, 1.11375, 10.2061071, 1.11375, -3.2290077, 0.1310294, 0.0132601, 1.11375, -0.6234741, 1.11375, -0.7315063, 1.11375, -0.3465576, 1.11375, -22.5877857, 1.11375, 6.3587785, 1.11375, -0.3358779, , , , , , , , , , , , , , , , , , , , , , 
0.1318235, -0.0095674, 1.1205, 0.1644287, 1.1205, -0.5505981, 1.1205, 0.7687988, 1.1205, -18.8931293, 1.1205, 9.5648851, 1.1205, -2.8931298, 0.1318235, 0.0102388, 1.1205, -0.6217041, 1.1205, -0.7263184, 1.1205, -0.3466797, 1.1205, -23.2671757, 1.1205, 7.259542, 1.1205, -0.0076336, , , , , , , , , , , , , , , , , , , , , , 
0.1326176, -0.0075532, 1.12725, 0.1672363, 1.12725, -0.5490723, 1.12725, 0.7727661, 1.12725, -18.5877857, 1.12725, 9, 1.12725, -2.8015268, 0.1326176, 0.0092317, 1.12725, -0.6271362, 1.12725, -0.727356, 1.12725, -0.3457642, 1.12725, -23.9312973, 1.12725, 7.6946564, 1.12725, 0.4198473, , , , , , , , , , , , , , , , , , , , , , 
0.1334118, -0.0095674, 1.134, 0.171814, 1.134, -0.5531006, 1.134, 0.7765503, 1.134, -18.5419846, 1.134, 9.2900763, 1.134, -2.870229, 0.1334118, 0.0045319, 1.134, -0.6245117, 1.134, -0.730957, 1.134, -0.3422241, 1.134, -23.8854961, 1.134, 7.3282442, 1.134, 1.0076336, , , , , , , , , , , , , , , , , , , , , , 
0.1342059, -0.0129244, 1.14075, 0.1730347, 1.14075, -0.5540161, 1.14075, 0.7805176, 1.14075, -18.3435116, 1.14075, 10.0534353, 1.14075, -2.9160306, 0.1342059, 0.0070497, 1.14075, -0.6242676, 1.14075, -0.7348633, 1.14075, -0.3447876, 1.14075, -23.038168, 1.14075, 6.9312978, 1.14075, 1.6564885, , , , , , , , , , , , , , , , , , , , , , 
0.135, -0.0139315, 1.1475, 0.1721191, 1.1475, -0.5541992, 1.1475, 0.7797241, 1.1475, -18.1450386, 1.1475, 10.7480917, 1.1475, -2.9236641, 0.135, 0.0095674, 1.1475, -0.6311646, 1.1475, -0.7360229, 1.1475, -0.3468628, 1.1475, -21.5954189, 1.1475, 6.5038166, 1.1475, 2.221374, , , , , , , , , , , , , , , , , , , , , , 
0.1357941, -0.0132601, 1.15425, 0.1712646, 1.15425, -0.5568848, 1.15425, 0.7764893, 1.15425, -18.0610695, 1.15425, 11.2977095, 1.15425, -3.0839694, 0.1357941, 0.0099031, 1.15425, -0.6273804, 1.15425, -0.7351074, 1.15425, -0.3521118, 1.15425, -20.3816795, 1.15425, 6.6946564, 1.15425, 2.7175572, , , , , , , , , , , , , , , , , , , , , , 
0.1365882, -0.0119173, 1.161, 0.1694946, 1.161, -0.5516357, 1.161, 0.776062, 1.161, -18.0534344, 1.161, 11.679389, 1.161, -3.3435113, 0.1365882, 0.0166171, 1.161, -0.6321411, 1.161, -0.7266235, 1.161, -0.3582153, 1.161, -20.2519093, 1.161, 6.9847326, 1.161, 3.0992367, , , , , , , , , , , , , , , , , , , , , , 
0.1373824, -0.0078889, 1.16775, 0.1661377, 1.16775, -0.5524292, 1.16775, 0.7759399, 1.16775, -17.9770985, 1.16775, 12.2900763, 1.16775, -3.6946564, 0.1373824, 0.0172885, 1.16775, -0.6287842, 1.16775, -0.7272339, 1.16775, -0.3606567, 1.16775, -20.4580154, 1.16775, 6.9007635, 1.16775, 3.038168, , , , , , , , , , , , , , , , , , , , , , 
0.1381765, -0.0072175, 1.1745, 0.1644287, 1.1745, -0.5477295, 1.1745, 0.770813, 1.1745, -17.7099228, 1.1745, 12.320611, 1.1745, -3.7862597, 0.1381765, 0.0179599, 1.1745, -0.6271362, 1.1745, -0.7263184, 1.1745, -0.3579712, 1.1745, -21.32061, 1.1745, 7.1068702, 1.1745, 2.7862597, , , , , , , , , , , , , , , , , , , , , , 
0.1389706, -0.0090639, 1.18125, 0.1691284, 1.18125, -0.5461426, 1.18125, 0.7693481, 1.18125, -17.5419846, 1.18125, 12.3358774, 1.18125, -3.870229, 0.1389706, 0.0213169, 1.18125, -0.6203003, 1.18125, -0.7252808, 1.18125, -0.3581543, 1.18125, -22.7404575, 1.18125, 8.5267172, 1.18125, 2.0839694, , , , , , , , , , , , , , , , , , , , , , 
0.1397647, -0.0062104, 1.188, 0.1710205, 1.188, -0.5476074, 1.188, 0.7764282, 1.188, -17.5496178, 1.188, 12.717557, 1.188, -3.8320611, 0.1397647, 0.018967, 1.188, -0.6172485, 1.188, -0.7288818, 1.188, -0.3552856, 1.188, -23.9083977, 1.188, 10.6183205, 1.188, 1.4045801, , , , , , , , , , , , , , , , , , , , , , 
0.1405588, -0.0095674, 1.19475, 0.1731567, 1.19475, -0.5515747, 1.19475, 0.7805786, 1.19475, -17.3282452, 1.19475, 13.0763359, 1.19475, -3.8015268, 0.1405588, 0.0201419, 1.19475, -0.6161499, 1.19475, -0.7289429, 1.19475, -0.3533325, 1.19475, -24.2977104, 1.19475, 12.7099237, 1.19475, 0.8549618, , , , , , , , , , , , , , , , , , , , , , 
0.1413529, -0.0191348, 1.2015, 0.1752319, 1.2015, -0.5505981, 1.2015, 0.786499, 1.2015, -17.6946564, 1.2015, 13.8167934, 1.2015, -4, 0.1413529, 0.0219883, 1.2015, -0.62146, 1.2015, -0.7318115, 1.2015, -0.3480835, 1.2015, -24.7099228, 1.2015, 14.038168, 1.2015, 0.4427481, , , , , , , , , , , , , , , , , , , , , , 
0.1421471, -0.0223239, 1.20825, 0.1741943, 1.20825, -0.5557861, 1.20825, 0.7865601, 1.20825, -17.6335869, 1.20825, 14, 1.20825, -4.0687022, 0.1421471, 0.0179599, 1.20825, -0.6323242, 1.20825, -0.7338867, 1.20825, -0.3416748, 1.20825, -24.9007626, 1.20825, 14.2519083, 1.20825, 0.1908397, , , , , , , , , , , , , , , , , , , , , , 
0.1429412, -0.0166171, 1.215, 0.1688843, 1.215, -0.5565186, 1.215, 0.7815552, 1.215, -17.5343513, 1.215, 14.5419846, 1.215, -4.221374, 0.1429412, 0.0186313, 1.215, -0.6421509, 1.215, -0.7393188, 1.215, -0.3373413, 1.215, -24.5267181, 1.215, 13.5801525, 1.215, 0.5496183, , , , , , , , , , , , , , , , , , , , , , 
0.1437353, -0.0102388, 1.22175, 0.1699829, 1.22175, -0.5577393, 1.22175, 0.7774658, 1.22175, -17.4045811, 1.22175, 15.3282442, 1.22175, -4.5038166, 0.1437353, 0.0218204, 1.22175, -0.6436157, 1.22175, -0.742981, 1.22175, -0.3379517, 1.22175, -23.6870232, 1.22175, 12.1068707, 1.22175, 1.1984733, , , , , , , , , , , , , , , , , , , , , , 
0.1445294, -0.005539, 1.2285, 0.1663818, 1.2285, -0.5554199, 1.2285, 0.7735596, 1.2285, -16.9541988, 1.2285, 15.7022905, 1.2285, -4.2977099, 0.1445294, 0.0216526, 1.2285, -0.6434937, 1.2285, -0.7439575, 1.2285, -0.3395386, 1.2285, -22.7404575, 1.2285, 10.2213745, 1.2285, 1.8549619, , , , , , , , , , , , , , , , , , , , , , 
0.1453235, -0.0020142, 1.23525, 0.1624756, 1.23525, -0.5525513, 1.23525, 0.7687378, 1.23525, -17.1450386, 1.23525, 15.5877867, 1.23525, -4.2290077, 0.1453235, 0.0226596, 1.23525, -0.6415405, 1.23525, -0.7389526, 1.23525, -0.3450317, 1.23525, -22.0458012, 1.23525, 8.2519083, 1.23525, 1.9541985, , , , , , , , , , , , , , , , , , , , , , 
0.1461176, -0.002182, 1.242, 0.1569824, 1.242, -0.5524902, 1.242, 0.7680054, 1.242, -17.2671757, 1.242, 14.8167934, 1.242, -4.0687022, 0.1461176, 0.0216526, 1.242, -0.6378784, 1.242, -0.736145, 1.242, -0.3511963, 1.242, -22.3664131, 1.242, 7.519084, 1.242, 1.9389313, , , , , , , , , , , , , , , , , , , , , , 
0.1469118, -0.0062104, 1.24875, 0.1547241, 1.24875, -0.5517578, 1.24875, 0.7677612, 1.24875, -17.2442741, 1.24875, 13.839695, 1.24875, -3.8931298, 0.1469118, 0.0213169, 1.24875, -0.6340332, 1.24875, -0.7318115, 1.24875, -0.3550415, 1.24875, -23.3816795, 1.24875, 7.8549619, 1.24875, 1.8473282, , , , , , , , , , , , , , , , , , , , , , 
0.1477059, -0.0114137, 1.2555, 0.1486816, 1.2555, -0.552002, 1.2555, 0.7702026, 1.2555, -17.198473, 1.2555, 13.4961834, 1.2555, -3.6870229, 0.1477059, 0.0229953, 1.2555, -0.6273193, 1.2555, -0.7323608, 1.2555, -0.3536377, 1.2555, -25, 1.2555, 9.358779, 1.2555, 1.480916, , , , , , , , , , , , , , , , , , , , , , 
0.1485, -0.0068818, 1.26225, 0.1473999, 1.26225, -0.5600586, 1.26225, 0.7703857, 1.26225, -17.1374054, 1.26225, 12.1526718, 1.26225, -3.7709923, 0.1485, 0.0236667, 1.26225, -0.6260986, 1.26225, -0.7337036, 1.26225, -0.3471069, 1.26225, -25.6870232, 1.26225, 10.2748089, 1.26225, 1.221374, , , , , , , , , , , , , , , , , , , , , , 
0.1492941, -0.0041962, 1.269, 0.1514893, 1.269, -0.5571899, 1.269, 0.7730103, 1.269, -16.961832, 1.269, 10.358779, 1.269, -3.6870229, 0.1492941, 0.0276951, 1.269, -0.6296997, 1.269, -0.7436523, 1.269, -0.3446655, 1.269, -25.160305, 1.269, 10.0992365, 1.269, 0.9694657, , , , , , , , , , , , , , , , , , , , , , 
0.1500882, -0.005539, 1.27575, 0.1607666, 1.27575, -0.5601807, 1.27575, 0.7764282, 1.27575, -17.0916023, 1.27575, 8.480916, 1.27575, -3.4885497, 0.1500882, 0.0327306, 1.27575, -0.6310425, 1.27575, -0.746521, 1.27575, -0.3457031, 1.27575, -24.0152664, 1.27575, 9.0534353, 1.27575, 0.7557252, , , , , , , , , , , , , , , , , , , , , , 
0.1508824, -0.005539, 1.2825, 0.1745605, 1.2825, -0.5592651, 1.2825, 0.7734985, 1.2825, -17.1450386, 1.2825, 8.1221371, 1.2825, -3.6641221, 0.1508824, 0.0364233, 1.2825, -0.633667, 1.2825, -0.7511597, 1.2825, -0.34552, 1.2825, -22.9312973, 1.2825, 7.6259542, 1.2825, 0.8473282, , , , , , , , , , , , , , , , , , , , , , 
0.1516765, -0.0078889, 1.28925, 0.1799316, 1.28925, -0.5599365, 1.28925, 0.7730103, 1.28925, -17.2900772, 1.28925, 9.282443, 1.28925, -4.1068702, 0.1516765, 0.0347448, 1.28925, -0.6322021, 1.28925, -0.7495728, 1.28925, -0.3501587, 1.28925, -22.5801525, 1.28925, 7.038168, 1.28925, 0.8549618, , , , , , , , , , , , , , , , , , , , , , 
0.1524706, -0.0095674, 1.296, 0.1867676, 1.296, -0.5562744, 1.296, 0.7728882, 1.296, -17.3053436, 1.296, 10.961832, 1.296, -4.4427481, 0.1524706, 0.0325628, 1.296, -0.628418, 1.296, -0.7481079, 1.296, -0.3499146, 1.296, -22.5114498, 1.296, 6.9007635, 1.296, 0.961832, , , , , , , , , , , , , , , , , , , , , , 
0.1532647, -0.0063783, 1.30275, 0.1819458, 1.30275, -0.5530396, 1.30275, 0.7723999, 1.30275, -17.3511448, 1.30275, 12.3282442, 1.30275, -4.5572519, 0.1532647, 0.0297093, 1.30275, -0.6230469, 1.30275, -0.7411499, 1.30275, -0.3466187, 1.30275, -22.5801525, 1.30275, 8.038168, 1.30275, 1.0839695, , , , , , , , , , , , , , , , , , , , , , 
0.1540588, -0.0119173, 1.3095, 0.180542, 1.3095, -0.5539551, 1.3095, 0.7739868, 1.3095, -17.5954189, 1.3095, 13.6564884, 1.3095, -4.5419846, 0.1540588, 0.0209812, 1.3095, -0.6201172, 1.3095, -0.7368164, 1.3095, -0.34552, 1.3095, -22.9236641, 1.3095, 10.0839691, 1.3095, 1.351145, , , , , , , , , , , , , , , , , , , , , , 
0.1548529, -0.0129244, 1.31625, 0.1764526, 1.31625, -0.5540771, 1.31625, 0.7796631, 1.31625, -17.3816795, 1.31625, 14.7557249, 1.31625, -4.3587785, 0.1548529, 0.0105745, 1.31625, -0.6185303, 1.31625, -0.7369385, 1.31625, -0.3432617, 1.31625, -23.442749, 1.31625, 12, 1.31625, 1.519084, , , , , , , , , , , , , , , , , , , , , , 
0.1556471, -0.0115816, 1.323, 0.175415, 1.323, -0.5576172, 1.323, 0.7786255, 1.323, -17.4122143, 1.323, 15.2137403, 1.323, -4.3129773, 0.1556471, 0.0092317, 1.323, -0.6224976, 1.323, -0.729126, 1.323, -0.336731, 1.323, -23.641222, 1.323, 12.9389315, 1.323, 1.610687, , , , , , , , , , , , , , , , , , , , , , 
0.1564412, -0.0135958, 1.32975, 0.1744385, 1.32975, -0.559021, 1.32975, 0.7755737, 1.32975, -17.396946, 1.32975, 15.1679392, 1.32975, -4.3129773, 0.1564412, 0.0097353, 1.32975, -0.6294556, 1.32975, -0.7355957, 1.32975, -0.335144, 1.32975, -23.6259537, 1.32975, 12.6183205, 1.32975, 1.6946565, , , , , , , , , , , , , , , , , , , , , , 
0.1572353, -0.0102388, 1.3365, 0.1746216, 1.3365, -0.555481, 1.3365, 0.7765503, 1.3365, -17.2977104, 1.3365, 14.2061071, 1.3365, -4.5572519, 0.1572353, 0.0099031, 1.3365, -0.6380005, 1.3365, -0.7397461, 1.3365, -0.3319702, 1.3365, -23.1832066, 1.3365, 11.6335878, 1.3365, 1.5877863, , , , , , , , , , , , , , , , , , , , , , 
0.1580294, -0.0083925, 1.34325, 0.1781616, 1.34325, -0.5559692, 1.34325, 0.7752075, 1.34325, -17.5343513, 1.34325, 13.9541988, 1.34325, -5.1221375, 0.1580294, 0.0109102, 1.34325, -0.6411133, 1.34325, -0.743042, 1.34325, -0.3369141, 1.34325, -23.2519093, 1.34325, 10.6641226, 1.34325, 1.3740458, , , , , , , , , , , , , , , , , , , , , , 
0.1588235, -0.0092317, 1.35, 0.1813354, 1.35, -0.5565796, 1.35, 0.772522, 1.35, -17.7251911, 1.35, 14.4351149, 1.35, -5.3969464, 0.1588235, 0.0112459, 1.35, -0.6376953, 1.35, -0.7461548, 1.35, -0.3417358, 1.35, -23.2213745, 1.35, 10.0687027, 1.35, 0.9465649, , , , , , , , , , , , , , , , , , , , , , 
0.1596176, -0.0082246, 1.35675, 0.1779785, 1.35675, -0.5557251, 1.35675, 0.7719116, 1.35675, -18.160305, 1.35675, 14.9923668, 1.35675, -5.7557254, 0.1596176, 0.0092317, 1.35675, -0.6384888, 1.35675, -0.7473755, 1.35675, -0.3417969, 1.35675, -23.396946, 1.35675, 10.0458012, 1.35675, 0.7938932, , , , , , , , , , , , , , , , , , , , , , 
0.1604118, -0.0109102, 1.3635, 0.171875, 1.3635, -0.5546265, 1.3635, 0.770874, 1.3635, -18.0687027, 1.3635, 15.1068707, 1.3635, -5.9847326, 0.1604118, 0.0031891, 1.3635, -0.6413574, 1.3635, -0.7470703, 1.3635, -0.3447266, 1.3635, -23.2595425, 1.3635, 10.038168, 1.3635, 0.8244275, , , , , , , , , , , , , , , , , , , , , , 
0.1612059, -0.0109102, 1.37025, 0.1644287, 1.37025, -0.5568848, 1.37025, 0.7701416, 1.37025, -18.3358784, 1.37025, 14.5572519, 1.37025, -5.8091602, 0.1612059, -0.0035248, 1.37025, -0.6386108, 1.37025, -0.7488403, 1.37025, -0.3406372, 1.37025, -22.7404575, 1.37025, 9.8931293, 1.37025, 0.8854962, , , , , , , , , , , , , , , , , , , , , , 
0.162, -0.0104067, 1.377, 0.1605225, 1.377, -0.5571289, 1.377, 0.7683105, 1.377, -18.32061, 1.377, 14.038168, 1.377, -5.2977099, 0.162, -0.0028534, 1.377, -0.6341553, 1.377, -0.7440186, 1.377, -0.3394165, 1.377, -22.3511448, 1.377, 9.1297712, 1.377, 1.2366412, , , , , , , , , , , , , , , , , , , , , , 
0.1627941, -0.0080568, 1.38375, 0.1591187, 1.38375, -0.5605469, 1.38375, 0.7666626, 1.38375, -18.1450386, 1.38375, 13.2061071, 1.38375, -4.7938933, 0.1627941, -0.0003357, 1.38375, -0.6286621, 1.38375, -0.7434082, 1.38375, -0.3358765, 1.38375, -22.198473, 1.38375, 8.1145039, 1.38375, 1.4122137, , , , , , , , , , , , , , , , , , , , , , 
0.1635882, -0.0062104, 1.3905, 0.1629028, 1.3905, -0.5614624, 1.3905, 0.7654419, 1.3905, -18.0458012, 1.3905, 11.6946564, 1.3905, -4.7099237, 0.1635882, -0.0048676, 1.3905, -0.626709, 1.3905, -0.7365112, 1.3905, -0.3342896, 1.3905, -22.2137413, 1.3905, 7.1297708, 1.3905, 1.5343511, , , , , , , , , , , , , , , , , , , , , , 
0.1643824, -0.0050355, 1.39725, 0.1679688, 1.39725, -0.5613403, 1.39725, 0.7650757, 1.39725, -17.8702297, 1.39725, 10.6030531, 1.39725, -4.3435116, 0.1643824, -0.0072175, 1.39725, -0.6260986, 1.39725, -0.7415771, 1.39725, -0.335022, 1.39725, -22.67939, 1.39725, 6.6946564, 1.39725, 1.3587786, , , , , , , , , , , , , , , , , , , , , , 
0.1651765, -0.0031891, 1.404, 0.1757202, 1.404, -0.5612183, 1.404, 0.7655029, 1.404, -17.8244267, 1.404, 10.5419846, 1.404, -4.3893127, 0.1651765, -0.0062104, 1.404, -0.6229858, 1.404, -0.7443848, 1.404, -0.3361206, 1.404, -22.6488552, 1.404, 6.8396945, 1.404, 1.221374, , , , , , , , , , , , , , , , , , , , , , 
0.1659706, -0.0035248, 1.41075, 0.1782227, 1.41075, -0.5604248, 1.41075, 0.7655029, 1.41075, -17.839695, 1.41075, 10.8473282, 1.41075, -4.6793895, 0.1659706, -0.0038605, 1.41075, -0.6254272, 1.41075, -0.7451782, 1.41075, -0.3339233, 1.41075, -22.5038166, 1.41075, 7.5572519, 1.41075, 1.221374, , , , , , , , , , , , , , , , , , , , , , 
0.1667647, -0.0060426, 1.4175, 0.1777954, 1.4175, -0.5604248, 1.4175, 0.7647095, 1.4175, -18.3893127, 1.4175, 11.7786255, 1.4175, -5, 0.1667647, -0.0015106, 1.4175, -0.6260986, 1.4175, -0.7442017, 1.4175, -0.3325806, 1.4175, -22.3816795, 1.4175, 7.9847326, 1.4175, 1.1984733, , , , , , , , , , , , , , , , , , , , , , 
0.1675588, -0.0072175, 1.42425, 0.1817017, 1.42425, -0.5563354, 1.42425, 0.7643433, 1.42425, -18.3664131, 1.42425, 12.7557249, 1.42425, -4.961832, 0.1675588, 0.0016785, 1.42425, -0.6286011, 1.42425, -0.7472534, 1.42425, -0.3313599, 1.42425, -22.1755733, 1.42425, 8.3893127, 1.42425, 1.1984733, , , , , , , , , , , , , , , , , , , , , , 
0.1683529, -0.0099031, 1.431, 0.1745605, 1.431, -0.5612183, 1.431, 0.7635498, 1.431, -18.3358784, 1.431, 12.9465647, 1.431, -5, 0.1683529, 0.005539, 1.431, -0.6348877, 1.431, -0.7428589, 1.431, -0.3366089, 1.431, -22.2519093, 1.431, 8.2290077, 1.431, 1.2671756, , , , , , , , , , , , , , , , , , , , , , 
0.1691471, -0.0115816, 1.43775, 0.1763306, 1.43775, -0.5616455, 1.43775, 0.7672119, 1.43775, -18.1908398, 1.43775, 12.679389, 1.43775, -5.1984735, 0.1691471, 0.0031891, 1.43775, -0.6293335, 1.43775, -0.7421265, 1.43775, -0.3388062, 1.43775, -22.2900772, 1.43775, 7.6335878, 1.43775, 1.3587786, , , , , , , , , , , , , , , , , , , , , , 
0.1699412, -0.01561, 1.4445, 0.1759644, 1.4445, -0.5605469, 1.4445, 0.7663574, 1.4445, -18.3664131, 1.4445, 12.2061071, 1.4445, -5.4045801, 0.1699412, 0.0058747, 1.4445, -0.6212158, 1.4445, -0.7411499, 1.4445, -0.3411255, 1.4445, -22.9312973, 1.4445, 7.1679387, 1.4445, 1.4885496, , , , , , , , , , , , , , , , , , , , , , 
0.1707353, -0.01561, 1.45125, 0.1785278, 1.45125, -0.5649414, 1.45125, 0.7633667, 1.45125, -18.1450386, 1.45125, 12.0839691, 1.45125, -5.5954199, 0.1707353, 0.0130922, 1.45125, -0.6159058, 1.45125, -0.7397461, 1.45125, -0.3404541, 1.45125, -23.5648861, 1.45125, 7.3664122, 1.45125, 1.6183206, , , , , , , , , , , , , , , , , , , , , , 
0.1715294, -0.0162814, 1.458, 0.1784058, 1.458, -0.5685425, 1.458, 0.7605591, 1.458, -17.8778629, 1.458, 12.5877867, 1.458, -5.6259542, 0.1715294, 0.0186313, 1.458, -0.6068726, 1.458, -0.7432861, 1.458, -0.3363647, 1.458, -24.0839691, 1.458, 8.0687027, 1.458, 1.3587786, , , , , , , , , , , , , , , , , , , , , , 
0.1723235, -0.0152743, 1.46475, 0.1814575, 1.46475, -0.5709229, 1.46475, 0.7577515, 1.46475, -17.4656487, 1.46475, 13.038168, 1.46475, -5.4045801, 0.1723235, 0.0219883, 1.46475, -0.6040649, 1.46475, -0.7418823, 1.46475, -0.3305054, 1.46475, -24.2442741, 1.46475, 9.1832066, 1.46475, 1.1755725, , , , , , , , , , , , , , , , , , , , , , 
0.1731176, -0.0140993, 1.4715, 0.1847534, 1.4715, -0.5708618, 1.4715, 0.7556152, 1.4715, -17.0839691, 1.4715, 13.4351149, 1.4715, -5.1374044, 0.1731176, 0.0171206, 1.4715, -0.6026611, 1.4715, -0.7436523, 1.4715, -0.3276978, 1.4715, -24.3435116, 1.4715, 10.6106873, 1.4715, 0.7938932, , , , , , , , , , , , , , , , , , , , , , 
0.1739118, -0.0105745, 1.47825, 0.1829834, 1.47825, -0.5734253, 1.47825, 0.7554321, 1.47825, -16.7557259, 1.47825, 13.7938929, 1.47825, -4.7175574, 0.1739118, 0.0169528, 1.47825, -0.6096802, 1.47825, -0.7466431, 1.47825, -0.3278809, 1.47825, -24.6870232, 1.47825, 11.5648851, 1.47825, 0.8473282, , , , , , , , , , , , , , , , , , , , , , 
0.1747059, -0.008896, 1.485, 0.184021, 1.485, -0.569458, 1.485, 0.7537842, 1.485, -16.7709923, 1.485, 14.5419846, 1.485, -4.480916, 0.1747059, 0.0238346, 1.485, -0.612793, 1.485, -0.7466431, 1.485, -0.3262939, 1.485, -24.6641216, 1.485, 12.2213745, 1.485, 1.2137405, , , , , , , , , , , , , , , , , , , , , , 
0.1755, -0.0082246, 1.49175, 0.1810913, 1.49175, -0.5652466, 1.49175, 0.7571411, 1.49175, -16.961832, 1.49175, 15.5038166, 1.49175, -4.3893127, 0.1755, 0.0250095, 1.49175, -0.621582, 1.49175, -0.7496338, 1.49175, -0.3276978, 1.49175, -24.4351139, 1.49175, 12.2748089, 1.49175, 1.7175573, , , , , , , , , , , , , , , , , , , , , , 
0.1762941, -0.0068818, 1.4985, 0.1799316, 1.4985, -0.5653687, 1.4985, 0.7631836, 1.4985, -17.198473, 1.4985, 15.7328243, 1.4985, -4.3358779, 0.1762941, 0.0253452, 1.4985, -0.6223145, 1.4985, -0.7524414, 1.4985, -0.3292847, 1.4985, -23.9007626, 1.4985, 11.6488552, 1.4985, 2.4885497, , , , , , , , , , , , , , , , , , , , , , 
0.1770882, -0.0028534, 1.50525, 0.1796875, 1.50525, -0.564209, 1.50525, 0.7669678, 1.50525, -17, 1.50525, 15.5114508, 1.50525, -4.2824426, 0.1770882, 0.0216526, 1.50525, -0.6240845, 1.50525, -0.749939, 1.50525, -0.3283081, 1.50525, -23.4503822, 1.50525, 10.9847326, 1.50525, 3.0534351, , , , , , , , , , , , , , , , , , , , , , 
0.1778824, -0.0008392, 1.512, 0.1782227, 1.512, -0.5697632, 1.512, 0.7687988, 1.512, -16.839695, 1.512, 15.4656487, 1.512, -4.4885497, 0.1778824, 0.0186313, 1.512, -0.624939, 1.512, -0.7545166, 1.512, -0.3328247, 1.512, -22.8625946, 1.512, 10.320611, 1.512, 3.4351146, , , , , , , , , , , , , , , , , , , , , , 
0.1786765, -0.0048676, 1.51875, 0.1777954, 1.51875, -0.5640259, 1.51875, 0.7681885, 1.51875, -16.8244267, 1.51875, 15.5648851, 1.51875, -4.6183205, 0.1786765, 0.0119173, 1.51875, -0.6315308, 1.51875, -0.7512817, 1.51875, -0.3324585, 1.51875, -22.4198475, 1.51875, 9.9389315, 1.51875, 3.480916, , , , , , , , , , , , , , , , , , , , , , 
0.1794706, -0.0072175, 1.5255, 0.177002, 1.5255, -0.5631104, 1.5255, 0.7671509, 1.5255, -17.038168, 1.5255, 15.5267172, 1.5255, -4.7633586, 0.1794706, 0.0092317, 1.5255, -0.6320801, 1.5255, -0.7488403, 1.5255, -0.3313599, 1.5255, -22.3129768, 1.5255, 9.9847326, 1.5255, 3.4656489, , , , , , , , , , , , , , , , , , , , , , 
0.1802647, -0.0062104, 1.53225, 0.1720581, 1.53225, -0.5618286, 1.53225, 0.7651978, 1.53225, -17.5038166, 1.53225, 15.0076332, 1.53225, -4.9007635, 0.1802647, 0.008896, 1.53225, -0.6355591, 1.53225, -0.7456055, 1.53225, -0.3323975, 1.53225, -22.1908398, 1.53225, 10.1221371, 1.53225, 2.8854961, , , , , , , , , , , , , , , , , , , , , , 
0.1810588, -0.0095674, 1.539, 0.1716919, 1.539, -0.5577393, 1.539, 0.7634888, 1.539, -17.5343513, 1.539, 14.6259546, 1.539, -5.0534353, 0.1810588, 0.0095674, 1.539, -0.6377563, 1.539, -0.7457886, 1.539, -0.3312988, 1.539, -22.2671757, 1.539, 10.4427481, 1.539, 2.4274809, , , , , , , , , , , , , , , , , , , , , , 
0.1818529, -0.0083925, 1.54575, 0.1737671, 1.54575, -0.5578003, 1.54575, 0.7597046, 1.54575, -17.8778629, 1.54575, 13.641221, 1.54575, -4.8396945, 0.1818529, 0.0075532, 1.54575, -0.6391602, 1.54575, -0.7452393, 1.54575, -0.333374, 1.54575, -22.5496178, 1.54575, 10.6335878, 1.54575, 2, , , , , , , , , , , , , , , , , , , , , , 
0.1826471, -0.0068818, 1.5525, 0.1732178, 1.5525, -0.559021, 1.5525, 0.765625, 1.5525, -18.0534344, 1.5525, 13.2290077, 1.5525, -4.9694657, 0.1826471, 0.0105745, 1.5525, -0.6351318, 1.5525, -0.7440186, 1.5525, -0.3323975, 1.5525, -23.0763359, 1.5525, 10.7938929, 1.5525, 1.519084, , , , , , , , , , , , , , , , , , , , , , 
0.1834412, -0.0112459, 1.55925, 0.1745605, 1.55925, -0.5629272, 1.55925, 0.7697754, 1.55925, -17.9312973, 1.55925, 12.9465647, 1.55925, -5.2824426, 0.1834412, 0.0092317, 1.55925, -0.6312256, 1.55925, -0.7443237, 1.55925, -0.3359375, 1.55925, -23.5954189, 1.55925, 10.0610685, 1.55925, 1.2061069, , , , , , , , , , , , , , , , , , , , , , 
0.1842353, -0.0095674, 1.566, 0.1746216, 1.566, -0.5613403, 1.566, 0.7704468, 1.566, -17.9083977, 1.566, 12.0305347, 1.566, -5.4656487, 0.1842353, 0.0090639, 1.566, -0.6321411, 1.566, -0.7449341, 1.566, -0.3346558, 1.566, -24.038168, 1.566, 9.1755724, 1.566, 1.3816794, , , , , , , , , , , , , , , , , , , , , , 
0.1850294, -0.0095674, 1.57275, 0.1744995, 1.57275, -0.5637817, 1.57275, 0.7698975, 1.57275, -17.5343513, 1.57275, 11.3893127, 1.57275, -5.5343513, 0.1850294, 0.0132601, 1.57275, -0.6254883, 1.57275, -0.7433472, 1.57275, -0.3297729, 1.57275, -23.8778629, 1.57275, 7.9541984, 1.57275, 1.7862595, , , , , , , , , , , , , , , , , , , , , , 
0.1858235, -0.014435, 1.5795, 0.178833, 1.5795, -0.5628052, 1.5795, 0.7661743, 1.5795, -17.2519093, 1.5795, 11.8320608, 1.5795, -5.480916, 0.1858235, 0.0139315, 1.5795, -0.6220093, 1.5795, -0.7397461, 1.5795, -0.3297119, 1.5795, -23.4198475, 1.5795, 7.3587785, 1.5795, 2.5877862, , , , , , , , , , , , , , , , , , , , , , 
0.1866176, -0.0129244, 1.58625, 0.180481, 1.58625, -0.5615234, 1.58625, 0.7662964, 1.58625, -16.801527, 1.58625, 12.5877867, 1.58625, -5.3893127, 0.1866176, 0.0166171, 1.58625, -0.6165161, 1.58625, -0.7391357, 1.58625, -0.3314819, 1.58625, -22.6106873, 1.58625, 7.221374, 1.58625, 3.4961832, , , , , , , , , , , , , , , , , , , , , , 
0.1874118, -0.0129244, 1.593, 0.1801147, 1.593, -0.5612793, 1.593, 0.7641602, 1.593, -16.4198475, 1.593, 13.6946564, 1.593, -4.9160304, 0.1874118, 0.0229953, 1.593, -0.6108398, 1.593, -0.7362671, 1.593, -0.335083, 1.593, -22.4198475, 1.593, 7.8396945, 1.593, 4.0076337, , , , , , , , , , , , , , , , , , , , , , 
0.1882059, -0.0137636, 1.59975, 0.1827393, 1.59975, -0.5578003, 1.59975, 0.7625122, 1.59975, -16.4580154, 1.59975, 14.5496187, 1.59975, -4.6106873, 0.1882059, 0.0240024, 1.59975, -0.6071167, 1.59975, -0.7385254, 1.59975, -0.3422241, 1.59975, -22.7480907, 1.59975, 9.1755724, 1.59975, 4.221374, , , , , , , , , , , , , , , , , , , , , , 
0.189, -0.0082246, 1.6065, 0.182312, 1.6065, -0.55896, 1.6065, 0.7670898, 1.6065, -16.557251, 1.6065, 14.7404585, 1.6065, -4.259542, 0.189, 0.0203098, 1.6065, -0.6054077, 1.6065, -0.739502, 1.6065, -0.3424072, 1.6065, -23.1832066, 1.6065, 10.7862597, 1.6065, 4.2366414, , , , , , , , , , , , , , , , , , , , , , 
0.1897941, -0.0052033, 1.61325, 0.1870728, 1.61325, -0.5584717, 1.61325, 0.7637329, 1.61325, -16.5343513, 1.61325, 14.9923668, 1.61325, -4.3358779, 0.1897941, 0.0216526, 1.61325, -0.6080322, 1.61325, -0.744873, 1.61325, -0.3431396, 1.61325, -23.6106873, 1.61325, 12.6717558, 1.61325, 4.0839696, , , , , , , , , , , , , , , , , , , , , , 
0.1905882, -0.005539, 1.62, 0.1903076, 1.62, -0.5643921, 1.62, 0.7652588, 1.62, -16.8778629, 1.62, 15.6717558, 1.62, -4.3664122, 0.1905882, 0.0204776, 1.62, -0.6144409, 1.62, -0.7488403, 1.62, -0.3392334, 1.62, -24.0229015, 1.62, 14.0992365, 1.62, 3.8320611, , , , , , , , , , , , , , , , , , , , , , 
0.1913824, -0.0041962, 1.62675, 0.1943359, 1.62675, -0.5654907, 1.62675, 0.7687988, 1.62675, -16.8702297, 1.62675, 16.4503822, 1.62675, -4.5419846, 0.1913824, 0.0115816, 1.62675, -0.6157837, 1.62675, -0.7468262, 1.62675, -0.3382568, 1.62675, -24.5267181, 1.62675, 14.9541988, 1.62675, 3.4351146, , , , , , , , , , , , , , , , , , , , , , 
0.1921765, -0.0048676, 1.6335, 0.1929932, 1.6335, -0.5672607, 1.6335, 0.7667847, 1.6335, -16.6870232, 1.6335, 16.8625946, 1.6335, -4.7633586, 0.1921765, 0.0031891, 1.6335, -0.6207275, 1.6335, -0.743042, 1.6335, -0.3324585, 1.6335, -25.0076332, 1.6335, 15.0458012, 1.6335, 2.9312978, , , , , , , , , , , , , , , , , , , , , , 
0.1929706, -0.0045319, 1.64025, 0.1923828, 1.64025, -0.5656738, 1.64025, 0.7644043, 1.64025, -16.4351139, 1.64025, 17.8702297, 1.64025, -4.9465647, 0.1929706, 0.0099031, 1.64025, -0.6257324, 1.64025, -0.7435913, 1.64025, -0.3312378, 1.64025, -25.2824421, 1.64025, 15.358779, 1.64025, 2.480916, , , , , , , , , , , , , , , , , , , , , , 
0.1937647, -0.0058747, 1.647, 0.1860962, 1.647, -0.564209, 1.647, 0.7640991, 1.647, -16.4656487, 1.647, 19.2519093, 1.647, -5.1755724, 0.1937647, 0.0226596, 1.647, -0.6239624, 1.647, -0.7443237, 1.647, -0.3265381, 1.647, -25.2366409, 1.647, 15.8549614, 1.647, 2.3358779, , , , , , , , , , , , , , , , , , , , , , 
0.1945588, -0.0082246, 1.65375, 0.178833, 1.65375, -0.5629272, 1.65375, 0.7615356, 1.65375, -16.480917, 1.65375, 19.9770985, 1.65375, -5.2519083, 0.1945588, 0.0263523, 1.65375, -0.6312256, 1.65375, -0.7454834, 1.65375, -0.3250122, 1.65375, -24.9465656, 1.65375, 15.480916, 1.65375, 2.4580152, , , , , , , , , , , , , , , , , , , , , , 
0.1953529, -0.0105745, 1.6605, 0.1707764, 1.6605, -0.5614624, 1.6605, 0.7635498, 1.6605, -16.3511448, 1.6605, 20.6259537, 1.6605, -5.3816795, 0.1953529, 0.0297093, 1.6605, -0.6298218, 1.6605, -0.7399902, 1.6605, -0.3234253, 1.6605, -24.8320618, 1.6605, 15.0229006, 1.6605, 2.7938931, , , , , , , , , , , , , , , , , , , , , , 
0.1961471, -0.0109102, 1.66725, 0.1710815, 1.66725, -0.55896, 1.66725, 0.7634888, 1.66725, -16.2290077, 1.66725, 20.5419846, 1.66725, -5.5496182, 0.1961471, 0.0236667, 1.66725, -0.6292725, 1.66725, -0.7393188, 1.66725, -0.3243408, 1.66725, -24.9236641, 1.66725, 14.679389, 1.66725, 2.9770992, , , , , , , , , , , , , , , , , , , , , , 
0.1969412, -0.0075532, 1.674, 0.1657104, 1.674, -0.56073, 1.674, 0.7648315, 1.674, -16.0610695, 1.674, 19.6946564, 1.674, -5.4274807, 0.1969412, 0.0157778, 1.674, -0.6300659, 1.674, -0.7387085, 1.674, -0.3322754, 1.674, -24.8931293, 1.674, 13.9160309, 1.674, 3.3740458, , , , , , , , , , , , , , , , , , , , , , 
0.1977353, -0.0058747, 1.68075, 0.1624756, 1.68075, -0.5569458, 1.68075, 0.7650146, 1.68075, -16.0305347, 1.68075, 19.1374054, 1.68075, -4.9007635, 0.1977353, 0.0146029, 1.68075, -0.6315918, 1.68075, -0.7394409, 1.68075, -0.3347168, 1.68075, -24.7709923, 1.68075, 13.0458012, 1.68075, 3.740458, , , , , , , , , , , , , , , , , , , , , , 
0.1985294, -0.0062104, 1.6875, 0.1605225, 1.6875, -0.5540771, 1.6875, 0.7658081, 1.6875, -15.8625956, 1.6875, 18.5038166, 1.6875, -4.740458, 0.1985294, 0.0135958, 1.6875, -0.6298218, 1.6875, -0.7377319, 1.6875, -0.3369751, 1.6875, -24.9160309, 1.6875, 12.4503813, 1.6875, 4.0992365, , , , , , , , , , , , , , , , , , , , , , 
0.1993235, -0.0048676, 1.69425, 0.1616211, 1.69425, -0.5506592, 1.69425, 0.7698364, 1.69425, -15.8320608, 1.69425, 17.5801525, 1.69425, -4.7328243, 0.1993235, 0.0070497, 1.69425, -0.6325684, 1.69425, -0.7345581, 1.69425, -0.3408203, 1.69425, -25, 1.69425, 12.3740454, 1.69425, 4.3435116, , , , , , , , , , , , , , , , , , , , , , 
0.2001176, -0.0036927, 1.701, 0.1633911, 1.701, -0.5526733, 1.701, 0.7711182, 1.701, -15.5038166, 1.701, 16.3358784, 1.701, -4.5725193, 0.2001176, 0.005539, 1.701, -0.6370239, 1.701, -0.7352905, 1.701, -0.338501, 1.701, -25.396946, 1.701, 12.519084, 1.701, 4.3053436, , , , , , , , , , , , , , , , , , , , , , 
0.2009118, -0.0050355, 1.70775, 0.1687012, 1.70775, -0.5550537, 1.70775, 0.7706299, 1.70775, -15.2671757, 1.70775, 15.4885492, 1.70775, -4.4580154, 0.2009118, 0.0025177, 1.70775, -0.6390991, 1.70775, -0.7383423, 1.70775, -0.3355103, 1.70775, -25.641222, 1.70775, 12.8244276, 1.70775, 4.2671757, , , , , , , , , , , , , , , , , , , , , , 
0.2017059, -0.0072175, 1.7145, 0.1735229, 1.7145, -0.5596313, 1.7145, 0.7692261, 1.7145, -15.4580154, 1.7145, 14.7022905, 1.7145, -4.5801525, 0.2017059, -0.0028534, 1.7145, -0.6350098, 1.7145, -0.7374268, 1.7145, -0.333313, 1.7145, -25.8931293, 1.7145, 12.8854961, 1.7145, 4.0305343, , , , , , , , , , , , , , , , , , , , , , 
0.2025, -0.0099031, 1.72125, 0.1845093, 1.72125, -0.5635376, 1.72125, 0.7679443, 1.72125, -15.5419846, 1.72125, 14.4580154, 1.72125, -4.4885497, 0.2025, -0.0045319, 1.72125, -0.632019, 1.72125, -0.7439575, 1.72125, -0.3345337, 1.72125, -25.8244267, 1.72125, 12.4045801, 1.72125, 3.4885497, , , , , , , , , , , , , , , , , , , , , , 
0.2032941, -0.0129244, 1.728, 0.1848145, 1.728, -0.5658569, 1.728, 0.7662354, 1.728, -15.5648851, 1.728, 14.7709923, 1.728, -4.4427481, 0.2032941, -0.005539, 1.728, -0.6271973, 1.728, -0.7446899, 1.728, -0.3337402, 1.728, -25.8702297, 1.728, 12.0458012, 1.728, 2.961832, , , , , , , , , , , , , , , , , , , , , , 
0.2040882, -0.0152743, 1.73475, 0.1864014, 1.73475, -0.5678711, 1.73475, 0.7651978, 1.73475, -15.320611, 1.73475, 15.5038166, 1.73475, -4.5038166, 0.2040882, -0.0048676, 1.73475, -0.6240845, 1.73475, -0.7473755, 1.73475, -0.3286743, 1.73475, -26.0763359, 1.73475, 12.1297712, 1.73475, 2.6641221, , , , , , , , , , , , , , , , , , , , , , 
0.2048824, -0.0330663, 1.7415, 0.1817017, 1.7415, -0.5698853, 1.7415, 0.7614136, 1.7415, -15.3435116, 1.7415, 16.7480907, 1.7415, -4.4351144, 0.2048824, 0.0001678, 1.7415, -0.6251221, 1.7415, -0.7458496, 1.7415, -0.3284302, 1.7415, -26.1145039, 1.7415, 12.6335878, 1.7415, 2.648855, , , , , , , , , , , , , , , , , , , , , , 
0.2056765, -0.0441444, 1.74825, 0.1767578, 1.74825, -0.5668335, 1.74825, 0.7628174, 1.74825, -15.4732828, 1.74825, 17.7480907, 1.74825, -4.4045801, 0.2056765, 0.0038605, 1.74825, -0.6223755, 1.74825, -0.7478027, 1.74825, -0.3272095, 1.74825, -26.5725193, 1.74825, 12.717557, 1.74825, 2.8931298, , , , , , , , , , , , , , , , , , , , , , 
0.2064706, -0.0364233, 1.755, 0.1729736, 1.755, -0.5672607, 1.755, 0.7652588, 1.755, -15.7480917, 1.755, 17.9923668, 1.755, -4.1679387, 0.2064706, -0.0008392, 1.755, -0.6220093, 1.755, -0.7473755, 1.755, -0.3300171, 1.755, -26.4351139, 1.755, 12.0839691, 1.755, 3.1984732, , , , , , , , , , , , , , , , , , , , , , 
0.2072647, -0.01561, 1.76175, 0.1755371, 1.76175, -0.5633545, 1.76175, 0.7657471, 1.76175, -15.7251911, 1.76175, 17.8549614, 1.76175, -4.0458016, 0.2072647, -0.0003357, 1.76175, -0.6201172, 1.76175, -0.7468262, 1.76175, -0.3309937, 1.76175, -26.1450386, 1.76175, 11.8625956, 1.76175, 3.5267177, , , , , , , , , , , , , , , , , , , , , , 
0.2080588, 0.0119173, 1.7685, 0.1729126, 1.7685, -0.5628662, 1.7685, 0.7697144, 1.7685, -15.3740454, 1.7685, 17.1908398, 1.7685, -3.8015268, 0.2080588, -0.0001678, 1.7685, -0.6195679, 1.7685, -0.7481689, 1.7685, -0.3377075, 1.7685, -25.8167934, 1.7685, 12.0076332, 1.7685, 3.740458, , , , , , , , , , , , , , , , , , , , , , 
0.2088529, 0.0260166, 1.77525, 0.1726685, 1.77525, -0.5630493, 1.77525, 0.7683716, 1.77525, -15.2442751, 1.77525, 16.557251, 1.77525, -3.351145, 0.2088529, 0.0041962, 1.77525, -0.6234131, 1.77525, -0.7475586, 1.77525, -0.3416748, 1.77525, -25.2519093, 1.77525, 12.1145039, 1.77525, 3.8091602, , , , , , , , , , , , , , , , , , , , , , 
0.2096471, 0.0213169, 1.782, 0.1729126, 1.782, -0.5614624, 1.782, 0.770752, 1.782, -15.519084, 1.782, 16.3053436, 1.782, -3.2977099, 0.2096471, 0.0125887, 1.782, -0.6274414, 1.782, -0.7442627, 1.782, -0.3422852, 1.782, -25.3893127, 1.782, 12.3740454, 1.782, 4.0076337, , , , , , , , , , , , , , , , , , , , , , 
0.2104412, 0.0078889, 1.78875, 0.1764526, 1.78875, -0.5557861, 1.78875, 0.769043, 1.78875, -15.8854961, 1.78875, 16.0229015, 1.78875, -3.5648854, 0.2104412, 0.017792, 1.78875, -0.6317749, 1.78875, -0.7458496, 1.78875, -0.3409424, 1.78875, -25.2977104, 1.78875, 12.198473, 1.78875, 3.8854961, , , , , , , , , , , , , , , , , , , , , , 
0.2112353, 0.0018463, 1.7955, 0.1721802, 1.7955, -0.5593262, 1.7955, 0.7714844, 1.7955, -15.9465647, 1.7955, 16.5267181, 1.7955, -3.7938931, 0.2112353, 0.0146029, 1.7955, -0.6392212, 1.7955, -0.7451782, 1.7955, -0.3374023, 1.7955, -25.2977104, 1.7955, 11.8167934, 1.7955, 3.8091602, , , , , , , , , , , , , , , , , , , , , , 
0.2120294, 0.0058747, 1.80225, 0.1672974, 1.80225, -0.5543823, 1.80225, 0.7765503, 1.80225, -16.0458012, 1.80225, 16.6946564, 1.80225, -4.0152674, 0.2120294, 0.012253, 1.80225, -0.6408691, 1.80225, -0.7402344, 1.80225, -0.3359375, 1.80225, -25.038168, 1.80225, 11.2442751, 1.80225, 3.9007633, , , , , , , , , , , , , , , , , , , , , , 
0.2128235, 0.0169528, 1.809, 0.163269, 1.809, -0.5562134, 1.809, 0.7732544, 1.809, -15.839695, 1.809, 16.5038166, 1.809, -4.1603055, 0.2128235, 0.0107424, 1.809, -0.6397705, 1.809, -0.7369385, 1.809, -0.3349609, 1.809, -24.5419846, 1.809, 10.8854961, 1.809, 3.7251909, , , , , , , , , , , , , , , , , , , , , , 
0.2136176, 0.0251774, 1.81575, 0.1591797, 1.81575, -0.5543213, 1.81575, 0.7741699, 1.81575, -15.7404585, 1.81575, 16.198473, 1.81575, -4.2137403, 0.2136176, 0.0038605, 1.81575, -0.640625, 1.81575, -0.7338867, 1.81575, -0.3380737, 1.81575, -24.8473282, 1.81575, 10.1297712, 1.81575, 3.6183207, , , , , , , , , , , , , , , , , , , , , , 
0.2144118, 0.0199741, 1.8225, 0.1609497, 1.8225, -0.5512695, 1.8225, 0.7716675, 1.8225, -15.7099237, 1.8225, 16.1068707, 1.8225, -4.0687022, 0.2144118, -0.0015106, 1.8225, -0.633606, 1.8225, -0.7315674, 1.8225, -0.3411865, 1.8225, -24.8854961, 1.8225, 9.3435116, 1.8225, 3.6335878, , , , , , , , , , , , , , , , , , , , , , 
0.2152059, 0.0132601, 1.82925, 0.1581421, 1.82925, -0.5483398, 1.82925, 0.7739258, 1.82925, -15.6259546, 1.82925, 15.4274807, 1.82925, -3.6641221, 0.2152059, -0.0010071, 1.82925, -0.6315308, 1.82925, -0.7322388, 1.82925, -0.3485718, 1.82925, -25.0076332, 1.82925, 8.8854961, 1.82925, 3.5343511, , , , , , , , , , , , , , , , , , , , , , 
0.216, 0.0078889, 1.836, 0.1554565, 1.836, -0.5488281, 1.836, 0.770874, 1.836, -15.7709923, 1.836, 14.1374044, 1.836, -3.129771, 0.216, -0.0001678, 1.836, -0.6281738, 1.836, -0.7359619, 1.836, -0.3508301, 1.836, -25.0458012, 1.836, 9, 1.836, 3.4198472, , , , , , , , , , , , , , , , , , , , , , 
0.2167941, 0.002182, 1.84275, 0.1611938, 1.84275, -0.550354, 1.84275, 0.7717285, 1.84275, -15.9160309, 1.84275, 12.7328243, 1.84275, -3.1450381, 0.2167941, 0.0038605, 1.84275, -0.6272583, 1.84275, -0.7372437, 1.84275, -0.3522339, 1.84275, -25.1450386, 1.84275, 10.0763359, 1.84275, 2.9847329, , , , , , , , , , , , , , , , , , , , , , 
0.2175882, -0.005539, 1.8495, 0.1669312, 1.8495, -0.5467529, 1.8495, 0.7700806, 1.8495, -16.0916023, 1.8495, 12.282443, 1.8495, -3.1603053, 0.2175882, 0.0078889, 1.8495, -0.6279907, 1.8495, -0.7388306, 1.8495, -0.3499756, 1.8495, -25.2900772, 1.8495, 11.1832066, 1.8495, 3.0687022, , , , , , , , , , , , , , , , , , , , , , 
0.2183824, -0.0125887, 1.85625, 0.1732788, 1.85625, -0.5567627, 1.85625, 0.7714233, 1.85625, -16.4045811, 1.85625, 13.1832066, 1.85625, -3.3740458, 0.2183824, 0.0119173, 1.85625, -0.6314697, 1.85625, -0.7429199, 1.85625, -0.3442993, 1.85625, -25.2900772, 1.85625, 11.961832, 1.85625, 3.1450381, , , , , , , , , , , , , , , , , , , , , , 
0.2191765, -0.0179599, 1.863, 0.171875, 1.863, -0.5622559, 1.863, 0.7733765, 1.863, -16.3740463, 1.863, 14.2137403, 1.863, -3.5038168, 0.2191765, 0.0132601, 1.863, -0.6314697, 1.863, -0.7432251, 1.863, -0.3413086, 1.863, -25.1679382, 1.863, 11.5267172, 1.863, 3.1908398, , , , , , , , , , , , , , , , , , , , , , 
0.2199706, -0.0213169, 1.86975, 0.1688232, 1.86975, -0.5626221, 1.86975, 0.7759399, 1.86975, -16.2977104, 1.86975, 14.480916, 1.86975, -3.4045801, 0.2199706, 0.0099031, 1.86975, -0.6331787, 1.86975, -0.7476196, 1.86975, -0.3404541, 1.86975, -24.6488552, 1.86975, 10.3816795, 1.86975, 3.2061069, , , , , , , , , , , , , , , , , , , , , , 
0.2207647, -0.0213169, 1.8765, 0.1670532, 1.8765, -0.5662231, 1.8765, 0.7757568, 1.8765, -16.1068707, 1.8765, 14.679389, 1.8765, -3.2519083, 0.2207647, 0.010071, 1.8765, -0.6322021, 1.8765, -0.7525635, 1.8765, -0.3468628, 1.8765, -23.5954189, 1.8765, 9.2977095, 1.8765, 3.129771, , , , , , , , , , , , , , , , , , , , , , 
0.2215588, -0.0229953, 1.88325, 0.1673584, 1.88325, -0.5662231, 1.88325, 0.7764282, 1.88325, -16.4351139, 1.88325, 14.3664122, 1.88325, -3.2442749, 0.2215588, 0.0105745, 1.88325, -0.6315308, 1.88325, -0.7519531, 1.88325, -0.3453369, 1.88325, -23.3435116, 1.88325, 8.9923668, 1.88325, 3.0076337, , , , , , , , , , , , , , , , , , , , , , 
0.2223529, -0.0243381, 1.89, 0.1650391, 1.89, -0.5609131, 1.89, 0.7764282, 1.89, -16.7938938, 1.89, 13.9312973, 1.89, -3.4045801, 0.2223529, 0.0125887, 1.89, -0.6323242, 1.89, -0.7490845, 1.89, -0.3480225, 1.89, -22.9541988, 1.89, 8.9847326, 1.89, 2.908397, , , , , , , , , , , , , , , , , , , , , , 
0.2231471, -0.0250095, 1.89675, 0.1674805, 1.89675, -0.5585938, 1.89675, 0.7789917, 1.89675, -17.2290077, 1.89675, 13.6259546, 1.89675, -3.5343511, 0.2231471, 0.0193027, 1.89675, -0.6339722, 1.89675, -0.746521, 1.89675, -0.3502808, 1.89675, -23.1221371, 1.89675, 9.1297712, 1.89675, 3.1374047, , , , , , , , , , , , , , , , , , , , , , 
0.2239412, -0.0236667, 1.9035, 0.1643066, 1.9035, -0.5563354, 1.9035, 0.7727051, 1.9035, -17.3282452, 1.9035, 13.2595415, 1.9035, -3.9465649, 0.2239412, 0.0206455, 1.9035, -0.6311035, 1.9035, -0.7442627, 1.9035, -0.3448486, 1.9035, -23.2519093, 1.9035, 9.5954199, 1.9035, 3.2290077, , , , , , , , , , , , , , , , , , , , , , 
0.2247353, -0.0246738, 1.91025, 0.1625977, 1.91025, -0.5541382, 1.91025, 0.770813, 1.91025, -17.0687027, 1.91025, 12.9770994, 1.91025, -4.2290077, 0.2247353, 0.0236667, 1.91025, -0.6266479, 1.91025, -0.7440796, 1.91025, -0.3451538, 1.91025, -23.3664131, 1.91025, 9.7938929, 1.91025, 3.2366412, , , , , , , , , , , , , , , , , , , , , , 
0.2255294, -0.0270237, 1.917, 0.1610718, 1.917, -0.5593262, 1.917, 0.7680664, 1.917, -16.7022896, 1.917, 13.0610685, 1.917, -4.2671757, 0.2255294, 0.0246738, 1.917, -0.6270752, 1.917, -0.7406006, 1.917, -0.3422241, 1.917, -22.9694653, 1.917, 9.4961834, 1.917, 3.0229008, , , , , , , , , , , , , , , , , , , , , , 
0.2263235, -0.0263523, 1.92375, 0.1578369, 1.92375, -0.5618286, 1.92375, 0.7627563, 1.92375, -16.198473, 1.92375, 13.4122133, 1.92375, -4.3206105, 0.2263235, 0.0226596, 1.92375, -0.6195068, 1.92375, -0.7337646, 1.92375, -0.3405762, 1.92375, -23.0305347, 1.92375, 9.038168, 1.92375, 2.9236641, , , , , , , , , , , , , , , , , , , , , , 
0.2271176, -0.0206455, 1.9305, 0.1558838, 1.9305, -0.5653076, 1.9305, 0.7580566, 1.9305, -15.8854961, 1.9305, 13.3053436, 1.9305, -4.2137403, 0.2271176, 0.0270237, 1.9305, -0.6154785, 1.9305, -0.7313843, 1.9305, -0.3424072, 1.9305, -23.4122143, 1.9305, 9.1755724, 1.9305, 2.6946564, , , , , , , , , , , , , , , , , , , , , , 
0.2279118, -0.0162814, 1.93725, 0.1518555, 1.93725, -0.5639648, 1.93725, 0.7544556, 1.93725, -15.4274807, 1.93725, 12.961832, 1.93725, -4.2442746, 0.2279118, 0.0297093, 1.93725, -0.6100464, 1.93725, -0.7321167, 1.93725, -0.342041, 1.93725, -24.2671757, 1.93725, 9.8625956, 1.93725, 2.5267177, , , , , , , , , , , , , , , , , , , , , , 
0.2287059, -0.0135958, 1.944, 0.1515503, 1.944, -0.5665894, 1.944, 0.7554932, 1.944, -15.1297712, 1.944, 12.3969469, 1.944, -4.1679387, 0.2287059, 0.0337377, 1.944, -0.6098633, 1.944, -0.7327881, 1.944, -0.3401489, 1.944, -24.6946564, 1.944, 10.4656487, 1.944, 2.4732823, , , , , , , , , , , , , , , , , , , , , , 
0.2295, -0.0115816, 1.95075, 0.1559448, 1.95075, -0.5628662, 1.95075, 0.7581787, 1.95075, -15.0076332, 1.95075, 12.6030531, 1.95075, -4.0992365, 0.2295, 0.0323949, 1.95075, -0.6127319, 1.95075, -0.7409058, 1.95075, -0.3416748, 1.95075, -24.9923668, 1.95075, 10.8549614, 1.95075, 2.9236641, , , , , , , , , , , , , , , , , , , , , , 
0.2302941, -0.0068818, 1.9575, 0.1605225, 1.9575, -0.5662231, 1.9575, 0.7661133, 1.9575, -15.0229006, 1.9575, 12.9847326, 1.9575, -4.0305343, 0.2302941, 0.0260166, 1.9575, -0.6119385, 1.9575, -0.7484741, 1.9575, -0.3392334, 1.9575, -24.8167934, 1.9575, 10.9541988, 1.9575, 3.4885497, , , , , , , , , , , , , , , , , , , , , , 
0.2310882, -0.0095674, 1.96425, 0.1626587, 1.96425, -0.5653687, 1.96425, 0.7717285, 1.96425, -15.0763359, 1.96425, 13.1832066, 1.96425, -3.870229, 0.2310882, 0.0240024, 1.96425, -0.6157837, 1.96425, -0.7519531, 1.96425, -0.3397827, 1.96425, -24.2137413, 1.96425, 10.8320608, 1.96425, 4.0305343, , , , , , , , , , , , , , , , , , , , , , 
0.2318824, -0.0068818, 1.971, 0.1668091, 1.971, -0.5689697, 1.971, 0.7698364, 1.971, -14.9694653, 1.971, 12.6106873, 1.971, -3.5954199, 0.2318824, 0.0251774, 1.971, -0.6170044, 1.971, -0.7485352, 1.971, -0.3383789, 1.971, -23.6335869, 1.971, 11.0076332, 1.971, 4.5572519, , , , , , , , , , , , , , , , , , , , , , 
0.2326765, -0.0063783, 1.97775, 0.1716309, 1.97775, -0.5681152, 1.97775, 0.7657471, 1.97775, -14.5877867, 1.97775, 12.2213745, 1.97775, -3.6412213, 0.2326765, 0.0209812, 1.97775, -0.6192627, 1.97775, -0.7510376, 1.97775, -0.3426514, 1.97775, -23.1145039, 1.97775, 10.9160309, 1.97775, 4.9083967, , , , , , , , , , , , , , , , , , , , , , 
0.2334706, -0.0070497, 1.9845, 0.1759644, 1.9845, -0.5717163, 1.9845, 0.7646484, 1.9845, -14.358779, 1.9845, 12.1679392, 1.9845, -3.7099237, 0.2334706, 0.0176242, 1.9845, -0.619812, 1.9845, -0.7463989, 1.9845, -0.3431396, 1.9845, -22.9236641, 1.9845, 10.8854961, 1.9845, 4.8396945, , , , , , , , , , , , , , , , , , , , , , 
0.2342647, -0.0090639, 1.99125, 0.1768188, 1.99125, -0.5726318, 1.99125, 0.756958, 1.99125, -13.7862597, 1.99125, 12.2900763, 1.99125, -3.8167939, 0.2342647, 0.0146029, 1.99125, -0.6195679, 1.99125, -0.7453613, 1.99125, -0.3401489, 1.99125, -22.6259537, 1.99125, 11.3740454, 1.99125, 4.6106873, , , , , , , , , , , , , , , , , , , , , , 
0.2350588, -0.0115816, 1.998, 0.1747437, 1.998, -0.5701904, 1.998, 0.7556763, 1.998, -14.0076332, 1.998, 12.7633591, 1.998, -3.8549619, 0.2350588, 0.0159457, 1.998, -0.6184692, 1.998, -0.7496338, 1.998, -0.3415527, 1.998, -22.9007626, 1.998, 12.2213745, 1.998, 3.6870229, , , , , , , , , , , , , , , , , , , , , , 
0.2358529, -0.0109102, 2.00475, 0.180542, 2.00475, -0.5635376, 2.00475, 0.758606, 2.00475, -14.4656487, 2.00475, 13.1832066, 2.00475, -4.0076337, 0.2358529, 0.0164492, 2.00475, -0.6234131, 2.00475, -0.7494507, 2.00475, -0.3404541, 2.00475, -23.2519093, 2.00475, 13.4045801, 2.00475, 3.0152671, , , , , , , , , , , , , , , , , , , , , , 
0.2366471, -0.0109102, 2.0115, 0.1841431, 2.0115, -0.5634155, 2.0115, 0.7637329, 2.0115, -15.1526718, 2.0115, 12.8244276, 2.0115, -4.1832061, 0.2366471, 0.0184634, 2.0115, -0.6291504, 2.0115, -0.7560425, 2.0115, -0.3374634, 2.0115, -23.8320618, 2.0115, 14.160305, 2.0115, 2.1755726, , , , , , , , , , , , , , , , , , , , , , 
0.2374412, -0.0068818, 2.01825, 0.1882324, 2.01825, -0.56604, 2.01825, 0.7663574, 2.01825, -16.2137413, 2.01825, 11.9389315, 2.01825, -4.7251906, 0.2374412, 0.0159457, 2.01825, -0.6333008, 2.01825, -0.7593994, 2.01825, -0.3322144, 2.01825, -24.2748089, 2.01825, 15.0534353, 2.01825, 1.8549619, , , , , , , , , , , , , , , , , , , , , , 
0.2382353, -0.0095674, 2.025, 0.190979, 2.025, -0.5670166, 2.025, 0.7711792, 2.025, -17.1145039, 2.025, 12.0763359, 2.025, -5.0839696, 0.2382353, 0.0105745, 2.025, -0.6443481, 2.025, -0.7686157, 2.025, -0.3269043, 2.025, -24.6106873, 2.025, 14.6641226, 2.025, 1.8625954, , , , , , , , , , , , , , , , , , , , , , 
0.2390294, -0.0095674, 2.03175, 0.1871338, 2.03175, -0.571106, 2.03175, 0.7716675, 2.03175, -17.6106873, 2.03175, 13.5038166, 2.03175, -5.6870227, 0.2390294, 0.0041962, 2.03175, -0.6509399, 2.03175, -0.772583, 2.03175, -0.3215332, 2.03175, -23.7633591, 2.03175, 12.6335878, 2.03175, 2.3129771, , , , , , , , , , , , , , , , , , , , , , 
0.2398235, -0.0078889, 2.0385, 0.1796265, 2.0385, -0.5728149, 2.0385, 0.7722778, 2.0385, -18.1526718, 2.0385, 14.7099237, 2.0385, -6.3206105, 0.2398235, 0.0035248, 2.0385, -0.6499023, 2.0385, -0.7731323, 2.0385, -0.3247681, 2.0385, -22.8931293, 2.0385, 11.1908398, 2.0385, 2.3587787, , , , , , , , , , , , , , , , , , , , , , 
0.2406176, -0.0075532, 2.04525, 0.1737671, 2.04525, -0.5759888, 2.04525, 0.7739868, 2.04525, -18.4732819, 2.04525, 14.6335878, 2.04525, -6.6259542, 0.2406176, 0.0062104, 2.04525, -0.6433105, 2.04525, -0.774231, 2.04525, -0.3324585, 2.04525, -20.5343513, 2.04525, 7.9312978, 2.04525, 2.5954199, , , , , , , , , , , , , , , , , , , , , , 
0.2414118, -0.0099031, 2.052, 0.1651001, 2.052, -0.5717773, 2.052, 0.770752, 2.052, -18.32061, 2.052, 13.9312973, 2.052, -6.6183205, 0.2414118, 0.0038605, 2.052, -0.6352539, 2.052, -0.7695923, 2.052, -0.3388062, 2.052, -18.480917, 2.052, 6.2137403, 2.052, 2.2671757, , , , , , , , , , , , , , , , , , , , , , 
0.2422059, -0.0119173, 2.05875, 0.1603394, 2.05875, -0.567627, 2.05875, 0.7727661, 2.05875, -17.9770985, 2.05875, 13.1908398, 2.05875, -6.8702292, 0.2422059, 0.0016785, 2.05875, -0.6325073, 2.05875, -0.7591553, 2.05875, -0.3488159, 2.05875, -17.7709923, 2.05875, 6.5648856, 2.05875, 2.1068702, , , , , , , , , , , , , , , , , , , , , , 
0.243, -0.0152743, 2.0655, 0.152771, 2.0655, -0.5591431, 2.0655, 0.7698364, 2.0655, -18.0687027, 2.0655, 11.8854961, 2.0655, -6.9694657, 0.243, -0.0001678, 2.0655, -0.6269531, 2.0655, -0.7518311, 2.0655, -0.3527222, 2.0655, -18.4122143, 2.0655, 8.3053436, 2.0655, 2.0305343, , , , , , , , , , , , , , , , , , , , , , 
0.2437941, -0.0119173, 2.07225, 0.1538696, 2.07225, -0.5551758, 2.07225, 0.7653198, 2.07225, -18.5725193, 2.07225, 10.4732828, 2.07225, -7.480916, 0.2437941, 0.0030213, 2.07225, -0.6227417, 2.07225, -0.7460327, 2.07225, -0.350708, 2.07225, -19.6564884, 2.07225, 9.4885492, 2.07225, 2.5954199, , , , , , , , , , , , , , , , , , , , , , 
0.2445882, -0.008896, 2.079, 0.1576538, 2.079, -0.5606079, 2.079, 0.7678833, 2.079, -18.8473282, 2.079, 9.9083967, 2.079, -7.9389315, 0.2445882, 0.0065461, 2.079, -0.6223145, 2.079, -0.7472534, 2.079, -0.3445435, 2.079, -20.4732819, 2.079, 9.4427481, 2.079, 2.8854961, , , , , , , , , , , , , , , , , , , , , , 
0.2453824, -0.005539, 2.08575, 0.1672974, 2.08575, -0.5628662, 2.08575, 0.7695312, 2.08575, -19.2748089, 2.08575, 9.9312973, 2.08575, -8.2748089, 0.2453824, 0.0077211, 2.08575, -0.621582, 2.08575, -0.7463379, 2.08575, -0.3438721, 2.08575, -20.32061, 2.08575, 8.6870232, 2.08575, 3.1068702, , , , , , , , , , , , , , , , , , , , , , 
0.2461765, -0.002182, 2.0925, 0.1669922, 2.0925, -0.5622559, 2.0925, 0.7722168, 2.0925, -19.2519093, 2.0925, 10.3282442, 2.0925, -8.1526718, 0.2461765, 0.0102388, 2.0925, -0.6175537, 2.0925, -0.7468872, 2.0925, -0.3439331, 2.0925, -19.3358784, 2.0925, 8.198473, 2.0925, 3.2442749, , , , , , , , , , , , , , , , , , , , , , 
0.2469706, -0.0008392, 2.09925, 0.1709595, 2.09925, -0.5632935, 2.09925, 0.7705688, 2.09925, -18.9541988, 2.09925, 10.6564884, 2.09925, -8.160305, 0.2469706, 0.0085603, 2.09925, -0.6170044, 2.09925, -0.7419434, 2.09925, -0.3462524, 2.09925, -18.7175579, 2.09925, 7.9847326, 2.09925, 3.3358779, , , , , , , , , , , , , , , , , , , , , , 
0.2477647, 0.0011749, 2.106, 0.1697998, 2.106, -0.5622559, 2.106, 0.769104, 2.106, -18.6564884, 2.106, 11.3129768, 2.106, -7.9236641, 0.2477647, 0.0065461, 2.106, -0.6135254, 2.106, -0.7369995, 2.106, -0.3466797, 2.106, -18.5419846, 2.106, 8.2977095, 2.106, 3.6641221, , , , , , , , , , , , , , , , , , , , , , 
0.2485588, 0.0015106, 2.11275, 0.1781616, 2.11275, -0.5631714, 2.11275, 0.767395, 2.11275, -18.3511448, 2.11275, 12.0610685, 2.11275, -7.740458, 0.2485588, 0.005539, 2.11275, -0.6087036, 2.11275, -0.7351685, 2.11275, -0.3527222, 2.11275, -18.7633591, 2.11275, 8.9847326, 2.11275, 3.6412213, , , , , , , , , , , , , , , , , , , , , , 
0.2493529, -0.0001678, 2.1195, 0.1847534, 2.1195, -0.5635376, 2.1195, 0.7705688, 2.1195, -18.442749, 2.1195, 12.6335878, 2.1195, -7.7862597, 0.2493529, 0.0082246, 2.1195, -0.6000977, 2.1195, -0.7404785, 2.1195, -0.3525391, 2.1195, -19.4732819, 2.1195, 10.9389315, 2.1195, 2.8320611, , , , , , , , , , , , , , , , , , , , , , 
0.2501471, -0.0023499, 2.12625, 0.1943359, 2.12625, -0.5629272, 2.12625, 0.7670288, 2.12625, -18.519083, 2.12625, 12.8854961, 2.12625, -7.6259542, 0.2501471, 0.012253, 2.12625, -0.5941772, 2.12625, -0.7423706, 2.12625, -0.348938, 2.12625, -20.32061, 2.12625, 14.641221, 2.12625, 1.7862595, , , , , , , , , , , , , , , , , , , , , , 
0.2509412, -0.0006714, 2.133, 0.1992798, 2.133, -0.5653687, 2.133, 0.7647705, 2.133, -18.5877857, 2.133, 13.0305347, 2.133, -7.7175574, 0.2509412, 0.0060426, 2.133, -0.5979614, 2.133, -0.7484131, 2.133, -0.34198, 2.133, -20.9770985, 2.133, 18.67939, 2.133, 0.7938932, , , , , , , , , , , , , , , , , , , , , , 
0.2517353, -0.0062104, 2.13975, 0.2014771, 2.13975, -0.5647583, 2.13975, 0.7645264, 2.13975, -18.641222, 2.13975, 13.2366409, 2.13975, -8.0534353, 0.2517353, -0.0008392, 2.13975, -0.6137695, 2.13975, -0.7479248, 2.13975, -0.3319092, 2.13975, -21.1755733, 2.13975, 21.7480907, 2.13975, 0.0381679, , , , , , , , , , , , , , , , , , , , , , 
0.2525294, -0.0083925, 2.1465, 0.199585, 2.1465, -0.569397, 2.1465, 0.7628784, 2.1465, -18.2519093, 2.1465, 13.9847326, 2.1465, -8.3893127, 0.2525294, 0.0023499, 2.1465, -0.6251221, 2.1465, -0.7460327, 2.1465, -0.3205566, 2.1465, -21.801527, 2.1465, 22.7480907, 2.1465, 0, , , , , , , , , , , , , , , , , , , , , , 
0.2533235, -0.0102388, 2.15325, 0.2028198, 2.15325, -0.5696411, 2.15325, 0.7601318, 2.15325, -18.4274807, 2.15325, 15.3435116, 2.15325, -8.5648851, 0.2533235, 0.005539, 2.15325, -0.6361084, 2.15325, -0.7434082, 2.15325, -0.3113403, 2.15325, -22.2366409, 2.15325, 21.3740463, 2.15325, 0.3206107, , , , , , , , , , , , , , , , , , , , , , 
0.2541176, -0.008896, 2.16, 0.2049561, 2.16, -0.5691528, 2.16, 0.7597046, 2.16, -18.6259537, 2.16, 16.6488552, 2.16, -8.7328243, 0.2541176, 0.0072175, 2.16, -0.6394043, 2.16, -0.7443237, 2.16, -0.3063965, 2.16, -22.1908398, 2.16, 20.2748089, 2.16, 0.4732825, , , , , , , , , , , , , , , , , , , , , , 
0.2549118, -0.0092317, 2.16675, 0.1985474, 2.16675, -0.5647583, 2.16675, 0.7667847, 2.16675, -18.1068707, 2.16675, 17.7862587, 2.16675, -8.2442751, 0.2549118, 0.012253, 2.16675, -0.6419067, 2.16675, -0.7458496, 2.16675, -0.3005371, 2.16675, -21.9847336, 2.16675, 17.7633591, 2.16675, 0.8091603, , , , , , , , , , , , , , , , , , , , , , 
0.2557059, -0.012253, 2.1735, 0.1903076, 2.1735, -0.5587769, 2.1735, 0.7670288, 2.1735, -17.6870232, 2.1735, 17.6870232, 2.1735, -7.5954199, 0.2557059, 0.0193027, 2.1735, -0.6477051, 2.1735, -0.7484741, 2.1735, -0.3014526, 2.1735, -21.0992374, 2.1735, 16.2213745, 2.1735, 1.3740458, , , , , , , , , , , , , , , , , , , , , , 
0.2565, -0.0112459, 2.18025, 0.1826172, 2.18025, -0.5524292, 2.18025, 0.7652588, 2.18025, -17.7633591, 2.18025, 16.396946, 2.18025, -7.1145039, 0.2565, 0.0209812, 2.18025, -0.6466064, 2.18025, -0.7528687, 2.18025, -0.3034058, 2.18025, -20.0916023, 2.18025, 15.5038166, 2.18025, 1.9160305, , , , , , , , , , , , , , , , , , , , , , 
0.2572941, -0.0102388, 2.187, 0.1773682, 2.187, -0.5491333, 2.187, 0.7651978, 2.187, -17.839695, 2.187, 15.3664122, 2.187, -6.7633586, 0.2572941, 0.0216526, 2.187, -0.651123, 2.187, -0.7530518, 2.187, -0.3051147, 2.187, -19.358778, 2.187, 14.7557249, 2.187, 2.519084, , , , , , , , , , , , , , , , , , , , , , 
0.2580882, -0.0102388, 2.19375, 0.1778564, 2.19375, -0.5513306, 2.19375, 0.7640381, 2.19375, -18.0992374, 2.19375, 13.8473282, 2.19375, -6.6259542, 0.2580882, 0.0159457, 2.19375, -0.6574097, 2.19375, -0.7543335, 2.19375, -0.3076782, 2.19375, -18.5343513, 2.19375, 13.5877867, 2.19375, 3.3129771, , , , , , , , , , , , , , , , , , , , , , 
0.2588824, -0.0092317, 2.2005, 0.175354, 2.2005, -0.5533447, 2.2005, 0.7669067, 2.2005, -18.2824421, 2.2005, 12.8931293, 2.2005, -6.5648856, 0.2588824, 0.0132601, 2.2005, -0.6619263, 2.2005, -0.7531738, 2.2005, -0.3098145, 2.2005, -18.1908398, 2.2005, 11.7633591, 2.2005, 3.5343511, , , , , , , , , , , , , , , , , , , , , , 
0.2596765, -0.0087282, 2.20725, 0.1755371, 2.20725, -0.5533447, 2.20725, 0.7731323, 2.20725, -18.9312973, 2.20725, 10.801527, 2.20725, -6.5267177, 0.2596765, 0.0105745, 2.20725, -0.6588135, 2.20725, -0.7521362, 2.20725, -0.3136597, 2.20725, -17.8167934, 2.20725, 9.5343513, 2.20725, 3.1603053, , , , , , , , , , , , , , , , , , , , , , 
0.2604706, -0.0104067, 2.214, 0.1801758, 2.214, -0.5557861, 2.214, 0.7775879, 2.214, -19.1679382, 2.214, 9.1221371, 2.214, -6.1679387, 0.2604706, 0.011078, 2.214, -0.6607056, 2.214, -0.7540283, 2.214, -0.3179932, 2.214, -17.3664131, 2.214, 7.5648856, 2.214, 2.8778627, , , , , , , , , , , , , , , , , , , , , , 
0.2612647, -0.0063783, 2.22075, 0.178772, 2.22075, -0.5539551, 2.22075, 0.7766113, 2.22075, -19.2519093, 2.22075, 7.4351144, 2.22075, -5.9923663, 0.2612647, 0.0132601, 2.22075, -0.6578979, 2.22075, -0.748291, 2.22075, -0.3294067, 2.22075, -17.0687027, 2.22075, 5.6335878, 2.22075, 2.221374, , , , , , , , , , , , , , , , , , , , , , 
0.2620588, -0.012253, 2.2275, 0.1794434, 2.2275, -0.5529785, 2.2275, 0.7798462, 2.2275, -19.4198475, 2.2275, 6.0992365, 2.2275, -5.7480917, 0.2620588, 0.0159457, 2.2275, -0.6629639, 2.2275, -0.746582, 2.2275, -0.3380127, 2.2275, -16.7557259, 2.2275, 3.8931298, 2.2275, 1.9847329, , , , , , , , , , , , , , , , , , , , , , 
0.2628529, -0.018967, 2.23425, 0.178833, 2.23425, -0.5488281, 2.23425, 0.7845459, 2.23425, -19.8473282, 2.23425, 5.3053436, 2.23425, -5.3816795, 0.2628529, 0.0169528, 2.23425, -0.6669922, 2.23425, -0.7374878, 2.23425, -0.3398438, 2.23425, -17.2137413, 2.23425, 2.9541984, 2.23425, 1.9923664, , , , , , , , , , , , , , , , , , , , , , 
0.2636471, -0.017792, 2.241, 0.1796265, 2.241, -0.5408936, 2.241, 0.7888184, 2.241, -20.1526718, 2.241, 4.5877862, 2.241, -5.1755724, 0.2636471, 0.0226596, 2.241, -0.6610107, 2.241, -0.7335815, 2.241, -0.340271, 2.241, -17.9694653, 2.241, 2.648855, 2.241, 2.0534351, , , , , , , , , , , , , , , , , , , , , , 
0.2644412, -0.0179599, 2.24775, 0.1884155, 2.24775, -0.5372314, 2.24775, 0.7896729, 2.24775, -20.4274807, 2.24775, 4.3358779, 2.24775, -5.0839696, 0.2644412, 0.0193027, 2.24775, -0.6590576, 2.24775, -0.7320557, 2.24775, -0.3372192, 2.24775, -18.3129768, 2.24775, 3.1145039, 2.24775, 2.2366412, , , , , , , , , , , , , , , , , , , , , , 
0.2652353, -0.0132601, 2.2545, 0.1956787, 2.2545, -0.5340576, 2.2545, 0.7850952, 2.2545, -20.6641216, 2.2545, 4.4045801, 2.2545, -5.2748094, 0.2652353, 0.017792, 2.2545, -0.6519775, 2.2545, -0.7325439, 2.2545, -0.3308105, 2.2545, -18.3282452, 2.2545, 4.1221375, 2.2545, 1.9236641, , , , , , , , , , , , , , , , , , , , , , 
0.2660294, -0.0072175, 2.26125, 0.2047729, 2.26125, -0.5324707, 2.26125, 0.7828979, 2.26125, -20.8702297, 2.26125, 4.7557254, 2.26125, -5.9083967, 0.2660294, 0.0199741, 2.26125, -0.6434326, 2.26125, -0.7319336, 2.26125, -0.3286133, 2.26125, -18, 2.26125, 5.1908398, 2.26125, 1.5496184, , , , , , , , , , , , , , , , , , , , , , 
0.2668235, -0.0082246, 2.268, 0.2143555, 2.268, -0.5326538, 2.268, 0.7796021, 2.268, -21.4961834, 2.268, 5.2442746, 2.268, -6.6641221, 0.2668235, 0.01561, 2.268, -0.6328735, 2.268, -0.7323608, 2.268, -0.3297729, 2.268, -17.8473282, 2.268, 6.6564884, 2.268, 0.5496183, , , , , , , , , , , , , , , , , , , , , , 
0.2676176, -0.0082246, 2.27475, 0.2167358, 2.27475, -0.5391235, 2.27475, 0.776123, 2.27475, -22.160305, 2.27475, 5.8778625, 2.27475, -7.4732823, 0.2676176, 0.014435, 2.27475, -0.6286621, 2.27475, -0.7374878, 2.27475, -0.3312378, 2.27475, -17.8625946, 2.27475, 8.5496187, 2.27475, -0.6259542, , , , , , , , , , , , , , , , , , , , , , 
0.2684118, -0.005539, 2.2815, 0.2200317, 2.2815, -0.5500488, 2.2815, 0.776123, 2.2815, -22.9083977, 2.2815, 7.2137403, 2.2815, -8.038168, 0.2684118, 0.0186313, 2.2815, -0.625, 2.2815, -0.736084, 2.2815, -0.3348389, 2.2815, -18.1755733, 2.2815, 9.3816795, 2.2815, -1.0152671, , , , , , , , , , , , , , , , , , , , , , 
0.2692059, -0.0045319, 2.28825, 0.2208252, 2.28825, -0.5566406, 2.28825, 0.776001, 2.28825, -23.4351139, 2.28825, 9.3816795, 2.28825, -8.480916, 0.2692059, 0.0226596, 2.28825, -0.6234741, 2.28825, -0.7364502, 2.28825, -0.3378906, 2.28825, -18.9083977, 2.28825, 11.0763359, 2.28825, -1.9770992, , , , , , , , , , , , , , , , , , , , , , 
0.27, -0.0062104, 2.295, 0.2115479, 2.295, -0.5640869, 2.295, 0.7786865, 2.295, -23.3511448, 2.295, 11.6183205, 2.295, -8.5114508, 0.27, 0.018967, 2.295, -0.6287842, 2.295, -0.7418213, 2.295, -0.3349609, 2.295, -19.9923668, 2.295, 12.4961834, 2.295, -2.4045801, , , , , , , , , , , , , , , , , , , , , , 
0.2707941, -0.0018463, 2.30175, 0.2026978, 2.30175, -0.5670776, 2.30175, 0.7794189, 2.30175, -23.0076332, 2.30175, 13.2900763, 2.30175, -8.1374044, 0.2707941, 0.0146029, 2.30175, -0.6287231, 2.30175, -0.7427979, 2.30175, -0.3336792, 2.30175, -20.5496178, 2.30175, 13.198473, 2.30175, -2.4351146, , , , , , , , , , , , , , , , , , , , , , 
0.2715882, -0.0003357, 2.3085, 0.1965332, 2.3085, -0.5645752, 2.3085, 0.774292, 2.3085, -22.7099228, 2.3085, 13.9923668, 2.3085, -7.9160304, 0.2715882, 0.014435, 2.3085, -0.6311035, 2.3085, -0.7442627, 2.3085, -0.3303833, 2.3085, -20.5725193, 2.3085, 13.0839691, 2.3085, -1.9312977, , , , , , , , , , , , , , , , , , , , , , 
0.2723824, 0.0011749, 2.31525, 0.1890259, 2.31525, -0.5674438, 2.31525, 0.7665405, 2.31525, -22.6717548, 2.31525, 14.160305, 2.31525, -7.9083967, 0.2723824, 0.0159457, 2.31525, -0.6275635, 2.31525, -0.7476807, 2.31525, -0.322876, 2.31525, -20.6488552, 2.31525, 12.717557, 2.31525, -1.4274809, , , , , , , , , , , , , , , , , , , , , , 
0.2731765, 0.0025177, 2.322, 0.1864014, 2.322, -0.5710449, 2.322, 0.7628784, 2.322, -23.038168, 2.322, 14.3893127, 2.322, -7.9923663, 0.2731765, 0.0125887, 2.322, -0.6283569, 2.322, -0.7515869, 2.322, -0.3202515, 2.322, -20.2595425, 2.322, 12.2290077, 2.322, -0.7862595, , , , , , , , , , , , , , , , , , , , , , 
0.2739706, 0.0005035, 2.32875, 0.185791, 2.32875, -0.5705566, 2.32875, 0.7615967, 2.32875, -23.1068707, 2.32875, 14.717557, 2.32875, -8.3816795, 0.2739706, 0.0132601, 2.32875, -0.62677, 2.32875, -0.7592773, 2.32875, -0.3202515, 2.32875, -19.7938938, 2.32875, 11.4656487, 2.32875, -0.480916, , , , , , , , , , , , , , , , , , , , , , 
0.2747647, 0.0008392, 2.3355, 0.1856689, 2.3355, -0.5775757, 2.3355, 0.7637939, 2.3355, -23.4503822, 2.3355, 15.2595415, 2.3355, -8.8854961, 0.2747647, 0.012253, 2.3355, -0.624939, 2.3355, -0.7662964, 2.3355, -0.3234253, 2.3355, -19.2061062, 2.3355, 10.6717558, 2.3355, -0.129771, , , , , , , , , , , , , , , , , , , , , , 
0.2755588, -0.0041962, 2.34225, 0.1773682, 2.34225, -0.5817261, 2.34225, 0.7609863, 2.34225, -23.7709923, 2.34225, 15.8778629, 2.34225, -9.7022905, 0.2755588, 0.0125887, 2.34225, -0.6257935, 2.34225, -0.7715454, 2.34225, -0.326416, 2.34225, -19.1221371, 2.34225, 9.5572519, 2.34225, 0.4045801, , , , , , , , , , , , , , , , , , , , , , 
0.2763529, -0.0058747, 2.349, 0.1652832, 2.349, -0.5866699, 2.349, 0.7600098, 2.349, -24.9389305, 2.349, 16, 2.349, -10.7099237, 0.2763529, 0.0146029, 2.349, -0.6219482, 2.349, -0.7763672, 2.349, -0.3302612, 2.349, -18.7709923, 2.349, 8.0763359, 2.349, 0.7251908, , , , , , , , , , , , , , , , , , , , , , 
0.2771471, -0.0062104, 2.35575, 0.1556396, 2.35575, -0.5962524, 2.35575, 0.7572632, 2.35575, -25.67939, 2.35575, 16.1068707, 2.35575, -12.0687027, 0.2771471, 0.0152743, 2.35575, -0.6187744, 2.35575, -0.7775269, 2.35575, -0.3317261, 2.35575, -18.8625946, 2.35575, 6.6106873, 2.35575, 1.1679389, , , , , , , , , , , , , , , , , , , , , , 
0.2779412, -0.0085603, 2.3625, 0.1471558, 2.3625, -0.6071777, 2.3625, 0.7490234, 2.3625, -25.7404575, 2.3625, 16.2442741, 2.3625, -13.3740454, 0.2779412, 0.0104067, 2.3625, -0.6065674, 2.3625, -0.7822266, 2.3625, -0.3355103, 2.3625, -19.2061062, 2.3625, 6.1679387, 2.3625, 1.3664122, , , , , , , , , , , , , , , , , , , , , , 
0.2787353, -0.0099031, 2.36925, 0.1383057, 2.36925, -0.6071167, 2.36925, 0.7396851, 2.36925, -25.4198475, 2.36925, 15.4656487, 2.36925, -13.9160309, 0.2787353, 0.0062104, 2.36925, -0.5986328, 2.36925, -0.7875977, 2.36925, -0.3400269, 2.36925, -19.1297703, 2.36925, 6.4961834, 2.36925, 0.6870229, , , , , , , , , , , , , , , , , , , , , , 
0.2795294, -0.0135958, 2.376, 0.132019, 2.376, -0.6081543, 2.376, 0.7383423, 2.376, -25.7633591, 2.376, 13.7251911, 2.376, -13.839695, 0.2795294, 0.0023499, 2.376, -0.5892944, 2.376, -0.7888184, 2.376, -0.3435059, 2.376, -18.961832, 2.376, 7.4045801, 2.376, -0.2671756, , , , , , , , , , , , , , , , , , , , , , 
0.2803235, -0.0223239, 2.38275, 0.1337891, 2.38275, -0.6054688, 2.38275, 0.7385864, 2.38275, -25.8549614, 2.38275, 10.1450386, 2.38275, -11.7099237, 0.2803235, 0.0011749, 2.38275, -0.5955811, 2.38275, -0.7944946, 2.38275, -0.3411255, 2.38275, -18.4274807, 2.38275, 7.9923663, 2.38275, -1.7938931, , , , , , , , , , , , , , , , , , , , , , 
0.2811176, -0.0236667, 2.3895, 0.1522827, 2.3895, -0.6077271, 2.3895, 0.7363281, 2.3895, -25.7480907, 2.3895, 5.1908398, 2.3895, -8.4351149, 0.2811176, 0.0038605, 2.3895, -0.6030273, 2.3895, -0.7952271, 2.3895, -0.3354492, 2.3895, -18.0763359, 2.3895, 8.4427481, 2.3895, -3.4274809, , , , , , , , , , , , , , , , , , , , , , 
0.2819118, -0.0218204, 2.39625, 0.1846924, 2.39625, -0.607666, 2.39625, 0.7301025, 2.39625, -25.4885502, 2.39625, -0.2366412, 2.39625, -5.6641221, 0.2819118, 0.0072175, 2.39625, -0.6152344, 2.39625, -0.793457, 2.39625, -0.319519, 2.39625, -17.7022896, 2.39625, 8.7862597, 2.39625, -4.2977099, , , , , , , , , , , , , , , , , , , , , , 
0.2827059, -0.0199741, 2.403, 0.2185669, 2.403, -0.6089478, 2.403, 0.7231445, 2.403, -24.9312973, 2.403, -3.1984732, 2.403, -3.648855, 0.2827059, 0.0115816, 2.403, -0.6216431, 2.403, -0.786377, 2.403, -0.3008423, 2.403, -17.6717548, 2.403, 8.4656487, 2.403, -4.4351144, , , , , , , , , , , , , , , , , , , , , , 
0.2835, -0.0130922, 2.40975, 0.2471313, 2.40975, -0.6065063, 2.40975, 0.713562, 2.40975, -23.7099228, 2.40975, -2.8244274, 2.40975, -2.5725191, 0.2835, 0.0105745, 2.40975, -0.6161499, 2.40975, -0.7786865, 2.40975, -0.2880859, 2.40975, -17.7862587, 2.40975, 8.0610685, 2.40975, -4.3053436, , , , , , , , , , , , , , , , , , , , , , 
0.2842941, -0.0068818, 2.4165, 0.2681274, 2.4165, -0.5986328, 2.4165, 0.7022705, 2.4165, -22.32061, 2.4165, 0.2519084, 2.4165, -2.2824428, 0.2842941, 0.0082246, 2.4165, -0.6019287, 2.4165, -0.7657471, 2.4165, -0.270813, 2.4165, -17.9770985, 2.4165, 7.2824426, 2.4165, -3.7022901, , , , , , , , , , , , , , , , , , , , , , 
0.2850882, -0.0068818, 2.42325, 0.2741699, 2.42325, -0.5949097, 2.42325, 0.7036743, 2.42325, -21.8625946, 2.42325, 2.6717558, 2.42325, -2.480916, 0.2850882, 0.0092317, 2.42325, -0.5824585, 2.42325, -0.7529297, 2.42325, -0.2575684, 2.42325, -18.0458012, 2.42325, 6.7480917, 2.42325, -3.3435113, , , , , , , , , , , , , , , , , , , , , , 
0.2858824, -0.0045319, 2.43, 0.2666016, 2.43, -0.5827026, 2.43, 0.7095337, 2.43, -20.7099228, 2.43, 8.3511448, 2.43, -3.9389312, 0.2858824, 0.0099031, 2.43, -0.5632324, 2.43, -0.7443237, 2.43, -0.257019, 2.43, -18.4961834, 2.43, 7.8167939, 2.43, -3.2900763, , , , , , , , , , , , , , , , , , , , , , 
0.2866765, -0.0050355, 2.43675, 0.2550049, 2.43675, -0.5828857, 2.43675, 0.7150879, 2.43675, -20.7633591, 2.43675, 13.6946564, 2.43675, -5.8931298, 0.2866765, 0.0125887, 2.43675, -0.5619507, 2.43675, -0.7385864, 2.43675, -0.2583008, 2.43675, -18.8091602, 2.43675, 9.9160309, 2.43675, -3.4885497, , , , , , , , , , , , , , , , , , , , , , 
0.2874706, -0.005539, 2.4435, 0.2264404, 2.4435, -0.5853271, 2.4435, 0.7334595, 2.4435, -20.9389305, 2.4435, 16.9465656, 2.4435, -7.8778625, 0.2874706, 0.0191348, 2.4435, -0.5778809, 2.4435, -0.7475586, 2.4435, -0.2657471, 2.4435, -19.3893127, 2.4435, 11.6030531, 2.4435, -3.7938931, , , , , , , , , , , , , , , , , , , , , , 
