Application:, Trigno Discover (2.0.1.2)
Date/Time:, 7/3/2025 10:45:47 AM
Collection Length (seconds):, 44.847
Bicep_R (83254), , , , , , , , , , , , , , Tricep_R (83087)
sensor mode: 50, , , , , , , , , , , , , , sensor mode: 50
EMG 1 Time Series (s), EMG 1 (mV), ACC X Time Series (s), ACC X (G), ACC Y Time Series (s), ACC Y (G), ACC Z Time Series (s), ACC Z (G), GYRO X Time Series (s), GYRO X (deg/s), GYRO Y Time Series (s), GYRO Y (deg/s), GYRO Z Time Series (s), GYRO Z (deg/s), EMG 1 Time Series (s), EMG 1 (mV), ACC X Time Series (s), ACC X (G), ACC Y Time Series (s), ACC Y (G), ACC Z Time Series (s), ACC Z (G), GYRO X Time Series (s), GYRO X (deg/s), GYRO Y Time Series (s), GYRO Y (deg/s), GYRO Z Time Series (s), GYRO Z (deg/s)
, 1259.2593 Hz, , 148.1481 Hz, , 148.1481 Hz, , 148.1481 Hz, , 148.1481 Hz, , 148.1481 Hz, , 148.1481 Hz, , 1259.2593 Hz, , 148.1481 Hz, , 148.1481 Hz, , 148.1481 Hz, , 148.1481 Hz, , 148.1481 Hz, , 148.1481 Hz
, 0.0007941176470588235 s, , 0.00675 s, , 0.00675 s, , 0.00675 s, , 0.00675 s, , 0.00675 s, , 0.00675 s, , 0.0007941176470588235 s, , 0.00675 s, , 0.00675 s, , 0.00675 s, , 0.00675 s, , 0.00675 s, , 0.00675 s, , Type, Name, Label, Time (s), , Pair, E1, E2, T1, T2, V1, V2, Sensor, Channel, Units, Delta T, RMS, PKPK, Peak Value, TPK, Integral
0, -0.0125887, 0, -0.1467285, 0, -0.5236816, 0, 0.8029175, 0, -15.9160309, 0, 13.5801525, 0, -4.5648856, 0, 0.0159457, 0, -0.6121826, 0, -0.7015991, 0, -0.4508667, 0, -23.801527, 0, 10.2900763, 0, 2.8167939, , , , , , , , , , , , , , , , , , , , , , 
0.0007941, -0.0142672, 0.00675, -0.1429443, 0.00675, -0.5237427, 0.00675, 0.8025513, 0.00675, -15.8931293, 0.00675, 14.5038166, 0.00675, -4.3511453, 0.0007941, 0.0142672, 0.00675, -0.6123047, 0.00675, -0.6992188, 0.00675, -0.4454956, 0.00675, -23.641222, 0.00675, 11.8854961, 0.00675, 2.0839694, , , , , , , , , , , , , , , , , , , , , , 
0.0015882, -0.0132601, 0.0135, -0.1430054, 0.0135, -0.5213623, 0.0135, 0.8030396, 0.0135, -15.9923668, 0.0135, 14.839695, 0.0135, -4.2137403, 0.0015882, 0.0146029, 0.0135, -0.6173706, 0.0135, -0.6959229, 0.0135, -0.4361572, 0.0135, -23.6564884, 0.0135, 12.3053436, 0.0135, 1.4885496, , , , , , , , , , , , , , , , , , , , , , 
0.0023824, -0.0125887, 0.02025, -0.1433716, 0.02025, -0.5181274, 0.02025, 0.8002319, 0.02025, -15.7404585, 0.02025, 14.8931293, 0.02025, -4.0916033, 0.0023824, 0.0152743, 0.02025, -0.6213989, 0.02025, -0.6987305, 0.02025, -0.4315796, 0.02025, -23.557251, 0.02025, 11.3893127, 0.02025, 1.3282443, , , , , , , , , , , , , , , , , , , , , , 
0.0031765, -0.0092317, 0.027, -0.1456909, 0.027, -0.5189209, 0.027, 0.8007202, 0.027, -15.8931293, 0.027, 14.7786255, 0.027, -4.3358779, 0.0031765, 0.0115816, 0.027, -0.6270142, 0.027, -0.6989136, 0.027, -0.4290161, 0.027, -23.519083, 0.027, 10.2442751, 0.027, 1.3358779, , , , , , , , , , , , , , , , , , , , , , 
0.0039706, -0.0068818, 0.03375, -0.1478271, 0.03375, -0.5181274, 0.03375, 0.7990112, 0.03375, -16.0916023, 0.03375, 14.4732828, 0.03375, -4.3358779, 0.0039706, 0.0085603, 0.03375, -0.6307373, 0.03375, -0.7016602, 0.03375, -0.4333496, 0.03375, -23.6717548, 0.03375, 9.7099237, 0.03375, 1.7251909, , , , , , , , , , , , , , , , , , , , , , 
0.0047647, -0.0109102, 0.0405, -0.1491699, 0.0405, -0.5181885, 0.0405, 0.8015747, 0.0405, -16.1297703, 0.0405, 14.320611, 0.0405, -4.0839696, 0.0047647, 0.0085603, 0.0405, -0.6347046, 0.0405, -0.699646, 0.0405, -0.4358521, 0.0405, -24.1450386, 0.0405, 9.6335878, 0.0405, 2.2748091, , , , , , , , , , , , , , , , , , , , , , 
0.0055588, -0.0082246, 0.04725, -0.1505737, 0.04725, -0.5162354, 0.04725, 0.7999268, 0.04725, -16.0839691, 0.04725, 13.9465647, 0.04725, -3.8625953, 0.0055588, 0.0072175, 0.04725, -0.6343384, 0.04725, -0.7024536, 0.04725, -0.4405518, 0.04725, -24.2442741, 0.04725, 9.282443, 0.04725, 2.8778627, , , , , , , , , , , , , , , , , , , , , , 
0.0063529, -0.0031891, 0.054, -0.1450195, 0.054, -0.5141602, 0.054, 0.7987061, 0.054, -16.3664131, 0.054, 13.3664122, 0.054, -3.7099237, 0.0063529, 0.0092317, 0.054, -0.6315918, 0.054, -0.7033691, 0.054, -0.442627, 0.054, -24.0229015, 0.054, 8.7862597, 0.054, 3.259542, , , , , , , , , , , , , , , , , , , , , , 
0.0071471, 0.002182, 0.06075, -0.1465454, 0.06075, -0.5155029, 0.06075, 0.7999268, 0.06075, -16.6641216, 0.06075, 13.0152674, 0.06075, -3.6183207, 0.0071471, 0.0109102, 0.06075, -0.6296387, 0.06075, -0.7018433, 0.06075, -0.4457397, 0.06075, -23.7786255, 0.06075, 8.358779, 0.06075, 3.1068702, , , , , , , , , , , , , , , , , , , , , , 
0.0079412, 0.0052033, 0.0675, -0.1467285, 0.0675, -0.517395, 0.0675, 0.8021851, 0.0675, -16.8167934, 0.0675, 12.3740454, 0.0675, -3.9160306, 0.0079412, 0.0102388, 0.0675, -0.6193848, 0.0675, -0.7044067, 0.0675, -0.4421387, 0.0675, -23.2824421, 0.0675, 8.7480917, 0.0675, 2.5343511, , , , , , , , , , , , , , , , , , , , , , 
0.0087353, 0.0005035, 0.07425, -0.1438599, 0.07425, -0.5184326, 0.07425, 0.8033447, 0.07425, -17.0305347, 0.07425, 11.7633591, 0.07425, -4.0305343, 0.0087353, 0.0083925, 0.07425, -0.6179199, 0.07425, -0.7053223, 0.07425, -0.4388428, 0.07425, -23.0992374, 0.07425, 9.160305, 0.07425, 2.4045801, , , , , , , , , , , , , , , , , , , , , , 
0.0095294, -0.0038605, 0.081, -0.1456909, 0.081, -0.520874, 0.081, 0.8039551, 0.081, -17.1832066, 0.081, 12.1221371, 0.081, -4.1374044, 0.0095294, 0.0070497, 0.081, -0.6223145, 0.081, -0.7063599, 0.081, -0.4356689, 0.081, -22.801527, 0.081, 10.0763359, 0.081, 2.0458016, , , , , , , , , , , , , , , , , , , , , , 
0.0103235, -0.0045319, 0.08775, -0.1421509, 0.08775, -0.5217285, 0.08775, 0.8012695, 0.08775, -16.7480907, 0.08775, 12.3740454, 0.08775, -4.1068702, 0.0103235, 0.0092317, 0.08775, -0.6262817, 0.08775, -0.7074585, 0.08775, -0.4290161, 0.08775, -22.8625946, 0.08775, 10.9465647, 0.08775, 1.778626, , , , , , , , , , , , , , , , , , , , , , 
0.0111176, -0.0048676, 0.0945, -0.1419067, 0.0945, -0.5172729, 0.0945, 0.7967529, 0.0945, -16.7480907, 0.0945, 12.1832066, 0.0945, -4.2900763, 0.0111176, 0.0105745, 0.0945, -0.6369629, 0.0945, -0.7006226, 0.0945, -0.427063, 0.0945, -22.8549614, 0.0945, 10.6183205, 0.0945, 1.7557251, , , , , , , , , , , , , , , , , , , , , , 
0.0119118, -0.0028534, 0.10125, -0.1375122, 0.10125, -0.5167847, 0.10125, 0.8015137, 0.10125, -17.1297703, 0.10125, 11.2290077, 0.10125, -4.6259542, 0.0119118, 0.0129244, 0.10125, -0.6390991, 0.10125, -0.7000122, 0.10125, -0.4290161, 0.10125, -22.7328243, 0.10125, 9.4580154, 0.10125, 1.7633588, , , , , , , , , , , , , , , , , , , , , , 
0.0127059, -0.0057069, 0.108, -0.1386108, 0.108, -0.5128174, 0.108, 0.8009644, 0.108, -17.160305, 0.108, 10.9389315, 0.108, -4.7022901, 0.0127059, 0.0142672, 0.108, -0.6429443, 0.108, -0.7037964, 0.108, -0.4315796, 0.108, -22.839695, 0.108, 8.1679392, 0.108, 1.8473282, , , , , , , , , , , , , , , , , , , , , , 
0.0135, -0.0068818, 0.11475, -0.1378784, 0.11475, -0.5137329, 0.11475, 0.8030396, 0.11475, -17.4045811, 0.11475, 11.1450386, 0.11475, -4.7022901, 0.0135, 0.0179599, 0.11475, -0.635437, 0.11475, -0.7006836, 0.11475, -0.4362793, 0.11475, -22.801527, 0.11475, 6.7480917, 0.11475, 1.8625954, , , , , , , , , , , , , , , , , , , , , , 
0.0142941, -0.0070497, 0.1215, -0.1380615, 0.1215, -0.5115356, 0.1215, 0.8005371, 0.1215, -17.358778, 0.1215, 11.3129768, 0.1215, -4.7557254, 0.0142941, 0.0172885, 0.1215, -0.6318359, 0.1215, -0.7034912, 0.1215, -0.4356689, 0.1215, -22.5496178, 0.1215, 6.2671757, 0.1215, 2.1832061, , , , , , , , , , , , , , , , , , , , , , 
0.0150882, -0.011078, 0.12825, -0.1420898, 0.12825, -0.5137939, 0.12825, 0.8065186, 0.12825, -17.6106873, 0.12825, 11.3664122, 0.12825, -4.778626, 0.0150882, 0.0172885, 0.12825, -0.6286011, 0.12825, -0.6965942, 0.12825, -0.4351807, 0.12825, -22.1908398, 0.12825, 6.6030536, 0.12825, 2.5343511, , , , , , , , , , , , , , , , , , , , , , 
0.0158824, -0.0115816, 0.135, -0.1477051, 0.135, -0.5144043, 0.135, 0.8046875, 0.135, -17.1679382, 0.135, 11.2366409, 0.135, -4.9160304, 0.0158824, 0.0166171, 0.135, -0.6268921, 0.135, -0.6968994, 0.135, -0.4359741, 0.135, -21.8625946, 0.135, 7.038168, 0.135, 2.961832, , , , , , , , , , , , , , , , , , , , , , 
0.0166765, -0.0102388, 0.14175, -0.1448364, 0.14175, -0.5159912, 0.14175, 0.8035889, 0.14175, -16.9465656, 0.14175, 11.4045801, 0.14175, -4.740458, 0.0166765, 0.0149386, 0.14175, -0.6246338, 0.14175, -0.6937866, 0.14175, -0.4400024, 0.14175, -21.9083977, 0.14175, 7.1450381, 0.14175, 3.1450381, , , , , , , , , , , , , , , , , , , , , , 
0.0174706, -0.0135958, 0.1485, -0.1491089, 0.1485, -0.5164185, 0.1485, 0.8041992, 0.1485, -17.0458012, 0.1485, 11.3816795, 0.1485, -4.7099237, 0.0174706, 0.0139315, 0.1485, -0.6191406, 0.1485, -0.6968994, 0.1485, -0.4439087, 0.1485, -22.1526718, 0.1485, 6.7480917, 0.1485, 3.3206108, , , , , , , , , , , , , , , , , , , , , , 
0.0182647, -0.0151064, 0.15525, -0.147583, 0.15525, -0.5195312, 0.15525, 0.8013916, 0.15525, -17.0839691, 0.15525, 11.5954199, 0.15525, -4.3969464, 0.0182647, 0.0146029, 0.15525, -0.6144409, 0.15525, -0.6969604, 0.15525, -0.4447632, 0.15525, -22.5725193, 0.15525, 6.3587785, 0.15525, 3.2900763, , , , , , , , , , , , , , , , , , , , , , 
0.0190588, -0.0085603, 0.162, -0.1428223, 0.162, -0.522522, 0.162, 0.7990112, 0.162, -16.641222, 0.162, 11.7480917, 0.162, -4.2290077, 0.0190588, 0.0139315, 0.162, -0.6106567, 0.162, -0.6992188, 0.162, -0.4480591, 0.162, -23.0152664, 0.162, 6.8549619, 0.162, 2.9312978, , , , , , , , , , , , , , , , , , , , , , 
0.0198529, -0.0063783, 0.16875, -0.1397705, 0.16875, -0.5206299, 0.16875, 0.8002319, 0.16875, -16.4122143, 0.16875, 11.5114508, 0.16875, -4.0763359, 0.0198529, 0.0172885, 0.16875, -0.6082153, 0.16875, -0.7008057, 0.16875, -0.4504395, 0.16875, -22.8854961, 0.16875, 8.2366409, 0.16875, 2.1984732, , , , , , , , , , , , , , , , , , , , , , 
0.0206471, -0.0052033, 0.1755, -0.1379395, 0.1755, -0.5202026, 0.1755, 0.7979126, 0.1755, -16.2977104, 0.1755, 11.519084, 0.1755, -3.9923663, 0.0206471, 0.0206455, 0.1755, -0.6098022, 0.1755, -0.703125, 0.1755, -0.4443359, 0.1755, -22.9007626, 0.1755, 10.480916, 0.1755, 1.5648855, , , , , , , , , , , , , , , , , , , , , , 
0.0214412, -0.0052033, 0.18225, -0.137207, 0.18225, -0.5161743, 0.18225, 0.7982178, 0.18225, -16.519083, 0.18225, 11.480916, 0.18225, -4.0992365, 0.0214412, 0.0193027, 0.18225, -0.6201782, 0.18225, -0.7058105, 0.18225, -0.4379272, 0.18225, -22.9160309, 0.18225, 11.8702288, 0.18225, 1.1526718, , , , , , , , , , , , , , , , , , , , , , 
0.0222353, -0.0095674, 0.189, -0.1343384, 0.189, -0.5194092, 0.189, 0.7999878, 0.189, -16.8702297, 0.189, 12.3816795, 0.189, -4.1832061, 0.0222353, 0.0166171, 0.189, -0.6291504, 0.189, -0.7056274, 0.189, -0.4294434, 0.189, -22.8778629, 0.189, 12.1526718, 0.189, 0.908397, , , , , , , , , , , , , , , , , , , , , , 
0.0230294, -0.0082246, 0.19575, -0.1317139, 0.19575, -0.5211182, 0.19575, 0.8044434, 0.19575, -17.0458012, 0.19575, 13.038168, 0.19575, -4.1221375, 0.0230294, 0.0115816, 0.19575, -0.6350098, 0.19575, -0.7091675, 0.19575, -0.4243164, 0.19575, -23.1068707, 0.19575, 11.2137403, 0.19575, 0.778626, , , , , , , , , , , , , , , , , , , , , , 
0.0238235, -0.0102388, 0.2025, -0.1365967, 0.2025, -0.5265503, 0.2025, 0.8016357, 0.2025, -16.7862587, 0.2025, 13.7709923, 0.2025, -4.1297708, 0.0238235, 0.012253, 0.2025, -0.6364136, 0.2025, -0.7070312, 0.2025, -0.4222412, 0.2025, -23.0839691, 0.2025, 10.3053436, 0.2025, 0.7938932, , , , , , , , , , , , , , , , , , , , , , 
0.0246176, -0.0104067, 0.20925, -0.1415405, 0.20925, -0.5256958, 0.20925, 0.803772, 0.20925, -16.5725193, 0.20925, 13.717557, 0.20925, -4.1374044, 0.0246176, 0.0142672, 0.20925, -0.6361084, 0.20925, -0.7050781, 0.20925, -0.4228516, 0.20925, -22.9083977, 0.20925, 8.1374044, 0.20925, 0.7022901, , , , , , , , , , , , , , , , , , , , , , 
0.0254118, -0.0082246, 0.216, -0.144104, 0.216, -0.5221558, 0.216, 0.8022461, 0.216, -15.9770994, 0.216, 13.0916033, 0.216, -4.1221375, 0.0254118, 0.0132601, 0.216, -0.6297607, 0.216, -0.7055054, 0.216, -0.4284668, 0.216, -22.3053436, 0.216, 5.9923663, 0.216, 0.7480916, , , , , , , , , , , , , , , , , , , , , , 
0.0262059, -0.0109102, 0.22275, -0.1478882, 0.22275, -0.515564, 0.22275, 0.8001099, 0.22275, -15.5419846, 0.22275, 11.7099237, 0.22275, -4.4122138, 0.0262059, 0.0129244, 0.22275, -0.628418, 0.22275, -0.703125, 0.22275, -0.4359131, 0.22275, -21.4580154, 0.22275, 4.3664122, 0.22275, 1.1679389, , , , , , , , , , , , , , , , , , , , , , 
0.027, -0.0146029, 0.2295, -0.149231, 0.2295, -0.5145874, 0.2295, 0.8010254, 0.2295, -15.5725193, 0.2295, 10.3053436, 0.2295, -4.3969464, 0.027, 0.0135958, 0.2295, -0.6273804, 0.2295, -0.6986694, 0.2295, -0.4395142, 0.2295, -21.1221371, 0.2295, 4.6259542, 0.2295, 1.7862595, , , , , , , , , , , , , , , , , , , , , , 
0.0277941, -0.0139315, 0.23625, -0.1494141, 0.23625, -0.506958, 0.23625, 0.7958374, 0.23625, -15.6259546, 0.23625, 9.3511448, 0.23625, -4.4961834, 0.0277941, 0.0115816, 0.23625, -0.6315918, 0.23625, -0.6967163, 0.23625, -0.4414673, 0.23625, -20.9923668, 0.23625, 5.8091602, 0.23625, 2.389313, , , , , , , , , , , , , , , , , , , , , , 
0.0285882, -0.0095674, 0.243, -0.144165, 0.243, -0.4976196, 0.243, 0.7958374, 0.243, -15.9465647, 0.243, 8.480916, 0.243, -4.4885497, 0.0285882, 0.0139315, 0.243, -0.6311646, 0.243, -0.6913452, 0.243, -0.434021, 0.243, -21.4961834, 0.243, 7.6412215, 0.243, 2.9923663, , , , , , , , , , , , , , , , , , , , , , 
0.0293824, -0.0075532, 0.24975, -0.1397095, 0.24975, -0.4967041, 0.24975, 0.7993774, 0.24975, -16.480917, 0.24975, 8.2900763, 0.24975, -4.259542, 0.0293824, 0.012253, 0.24975, -0.6322632, 0.24975, -0.6925659, 0.24975, -0.4309082, 0.24975, -21.7175579, 0.24975, 9.2519083, 0.24975, 3.2900763, , , , , , , , , , , , , , , , , , , , , , 
0.0301765, -0.0092317, 0.2565, -0.1350708, 0.2565, -0.4977417, 0.2565, 0.8076782, 0.2565, -17.2900772, 0.2565, 8.7786255, 0.2565, -4.2442746, 0.0301765, 0.0068818, 0.2565, -0.6340332, 0.2565, -0.687561, 0.2565, -0.4309082, 0.2565, -21.4656487, 0.2565, 9.8931293, 0.2565, 2.7328243, , , , , , , , , , , , , , , , , , , , , , 
0.0309706, -0.0105745, 0.26325, -0.1269531, 0.26325, -0.50177, 0.26325, 0.8153687, 0.26325, -17.839695, 0.26325, 9.2900763, 0.26325, -4.8015265, 0.0309706, 0.0083925, 0.26325, -0.6351929, 0.26325, -0.6925049, 0.26325, -0.4373779, 0.26325, -20.9694653, 0.26325, 8.9083967, 0.26325, 1.9847329, , , , , , , , , , , , , , , , , , , , , , 
0.0317647, -0.008896, 0.27, -0.1266479, 0.27, -0.5078735, 0.27, 0.8181152, 0.27, -18.3893127, 0.27, 9.5572519, 0.27, -5.4427481, 0.0317647, 0.0072175, 0.27, -0.640625, 0.27, -0.6988525, 0.27, -0.4402466, 0.27, -20.4045811, 0.27, 7.3969464, 0.27, 1.129771, , , , , , , , , , , , , , , , , , , , , , 
0.0325588, -0.0083925, 0.27675, -0.1362305, 0.27675, -0.510376, 0.27675, 0.8190918, 0.27675, -18.67939, 0.27675, 9.9389315, 0.27675, -5.9312978, 0.0325588, 0.0058747, 0.27675, -0.6425781, 0.27675, -0.7004395, 0.27675, -0.4490356, 0.27675, -20.6335869, 0.27675, 6.1679387, 0.27675, 0.8091603, , , , , , , , , , , , , , , , , , , , , , 
0.0333529, -0.0065461, 0.2835, -0.1433716, 0.2835, -0.5153809, 0.2835, 0.8168945, 0.2835, -18.6259537, 0.2835, 10.5954199, 0.2835, -6.0687022, 0.0333529, 0.0090639, 0.2835, -0.6411743, 0.2835, -0.6986084, 0.2835, -0.4522705, 0.2835, -20.9465656, 0.2835, 5.2977099, 0.2835, 0.870229, , , , , , , , , , , , , , , , , , , , , , 
0.0341471, -0.0078889, 0.29025, -0.1483154, 0.29025, -0.515564, 0.29025, 0.8114624, 0.29025, -18.4656487, 0.29025, 11.3740454, 0.29025, -6.3206105, 0.0341471, 0.0099031, 0.29025, -0.6367798, 0.29025, -0.7052002, 0.29025, -0.4483643, 0.29025, -21.0152664, 0.29025, 5.2137403, 0.29025, 1.3664122, , , , , , , , , , , , , , , , , , , , , , 
0.0349412, -0.0102388, 0.297, -0.1534424, 0.297, -0.5112305, 0.297, 0.8076172, 0.297, -18.160305, 0.297, 11.4885492, 0.297, -6.4198475, 0.0349412, 0.011078, 0.297, -0.6340332, 0.297, -0.7042847, 0.297, -0.4455566, 0.297, -21.1221371, 0.297, 6.0534353, 0.297, 1.8778626, , , , , , , , , , , , , , , , , , , , , , 
0.0357353, -0.011078, 0.30375, -0.1480103, 0.30375, -0.5060425, 0.30375, 0.8031616, 0.30375, -17.6564884, 0.30375, 10.9694653, 0.30375, -6.3511453, 0.0357353, 0.0078889, 0.30375, -0.6265259, 0.30375, -0.6991577, 0.30375, -0.4385376, 0.30375, -20.9389305, 0.30375, 7.7099237, 0.30375, 2.2977099, , , , , , , , , , , , , , , , , , , , , , 
0.0365294, -0.0115816, 0.3105, -0.1397705, 0.3105, -0.505249, 0.3105, 0.7996216, 0.3105, -17.3435116, 0.3105, 10.5801525, 0.3105, -6.5801525, 0.0365294, 0.0057069, 0.3105, -0.6217041, 0.3105, -0.6936035, 0.3105, -0.4325562, 0.3105, -20.801527, 0.3105, 9.6030531, 0.3105, 2.2061069, , , , , , , , , , , , , , , , , , , , , , 
0.0373235, -0.0135958, 0.31725, -0.1328125, 0.31725, -0.5056763, 0.31725, 0.7980957, 0.31725, -16.9541988, 0.31725, 10.2748089, 0.31725, -6.8778625, 0.0373235, 0.0078889, 0.31725, -0.6174316, 0.31725, -0.6821289, 0.31725, -0.4263306, 0.31725, -21.1908398, 0.31725, 10.6335878, 0.31725, 1.8015267, , , , , , , , , , , , , , , , , , , , , , 
0.0381176, -0.0149386, 0.324, -0.12854, 0.324, -0.5059204, 0.324, 0.7980957, 0.324, -16.961832, 0.324, 10.3893127, 0.324, -6.6717558, 0.0381176, 0.0048676, 0.324, -0.6174316, 0.324, -0.6771851, 0.324, -0.4225464, 0.324, -21.519083, 0.324, 10.7328243, 0.324, 1.3740458, , , , , , , , , , , , , , , , , , , , , , 
0.0389118, -0.0151064, 0.33075, -0.1226196, 0.33075, -0.5059204, 0.33075, 0.7979126, 0.33075, -17.1145039, 0.33075, 10.8549614, 0.33075, -6.5343513, 0.0389118, 0.0031891, 0.33075, -0.6184692, 0.33075, -0.6795044, 0.33075, -0.4215088, 0.33075, -21.8931293, 0.33075, 9.9312973, 0.33075, 0.8167939, , , , , , , , , , , , , , , , , , , , , , 
0.0397059, -0.0162814, 0.3375, -0.1236572, 0.3375, -0.5103149, 0.3375, 0.8005371, 0.3375, -17.480917, 0.3375, 11.5648851, 0.3375, -6.480916, 0.0397059, 0.0023499, 0.3375, -0.6260376, 0.3375, -0.6904907, 0.3375, -0.4227905, 0.3375, -22.4580154, 0.3375, 8.5648851, 0.3375, 0.4122137, , , , , , , , , , , , , , , , , , , , , , 
0.0405, -0.0129244, 0.34425, -0.1244507, 0.34425, -0.5189819, 0.34425, 0.8017578, 0.34425, -17.7022896, 0.34425, 11.7404585, 0.34425, -6.3129773, 0.0405, 0.0025177, 0.34425, -0.6273193, 0.34425, -0.6985474, 0.34425, -0.4193115, 0.34425, -22.6870232, 0.34425, 7.4656487, 0.34425, 0.6870229, , , , , , , , , , , , , , , , , , , , , , 
0.0412941, -0.0090639, 0.351, -0.1246948, 0.351, -0.5199585, 0.351, 0.7964478, 0.351, -17.6183205, 0.351, 11.7786255, 0.351, -6.1832061, 0.0412941, 0.0057069, 0.351, -0.6290894, 0.351, -0.7106323, 0.351, -0.4145508, 0.351, -22.6488552, 0.351, 6.1145039, 0.351, 1.7175573, , , , , , , , , , , , , , , , , , , , , , 
0.0420882, -0.0068818, 0.35775, -0.1221313, 0.35775, -0.5268555, 0.35775, 0.7890625, 0.35775, -17.3129768, 0.35775, 12.2213745, 0.35775, -5.7480917, 0.0420882, 0.0129244, 0.35775, -0.6161499, 0.35775, -0.7147827, 0.35775, -0.4181519, 0.35775, -22.4885502, 0.35775, 5.7328243, 0.35775, 3.2671757, , , , , , , , , , , , , , , , , , , , , , 
0.0428824, -0.0052033, 0.3645, -0.1241455, 0.3645, -0.5355225, 0.3645, 0.7915039, 0.3645, -16.7404575, 0.3645, 12.6564884, 0.3645, -5.3129773, 0.0428824, 0.0140993, 0.3645, -0.6052246, 0.3645, -0.7181396, 0.3645, -0.4229736, 0.3645, -22.2213745, 0.3645, 6.740458, 0.3645, 3.908397, , , , , , , , , , , , , , , , , , , , , , 
0.0436765, -0.0041962, 0.37125, -0.1171265, 0.37125, -0.5407104, 0.37125, 0.7962646, 0.37125, -16.1297703, 0.37125, 13.160305, 0.37125, -5.0076337, 0.0436765, 0.0099031, 0.37125, -0.5944214, 0.37125, -0.7149658, 0.37125, -0.4233398, 0.37125, -22.358778, 0.37125, 8.6030531, 0.37125, 4.0763359, , , , , , , , , , , , , , , , , , , , , , 
0.0444706, -0.0072175, 0.378, -0.1157227, 0.378, -0.5409546, 0.378, 0.7993164, 0.378, -15.3511448, 0.378, 13.7328243, 0.378, -4.9312978, 0.0444706, 0.0109102, 0.378, -0.59729, 0.378, -0.7113037, 0.378, -0.4240112, 0.378, -22.0534344, 0.378, 10.6564884, 0.378, 3.7633588, , , , , , , , , , , , , , , , , , , , , , 
0.0452647, -0.0070497, 0.38475, -0.1151733, 0.38475, -0.5363159, 0.38475, 0.7991943, 0.38475, -15.0076332, 0.38475, 14.2900763, 0.38475, -5.0992365, 0.0452647, 0.0164492, 0.38475, -0.6062012, 0.38475, -0.7122192, 0.38475, -0.4188232, 0.38475, -22.0305347, 0.38475, 11.5572519, 0.38475, 3.5648854, , , , , , , , , , , , , , , , , , , , , , 
0.0460588, -0.005539, 0.3915, -0.1210327, 0.3915, -0.5355835, 0.3915, 0.8021851, 0.3915, -15.0152674, 0.3915, 14.5267172, 0.3915, -5.1297708, 0.0460588, 0.0159457, 0.3915, -0.6177368, 0.3915, -0.7122803, 0.3915, -0.4192505, 0.3915, -22.3282452, 0.3915, 12.0687027, 0.3915, 3.1450381, , , , , , , , , , , , , , , , , , , , , , 
0.0468529, -0.0052033, 0.39825, -0.1271973, 0.39825, -0.5335083, 0.39825, 0.8009033, 0.39825, -15.0076332, 0.39825, 14.9923668, 0.39825, -5.5954199, 0.0468529, 0.0135958, 0.39825, -0.6278076, 0.39825, -0.7129517, 0.39825, -0.4196167, 0.39825, -22.9236641, 0.39825, 12.4427481, 0.39825, 2.8473282, , , , , , , , , , , , , , , , , , , , , , 
0.0476471, -0.0068818, 0.405, -0.1331177, 0.405, -0.5321045, 0.405, 0.7888184, 0.405, -14.8549614, 0.405, 15.2671757, 0.405, -6.1603055, 0.0476471, 0.0125887, 0.405, -0.6360474, 0.405, -0.7189941, 0.405, -0.4172363, 0.405, -23.3664131, 0.405, 11.3435116, 0.405, 2.7709923, , , , , , , , , , , , , , , , , , , , , , 
0.0484412, -0.0063783, 0.41175, -0.1399536, 0.41175, -0.5356445, 0.41175, 0.7832642, 0.41175, -15.0839691, 0.41175, 14.7709923, 0.41175, -6.3358779, 0.0484412, 0.0132601, 0.41175, -0.6309814, 0.41175, -0.722168, 0.41175, -0.423645, 0.41175, -23.198473, 0.41175, 9.1450386, 0.41175, 3.3053436, , , , , , , , , , , , , , , , , , , , , , 
0.0492353, -0.0050355, 0.4185, -0.1436157, 0.4185, -0.5383301, 0.4185, 0.7788086, 0.4185, -15.1068707, 0.4185, 14.4045801, 0.4185, -6.5038166, 0.0492353, 0.0151064, 0.4185, -0.6286011, 0.4185, -0.7236328, 0.4185, -0.4226685, 0.4185, -22.9389305, 0.4185, 6.5954199, 0.4185, 3.8625953, , , , , , , , , , , , , , , , , , , , , , 
0.0500294, -0.0062104, 0.42525, -0.1421509, 0.42525, -0.5390625, 0.42525, 0.7738647, 0.42525, -14.9160309, 0.42525, 14.1450386, 0.42525, -6.3816795, 0.0500294, 0.0172885, 0.42525, -0.6107788, 0.42525, -0.7199707, 0.42525, -0.427063, 0.42525, -22.480917, 0.42525, 4.9847326, 0.42525, 4, , , , , , , , , , , , , , , , , , , , , , 
0.0508235, -0.0078889, 0.432, -0.1405029, 0.432, -0.5419922, 0.432, 0.7752686, 0.432, -14.717557, 0.432, 13.2137403, 0.432, -6.0687022, 0.0508235, 0.0176242, 0.432, -0.5908203, 0.432, -0.7168579, 0.432, -0.4318848, 0.432, -22.4961834, 0.432, 5.4274807, 0.432, 3.8778627, , , , , , , , , , , , , , , , , , , , , , 
0.0516176, -0.005539, 0.43875, -0.1329346, 0.43875, -0.5396118, 0.43875, 0.7805176, 0.43875, -14.5038166, 0.43875, 12.2900763, 0.43875, -5.8702292, 0.0516176, 0.0196384, 0.43875, -0.5766602, 0.43875, -0.7104492, 0.43875, -0.4291382, 0.43875, -22.8167934, 0.43875, 8.0076332, 0.43875, 3.8778627, , , , , , , , , , , , , , , , , , , , , , 
0.0524118, -0.0038605, 0.4455, -0.1339722, 0.4455, -0.5390625, 0.4455, 0.7825928, 0.4455, -14.0076332, 0.4455, 12.3129768, 0.4455, -5.7099237, 0.0524118, 0.021149, 0.4455, -0.5784302, 0.4455, -0.703186, 0.4455, -0.421936, 0.4455, -23.0763359, 0.4455, 11.2366409, 0.4455, 4.0839696, , , , , , , , , , , , , , , , , , , , , , 
0.0532059, -0.005539, 0.45225, -0.1329956, 0.45225, -0.5387573, 0.45225, 0.7839966, 0.45225, -13.6641226, 0.45225, 12.679389, 0.45225, -5.5496182, 0.0532059, 0.0182956, 0.45225, -0.5861816, 0.45225, -0.7011719, 0.45225, -0.4165039, 0.45225, -23.1374054, 0.45225, 12.5419846, 0.45225, 4.1679387, , , , , , , , , , , , , , , , , , , , , , 
0.054, -0.0062104, 0.459, -0.133667, 0.459, -0.5357056, 0.459, 0.7820435, 0.459, -13.1374044, 0.459, 12.5496187, 0.459, -5.2137403, 0.054, 0.0196384, 0.459, -0.6017456, 0.459, -0.7008667, 0.459, -0.4178467, 0.459, -23.5419846, 0.459, 13.5343513, 0.459, 4.3282442, , , , , , , , , , , , , , , , , , , , , , 
0.0547941, -0.0048676, 0.46575, -0.1289673, 0.46575, -0.5303955, 0.46575, 0.7854004, 0.46575, -13.0152674, 0.46575, 12.3053436, 0.46575, -4.8702292, 0.0547941, 0.0199741, 0.46575, -0.6108398, 0.46575, -0.7040405, 0.46575, -0.4238892, 0.46575, -24.2442741, 0.46575, 13.2290077, 0.46575, 4.5267177, , , , , , , , , , , , , , , , , , , , , , 
0.0555882, -0.0038605, 0.4725, -0.1243896, 0.4725, -0.5297852, 0.4725, 0.789978, 0.4725, -13.0458012, 0.4725, 11.9312973, 0.4725, -4.8167939, 0.0555882, 0.0182956, 0.4725, -0.6164551, 0.4725, -0.704895, 0.4725, -0.4213867, 0.4725, -24.8167934, 0.4725, 12.198473, 0.4725, 4.4961834, , , , , , , , , , , , , , , , , , , , , , 
0.0563824, -0.0041962, 0.47925, -0.1209106, 0.47925, -0.5258179, 0.47925, 0.7903442, 0.47925, -12.9007635, 0.47925, 11.2061071, 0.47925, -4.8931298, 0.0563824, 0.0169528, 0.47925, -0.6130371, 0.47925, -0.7094727, 0.47925, -0.4202271, 0.47925, -24.6564884, 0.47925, 12.3129768, 0.47925, 4.740458, , , , , , , , , , , , , , , , , , , , , , 
0.0571765, -0.0041962, 0.486, -0.1153564, 0.486, -0.5289307, 0.486, 0.7896118, 0.486, -12.7938929, 0.486, 11.2366409, 0.486, -4.9160304, 0.0571765, 0.0159457, 0.486, -0.614624, 0.486, -0.7116089, 0.486, -0.4160767, 0.486, -24.5267181, 0.486, 13.1297712, 0.486, 5.1526718, , , , , , , , , , , , , , , , , , , , , , 
0.0579706, -0.0065461, 0.49275, -0.1132202, 0.49275, -0.5304565, 0.49275, 0.7996216, 0.49275, -12.7251911, 0.49275, 12.320611, 0.49275, -4.9236641, 0.0579706, 0.0092317, 0.49275, -0.6151123, 0.49275, -0.710144, 0.49275, -0.4180908, 0.49275, -24.5343513, 0.49275, 14.3969469, 0.49275, 5.221374, , , , , , , , , , , , , , , , , , , , , , 
0.0587647, -0.0072175, 0.4995, -0.1092529, 0.4995, -0.5354004, 0.4995, 0.8056641, 0.4995, -12.7480917, 0.4995, 14.3969469, 0.4995, -4.5801525, 0.0587647, 0.0075532, 0.4995, -0.6124878, 0.4995, -0.7130737, 0.4995, -0.4210205, 0.4995, -25.038168, 0.4995, 15.3511448, 0.4995, 5, , , , , , , , , , , , , , , , , , , , , , 
0.0595588, -0.0082246, 0.50625, -0.1130371, 0.50625, -0.5325928, 0.50625, 0.8115234, 0.50625, -12.7786255, 0.50625, 15.1221371, 0.50625, -4.7022901, 0.0595588, 0.0102388, 0.50625, -0.6182861, 0.50625, -0.7203369, 0.50625, -0.4171143, 0.50625, -25.7175579, 0.50625, 15.5496187, 0.50625, 4.6335878, , , , , , , , , , , , , , , , , , , , , , 
0.0603529, -0.0095674, 0.513, -0.1124268, 0.513, -0.536377, 0.513, 0.8063354, 0.513, -13.4198475, 0.513, 15.8473282, 0.513, -4.9160304, 0.0603529, 0.0075532, 0.513, -0.6231689, 0.513, -0.7335815, 0.513, -0.4121094, 0.513, -26.2977104, 0.513, 15.7633591, 0.513, 4.1603055, , , , , , , , , , , , , , , , , , , , , , 
0.0611471, -0.008896, 0.51975, -0.1098633, 0.51975, -0.5369263, 0.51975, 0.8043823, 0.51975, -14.4885492, 0.51975, 14.9694653, 0.51975, -5.2671757, 0.0611471, 0.0105745, 0.51975, -0.6274414, 0.51975, -0.7392578, 0.51975, -0.4050903, 0.51975, -25.7480907, 0.51975, 15.4732828, 0.51975, 3.7938931, , , , , , , , , , , , , , , , , , , , , , 
0.0619412, -0.0082246, 0.5265, -0.1033325, 0.5265, -0.5397949, 0.5265, 0.8027954, 0.5265, -14.8091602, 0.5265, 13.9694653, 0.5265, -5.4427481, 0.0619412, 0.0117494, 0.5265, -0.635498, 0.5265, -0.7473755, 0.5265, -0.3999634, 0.5265, -24.5267181, 0.5265, 14.6488552, 0.5265, 3.7709923, , , , , , , , , , , , , , , , , , , , , , 
0.0627353, -0.0109102, 0.53325, -0.1002808, 0.53325, -0.5400391, 0.53325, 0.8021851, 0.53325, -15.0305347, 0.53325, 13.6488552, 0.53325, -5.1450381, 0.0627353, 0.0112459, 0.53325, -0.640625, 0.53325, -0.7459106, 0.53325, -0.3999023, 0.53325, -22.9541988, 0.53325, 13.4351149, 0.53325, 3.5343511, , , , , , , , , , , , , , , , , , , , , , 
0.0635294, -0.012253, 0.54, -0.1008301, 0.54, -0.5405273, 0.54, 0.8036499, 0.54, -15.4503813, 0.54, 13.8702288, 0.54, -5.1068702, 0.0635294, 0.0132601, 0.54, -0.6442871, 0.54, -0.7443237, 0.54, -0.4075317, 0.54, -22.0763359, 0.54, 13.160305, 0.54, 2.9236641, , , , , , , , , , , , , , , , , , , , , , 
0.0643235, -0.0142672, 0.54675, -0.1106567, 0.54675, -0.5336914, 0.54675, 0.8086548, 0.54675, -15.7709923, 0.54675, 13.9312973, 0.54675, -4.9694657, 0.0643235, 0.0151064, 0.54675, -0.6452026, 0.54675, -0.7407227, 0.54675, -0.4072266, 0.54675, -21.7480907, 0.54675, 13.7633591, 0.54675, 2.2748091, , , , , , , , , , , , , , , , , , , , , , 
0.0651176, -0.0162814, 0.5535, -0.1178589, 0.5535, -0.5268555, 0.5535, 0.8133545, 0.5535, -16.0610695, 0.5535, 13.7099237, 0.5535, -5.3435116, 0.0651176, 0.0154421, 0.5535, -0.647644, 0.5535, -0.7337646, 0.5535, -0.4096069, 0.5535, -21.8091602, 0.5535, 14.160305, 0.5535, 2.0229008, , , , , , , , , , , , , , , , , , , , , , 
0.0659118, -0.0129244, 0.56025, -0.1185303, 0.56025, -0.5206909, 0.56025, 0.8155518, 0.56025, -15.9541988, 0.56025, 13.2137403, 0.56025, -5.7557254, 0.0659118, 0.0099031, 0.56025, -0.6621094, 0.56025, -0.7267456, 0.56025, -0.4083862, 0.56025, -21.5343513, 0.56025, 12.8625956, 0.56025, 2.3358779, , , , , , , , , , , , , , , , , , , , , , 
0.0667059, -0.0112459, 0.567, -0.1290894, 0.567, -0.5094604, 0.567, 0.8171387, 0.567, -16.0839691, 0.567, 12.3969469, 0.567, -6.4427481, 0.0667059, 0.0082246, 0.567, -0.6705322, 0.567, -0.720459, 0.567, -0.414917, 0.567, -20.5725193, 0.567, 9.717557, 0.567, 3.1603053, , , , , , , , , , , , , , , , , , , , , , 
0.0675, -0.0102388, 0.57375, -0.1341553, 0.57375, -0.5004883, 0.57375, 0.821228, 0.57375, -16.8320618, 0.57375, 11.1450386, 0.57375, -6.9770994, 0.0675, 0.0085603, 0.57375, -0.6766357, 0.57375, -0.7080078, 0.57375, -0.4248657, 0.57375, -19.9847336, 0.57375, 7.7175574, 0.57375, 3.6641221, , , , , , , , , , , , , , , , , , , , , , 
0.0682941, -0.0085603, 0.5805, -0.1427002, 0.5805, -0.4959717, 0.5805, 0.8283081, 0.5805, -16.8931293, 0.5805, 10.4198475, 0.5805, -7.3282442, 0.0682941, 0.0065461, 0.5805, -0.6668091, 0.5805, -0.6973877, 0.5805, -0.4379272, 0.5805, -19.1832066, 0.5805, 4.1068702, 0.5805, 4.8015265, , , , , , , , , , , , , , , , , , , , , , 
0.0690882, -0.008896, 0.58725, -0.1412964, 0.58725, -0.4916382, 0.58725, 0.8253784, 0.58725, -16.9923668, 0.58725, 9.7328243, 0.58725, -7.6870227, 0.0690882, 0.0058747, 0.58725, -0.6524048, 0.58725, -0.6868896, 0.58725, -0.4432983, 0.58725, -18.7557259, 0.58725, 1.9236641, 0.58725, 5.7175574, , , , , , , , , , , , , , , , , , , , , , 
0.0698824, -0.0078889, 0.594, -0.1333618, 0.594, -0.4889526, 0.594, 0.8216553, 0.594, -17.038168, 0.594, 8.7328243, 0.594, -8.0534353, 0.0698824, 0.0115816, 0.594, -0.6334839, 0.594, -0.6776733, 0.594, -0.4484253, 0.594, -18.4580154, 0.594, 1.8854961, 0.594, 6.2824426, , , , , , , , , , , , , , , , , , , , , , 
0.0706765, -0.005539, 0.60075, -0.1252441, 0.60075, -0.4856567, 0.60075, 0.8111572, 0.60075, -17.4198475, 0.60075, 8.8320608, 0.60075, -8.717557, 0.0706765, 0.0162814, 0.60075, -0.6220093, 0.60075, -0.6733398, 0.60075, -0.4423828, 0.60075, -18.7022896, 0.60075, 4.1450381, 0.60075, 6.0992365, , , , , , , , , , , , , , , , , , , , , , 
0.0714706, -0.0060426, 0.6075, -0.1104736, 0.6075, -0.4849243, 0.6075, 0.8114014, 0.6075, -18.038168, 0.6075, 10.0916033, 0.6075, -8.7328243, 0.0714706, 0.0139315, 0.6075, -0.6122437, 0.6075, -0.6687622, 0.6075, -0.4425049, 0.6075, -19.4122143, 0.6075, 7.9083967, 0.6075, 5.5801525, , , , , , , , , , , , , , , , , , , , , , 
0.0722647, -0.0052033, 0.61425, -0.0997925, 0.61425, -0.4877319, 0.61425, 0.8077393, 0.61425, -18.4045811, 0.61425, 11.6946564, 0.61425, -9.0152674, 0.0722647, 0.0146029, 0.61425, -0.6130371, 0.61425, -0.6717529, 0.61425, -0.4379272, 0.61425, -20.3664131, 0.61425, 11.5954199, 0.61425, 4.4885497, , , , , , , , , , , , , , , , , , , , , , 
0.0730588, -0.0015106, 0.621, -0.0996704, 0.621, -0.4939575, 0.621, 0.8108521, 0.621, -18.9465656, 0.621, 15.0839691, 0.621, -8.961832, 0.0730588, 0.0172885, 0.621, -0.6126709, 0.621, -0.6726685, 0.621, -0.4394531, 0.621, -21.5648861, 0.621, 14.5572519, 0.621, 3.0992367, , , , , , , , , , , , , , , , , , , , , , 
0.0738529, 0.0011749, 0.62775, -0.1067505, 0.62775, -0.5007324, 0.62775, 0.8147583, 0.62775, -19.2900772, 0.62775, 17.8167934, 0.62775, -8.9541988, 0.0738529, 0.0169528, 0.62775, -0.6141357, 0.62775, -0.6742554, 0.62775, -0.4396362, 0.62775, -22.5343513, 0.62775, 16.2977104, 0.62775, 2.351145, , , , , , , , , , , , , , , , , , , , , , 
0.0746471, 0.0005035, 0.6345, -0.1241455, 0.6345, -0.5040283, 0.6345, 0.8189087, 0.6345, -19.2366409, 0.6345, 19.519083, 0.6345, -8.7709923, 0.0746471, 0.0169528, 0.6345, -0.6236572, 0.6345, -0.6799927, 0.6345, -0.4396362, 0.6345, -22.9541988, 0.6345, 17.0152664, 0.6345, 1.8473282, , , , , , , , , , , , , , , , , , , , , , 
0.0754412, -0.0023499, 0.64125, -0.1342163, 0.64125, -0.5061035, 0.64125, 0.8175659, 0.64125, -19.0687027, 0.64125, 20.4656487, 0.64125, -8.4503813, 0.0754412, 0.0193027, 0.64125, -0.630249, 0.64125, -0.6859741, 0.64125, -0.4428101, 0.64125, -22.5801525, 0.64125, 16.6335869, 0.64125, 2.3587787, , , , , , , , , , , , , , , , , , , , , , 
0.0762353, -0.0072175, 0.648, -0.142395, 0.648, -0.5137939, 0.648, 0.8157959, 0.648, -18.6335869, 0.648, 21.1297703, 0.648, -7.9847326, 0.0762353, 0.0193027, 0.648, -0.6369629, 0.648, -0.6879272, 0.648, -0.4434814, 0.648, -22.4656487, 0.648, 15.4045801, 0.648, 3.3358779, , , , , , , , , , , , , , , , , , , , , , 
0.0770294, -0.0072175, 0.65475, -0.1486206, 0.65475, -0.5143433, 0.65475, 0.8148804, 0.65475, -18.0458012, 0.65475, 21.2442741, 0.65475, -7.7175574, 0.0770294, 0.0203098, 0.65475, -0.6320801, 0.65475, -0.6865845, 0.65475, -0.4517212, 0.65475, -22.6870232, 0.65475, 14.5114508, 0.65475, 4.3129773, , , , , , , , , , , , , , , , , , , , , , 
0.0778235, -0.0082246, 0.6615, -0.1495972, 0.6615, -0.5134277, 0.6615, 0.8144531, 0.6615, -17.4045811, 0.6615, 20.9312973, 0.6615, -7.4351144, 0.0778235, 0.017792, 0.6615, -0.6245728, 0.6615, -0.6836548, 0.6615, -0.4486084, 0.6615, -23.4503822, 0.6615, 14.5648851, 0.6615, 4.7328243, , , , , , , , , , , , , , , , , , , , , , 
0.0786176, -0.0117494, 0.66825, -0.1462402, 0.66825, -0.5097656, 0.66825, 0.8068237, 0.66825, -16.6946564, 0.66825, 20.3664131, 0.66825, -7.0229006, 0.0786176, 0.0117494, 0.66825, -0.6226807, 0.66825, -0.6836548, 0.66825, -0.4454346, 0.66825, -24.480917, 0.66825, 15.5725193, 0.66825, 4.5725193, , , , , , , , , , , , , , , , , , , , , , 
0.0794118, -0.0115816, 0.675, -0.1448364, 0.675, -0.5097656, 0.675, 0.8049927, 0.675, -15.8931293, 0.675, 19.7557259, 0.675, -6.8702292, 0.0794118, 0.0068818, 0.675, -0.621582, 0.675, -0.6798096, 0.675, -0.4350586, 0.675, -24.9236641, 0.675, 16.7099228, 0.675, 4.3740458, , , , , , , , , , , , , , , , , , , , , , 
0.0802059, -0.0135958, 0.68175, -0.1443481, 0.68175, -0.5118408, 0.68175, 0.7975464, 0.68175, -15.3282442, 0.68175, 20.2366409, 0.68175, -6.6259542, 0.0802059, 0.0065461, 0.68175, -0.6237183, 0.68175, -0.6821289, 0.68175, -0.4240112, 0.68175, -24.8091602, 0.68175, 17.2366409, 0.68175, 4.0534353, , , , , , , , , , , , , , , , , , , , , , 
0.081, -0.01561, 0.6885, -0.1421509, 0.6885, -0.5059204, 0.6885, 0.7947998, 0.6885, -14.9312973, 0.6885, 20.4732819, 0.6885, -6.2671757, 0.081, 0.0092317, 0.6885, -0.6264648, 0.6885, -0.6763916, 0.6885, -0.4193726, 0.6885, -24.9847336, 0.6885, 17.0610695, 0.6885, 3.7938931, , , , , , , , , , , , , , , , , , , , , , 
0.0817941, -0.01561, 0.69525, -0.1419678, 0.69525, -0.5088501, 0.69525, 0.7911987, 0.69525, -14.6717558, 0.69525, 20.5496178, 0.69525, -6.0305343, 0.0817941, 0.0099031, 0.69525, -0.6270752, 0.69525, -0.680481, 0.69525, -0.4160156, 0.69525, -25.1908398, 0.69525, 16.5114498, 0.69525, 3.4351146, , , , , , , , , , , , , , , , , , , , , , 
0.0825882, -0.0182956, 0.702, -0.1416016, 0.702, -0.5153809, 0.702, 0.788269, 0.702, -14.7099237, 0.702, 19.6946564, 0.702, -5.6641221, 0.0825882, 0.0068818, 0.702, -0.6265259, 0.702, -0.6834717, 0.702, -0.4185791, 0.702, -25.9083977, 0.702, 15.1832066, 0.702, 3.2366412, , , , , , , , , , , , , , , , , , , , , , 
0.0833824, -0.0181277, 0.70875, -0.1422729, 0.70875, -0.5249634, 0.70875, 0.784729, 0.70875, -14.8167934, 0.70875, 17.8473282, 0.70875, -5.3358779, 0.0833824, 0.0052033, 0.70875, -0.6233521, 0.70875, -0.6936646, 0.70875, -0.4168701, 0.70875, -26.6106873, 0.70875, 13.5725193, 0.70875, 3.0534351, , , , , , , , , , , , , , , , , , , , , , 
0.0841765, -0.0176242, 0.7155, -0.1404419, 0.7155, -0.5300903, 0.7155, 0.7878418, 0.7155, -14.7557249, 0.7155, 16.3664131, 0.7155, -4.9770994, 0.0841765, 0.0011749, 0.7155, -0.6256714, 0.7155, -0.7056274, 0.7155, -0.4158936, 0.7155, -27.3893127, 0.7155, 12.3511448, 0.7155, 3.0458016, , , , , , , , , , , , , , , , , , , , , , 
0.0849706, -0.018967, 0.72225, -0.1372681, 0.72225, -0.5377808, 0.72225, 0.7879028, 0.72225, -14.5877867, 0.72225, 15.7251911, 0.72225, -4.9083967, 0.0849706, 0.0035248, 0.72225, -0.6265259, 0.72225, -0.7197266, 0.72225, -0.4145508, 0.72225, -27.3664131, 0.72225, 11.6030531, 0.72225, 3.2977099, , , , , , , , , , , , , , , , , , , , , , 
0.0857647, -0.0135958, 0.729, -0.1272583, 0.729, -0.541626, 0.729, 0.7944336, 0.729, -14.2977095, 0.729, 14.9007635, 0.729, -4.6717558, 0.0857647, 0.0018463, 0.729, -0.6222534, 0.729, -0.7260742, 0.729, -0.4151001, 0.729, -26.4274807, 0.729, 11.160305, 0.729, 3.9389312, , , , , , , , , , , , , , , , , , , , , , 
0.0865588, -0.0105745, 0.73575, -0.119812, 0.73575, -0.5430298, 0.73575, 0.7974854, 0.73575, -13.7022905, 0.73575, 14.1832066, 0.73575, -4.6259542, 0.0865588, -0.0011749, 0.73575, -0.6227417, 0.73575, -0.7352905, 0.73575, -0.4141235, 0.73575, -25.3129768, 0.73575, 11.2595415, 0.73575, 4.4656487, , , , , , , , , , , , , , , , , , , , , , 
0.0873529, -0.0104067, 0.7425, -0.1115112, 0.7425, -0.5357056, 0.7425, 0.798645, 0.7425, -13.2290077, 0.7425, 13.4961834, 0.7425, -4.6717558, 0.0873529, 0.0030213, 0.7425, -0.6184692, 0.7425, -0.734436, 0.7425, -0.4089355, 0.7425, -24.8167934, 0.7425, 11.8854961, 0.7425, 5.1526718, , , , , , , , , , , , , , , , , , , , , , 
0.0881471, -0.0082246, 0.74925, -0.1047974, 0.74925, -0.5413208, 0.74925, 0.7963867, 0.74925, -12.9083967, 0.74925, 13.3435116, 0.74925, -4.7938933, 0.0881471, 0.0025177, 0.74925, -0.6181641, 0.74925, -0.725647, 0.74925, -0.4044189, 0.74925, -24.6870232, 0.74925, 12.5114508, 0.74925, 5.5648856, , , , , , , , , , , , , , , , , , , , , , 
0.0889412, -0.0060426, 0.756, -0.1051636, 0.756, -0.5383301, 0.756, 0.7940063, 0.756, -12.6870232, 0.756, 13.9389315, 0.756, -4.6641221, 0.0889412, 0.0065461, 0.756, -0.619812, 0.756, -0.7155762, 0.756, -0.4021606, 0.756, -25.0229015, 0.756, 12.4656487, 0.756, 5.3893127, , , , , , , , , , , , , , , , , , , , , , 
0.0897353, -0.0095674, 0.76275, -0.1000366, 0.76275, -0.5403442, 0.76275, 0.7964478, 0.76275, -12.5343513, 0.76275, 15.2519083, 0.76275, -4.3206105, 0.0897353, 0.0065461, 0.76275, -0.616333, 0.76275, -0.7056885, 0.76275, -0.4023438, 0.76275, -25.2671757, 0.76275, 11.801527, 0.76275, 4.9236641, , , , , , , , , , , , , , , , , , , , , , 
0.0905294, -0.0102388, 0.7695, -0.1013184, 0.7695, -0.5358887, 0.7695, 0.7911377, 0.7695, -12.282443, 0.7695, 15.839695, 0.7695, -3.8931298, 0.0905294, 0.0072175, 0.7695, -0.6164551, 0.7695, -0.7050171, 0.7695, -0.4052124, 0.7695, -25.8854961, 0.7695, 10.9083967, 0.7695, 4.2748094, , , , , , , , , , , , , , , , , , , , , , 
0.0913235, -0.0072175, 0.77625, -0.1016235, 0.77625, -0.5332642, 0.77625, 0.7890015, 0.77625, -12.3511448, 0.77625, 15.4580154, 0.77625, -3.5877862, 0.0913235, 0.0102388, 0.77625, -0.6158447, 0.77625, -0.7103271, 0.77625, -0.4047852, 0.77625, -25.7633591, 0.77625, 9.8473282, 0.77625, 3.7328243, , , , , , , , , , , , , , , , , , , , , , 
0.0921176, -0.0048676, 0.783, -0.1004639, 0.783, -0.5307007, 0.783, 0.789978, 0.783, -13.2748089, 0.783, 14.1908398, 0.783, -3.351145, 0.0921176, 0.0149386, 0.783, -0.6183472, 0.783, -0.7162476, 0.783, -0.4061279, 0.783, -25.6106873, 0.783, 10.0763359, 0.783, 3.7938931, , , , , , , , , , , , , , , , , , , , , , 
0.0929118, -0.0035248, 0.78975, -0.1032104, 0.78975, -0.5307007, 0.78975, 0.7942505, 0.78975, -14.0916033, 0.78975, 13.9236641, 0.78975, -3.4503818, 0.0929118, 0.0172885, 0.78975, -0.6243896, 0.78975, -0.7272949, 0.78975, -0.4069824, 0.78975, -25.4122143, 0.78975, 11.4045801, 0.78975, 3.8625953, , , , , , , , , , , , , , , , , , , , , , 
0.0937059, -0.0016785, 0.7965, -0.0973511, 0.7965, -0.5313721, 0.7965, 0.8007812, 0.7965, -14.7480917, 0.7965, 14.358779, 0.7965, -3.7480917, 0.0937059, 0.0179599, 0.7965, -0.6274414, 0.7965, -0.7323608, 0.7965, -0.4104614, 0.7965, -25.160305, 0.7965, 12.7709923, 0.7965, 4.0763359, , , , , , , , , , , , , , , , , , , , , , 
0.0945, -0.0028534, 0.80325, -0.1016846, 0.80325, -0.5344849, 0.80325, 0.8051758, 0.80325, -14.9923668, 0.80325, 14.679389, 0.80325, -4.1450381, 0.0945, 0.0203098, 0.80325, -0.6328125, 0.80325, -0.7435303, 0.80325, -0.4113159, 0.80325, -24.3511448, 0.80325, 13.6106873, 0.80325, 4.8473282, , , , , , , , , , , , , , , , , , , , , , 
0.0952941, -0.002182, 0.81, -0.1014404, 0.81, -0.5355835, 0.81, 0.8100586, 0.81, -14.8320608, 0.81, 14.6030531, 0.81, -4.5343513, 0.0952941, 0.0213169, 0.81, -0.6412964, 0.81, -0.7423096, 0.81, -0.4130249, 0.81, -23.4503822, 0.81, 14.2977095, 0.81, 5.3206105, , , , , , , , , , , , , , , , , , , , , , 
0.0960882, -0.0008392, 0.81675, -0.1029053, 0.81675, -0.5355225, 0.81675, 0.8178101, 0.81675, -14.198473, 0.81675, 15.0458012, 0.81675, -4.8549619, 0.0960882, 0.0213169, 0.81675, -0.6411133, 0.81675, -0.7369995, 0.81675, -0.414856, 0.81675, -22.6564884, 0.81675, 14.7404585, 0.81675, 4.9236641, , , , , , , , , , , , , , , , , , , , , , 
0.0968824, -0.002182, 0.8235, -0.1097412, 0.8235, -0.5307007, 0.8235, 0.8201294, 0.8235, -14.1908398, 0.8235, 16.1908398, 0.8235, -5.0229006, 0.0968824, 0.0206455, 0.8235, -0.6390991, 0.8235, -0.7267456, 0.8235, -0.423645, 0.8235, -22.3893127, 0.8235, 14.6564884, 0.8235, 4.4274807, , , , , , , , , , , , , , , , , , , , , , 
0.0976765, -0.0062104, 0.83025, -0.1136475, 0.83025, -0.5253906, 0.83025, 0.8209839, 0.83025, -14.5725193, 0.83025, 17.1679382, 0.83025, -5.3893127, 0.0976765, 0.0226596, 0.83025, -0.6443481, 0.83025, -0.7112427, 0.83025, -0.4266357, 0.83025, -22.0763359, 0.83025, 14.2519083, 0.83025, 3.6030533, , , , , , , , , , , , , , , , , , , , , , 
0.0984706, -0.0102388, 0.837, -0.1176758, 0.837, -0.5175171, 0.837, 0.8171997, 0.837, -14.7480917, 0.837, 17.3664131, 0.837, -5.7938933, 0.0984706, 0.0199741, 0.837, -0.6454468, 0.837, -0.7047729, 0.837, -0.4272461, 0.837, -22.4580154, 0.837, 12.9465647, 0.837, 2.7251909, , , , , , , , , , , , , , , , , , , , , , 
0.0992647, -0.0095674, 0.84375, -0.1244507, 0.84375, -0.5089722, 0.84375, 0.8087158, 0.84375, -15.9007635, 0.84375, 17.1374054, 0.84375, -6.2061067, 0.0992647, 0.0179599, 0.84375, -0.645752, 0.84375, -0.7005615, 0.84375, -0.4205933, 0.84375, -22.961832, 0.84375, 10.9389315, 0.84375, 2.4045801, , , , , , , , , , , , , , , , , , , , , , 
0.1000588, -0.0065461, 0.8505, -0.1323853, 0.8505, -0.5100708, 0.8505, 0.7954102, 0.8505, -16.358778, 0.8505, 16.3435116, 0.8505, -6.4580154, 0.1000588, 0.018967, 0.8505, -0.6437378, 0.8505, -0.6984863, 0.8505, -0.4190674, 0.8505, -22.7862587, 0.8505, 9.0458012, 0.8505, 2.5877862, , , , , , , , , , , , , , , , , , , , , , 
0.1008529, -0.0070497, 0.85725, -0.1370239, 0.85725, -0.5078735, 0.85725, 0.7906494, 0.85725, -16.5343513, 0.85725, 14.961832, 0.85725, -6.8778625, 0.1008529, 0.0129244, 0.85725, -0.6392822, 0.85725, -0.6964722, 0.85725, -0.4233398, 0.85725, -22.32061, 0.85725, 7.4122138, 0.85725, 3.2900763, , , , , , , , , , , , , , , , , , , , , , 
0.1016471, -0.0102388, 0.864, -0.1314697, 0.864, -0.5101318, 0.864, 0.7866821, 0.864, -16.2213745, 0.864, 13.9160309, 0.864, -6.9389315, 0.1016471, 0.0092317, 0.864, -0.6243286, 0.864, -0.692749, 0.864, -0.4263306, 0.864, -22.198473, 0.864, 6.7862597, 0.864, 3.9465649, , , , , , , , , , , , , , , , , , , , , , 
0.1024412, -0.0105745, 0.87075, -0.1326904, 0.87075, -0.5132446, 0.87075, 0.7904053, 0.87075, -16.2137413, 0.87075, 13.3358774, 0.87075, -6.8015265, 0.1024412, 0.0117494, 0.87075, -0.6101074, 0.87075, -0.6928101, 0.87075, -0.4300537, 0.87075, -22.3511448, 0.87075, 7.4198475, 0.87075, 3.9923663, , , , , , , , , , , , , , , , , , , , , , 
0.1032353, -0.012253, 0.8775, -0.1262207, 0.8775, -0.5166016, 0.8775, 0.7952881, 0.8775, -15.5343513, 0.8775, 13, 0.8775, -6.6793895, 0.1032353, 0.0146029, 0.8775, -0.6018677, 0.8775, -0.6887817, 0.8775, -0.4282227, 0.8775, -22.8167934, 0.8775, 9.198473, 0.8775, 3.8473282, , , , , , , , , , , , , , , , , , , , , , 
0.1040294, -0.0102388, 0.88425, -0.1196289, 0.88425, -0.519043, 0.88425, 0.8024902, 0.88425, -14.9694653, 0.88425, 13.5572519, 0.88425, -6.3664122, 0.1040294, 0.0152743, 0.88425, -0.6010132, 0.88425, -0.6878052, 0.88425, -0.4235229, 0.88425, -23.1832066, 0.88425, 11.8549614, 0.88425, 3.4503818, , , , , , , , , , , , , , , , , , , , , , 
0.1048235, -0.0085603, 0.891, -0.1170654, 0.891, -0.5194092, 0.891, 0.8018799, 0.891, -14.1297712, 0.891, 14.6106873, 0.891, -5.8015265, 0.1048235, 0.0125887, 0.891, -0.6026001, 0.891, -0.6906738, 0.891, -0.421936, 0.891, -23.396946, 0.891, 13.8854961, 0.891, 3.0152671, , , , , , , , , , , , , , , , , , , , , , 
0.1056176, -0.0102388, 0.89775, -0.1201782, 0.89775, -0.5188599, 0.89775, 0.8028564, 0.89775, -13.9923668, 0.89775, 15.1297712, 0.89775, -5.2900763, 0.1056176, 0.0099031, 0.89775, -0.6124268, 0.89775, -0.6928101, 0.89775, -0.4169312, 0.89775, -23.3053436, 0.89775, 14.4656487, 0.89775, 2.4198472, , , , , , , , , , , , , , , , , , , , , , 
0.1064118, -0.0109102, 0.9045, -0.1233521, 0.9045, -0.5175171, 0.9045, 0.8006592, 0.9045, -14.4351149, 0.9045, 14.8091602, 0.9045, -4.8549619, 0.1064118, 0.0092317, 0.9045, -0.6313477, 0.9045, -0.6952515, 0.9045, -0.4213867, 0.9045, -23.2748089, 0.9045, 13.5954199, 0.9045, 2.3969467, , , , , , , , , , , , , , , , , , , , , , 
0.1072059, -0.0102388, 0.91125, -0.1289062, 0.91125, -0.5166016, 0.91125, 0.8032227, 0.91125, -14.5801525, 0.91125, 14.0610685, 0.91125, -4.7480917, 0.1072059, 0.0099031, 0.91125, -0.6448364, 0.91125, -0.7010498, 0.91125, -0.4222412, 0.91125, -23.2137413, 0.91125, 11.8244276, 0.91125, 3.0152671, , , , , , , , , , , , , , , , , , , , , , 
0.108, -0.0099031, 0.918, -0.1325684, 0.918, -0.517334, 0.918, 0.800354, 0.918, -14.5038166, 0.918, 13.8091602, 0.918, -4.8931298, 0.108, 0.0063783, 0.918, -0.649292, 0.918, -0.7026978, 0.918, -0.4276123, 0.918, -22.801527, 0.918, 9.7404585, 0.918, 4.5114503, , , , , , , , , , , , , , , , , , , , , , 
0.1087941, -0.0090639, 0.92475, -0.1331177, 0.92475, -0.5141602, 0.92475, 0.8071289, 0.92475, -14.7633591, 0.92475, 13.3435116, 0.92475, -4.8625956, 0.1087941, 0.0065461, 0.92475, -0.6495972, 0.92475, -0.7105713, 0.92475, -0.434021, 0.92475, -22.5725193, 0.92475, 8.0763359, 0.92475, 5.7328243, , , , , , , , , , , , , , , , , , , , , , 
0.1095882, -0.0090639, 0.9315, -0.1331177, 0.9315, -0.5117798, 0.9315, 0.8131714, 0.9315, -15.4885492, 0.9315, 12.8625956, 0.9315, -4.9007635, 0.1095882, 0.0105745, 0.9315, -0.6362305, 0.9315, -0.7138672, 0.9315, -0.4415894, 0.9315, -22.2748089, 0.9315, 8.1526718, 0.9315, 6.4122138, , , , , , , , , , , , , , , , , , , , , , 
0.1103824, -0.0083925, 0.93825, -0.1307373, 0.93825, -0.5106812, 0.93825, 0.8154297, 0.93825, -16.3435116, 0.93825, 12.6564884, 0.93825, -4.8549619, 0.1103824, 0.0129244, 0.93825, -0.6287231, 0.93825, -0.7149048, 0.93825, -0.4470825, 0.93825, -22.5267181, 0.93825, 9.801527, 0.93825, 6.1908398, , , , , , , , , , , , , , , , , , , , , , 
0.1111765, -0.0095674, 0.945, -0.124939, 0.945, -0.5150757, 0.945, 0.8204956, 0.945, -16.6717548, 0.945, 12.8167934, 0.945, -4.9770994, 0.1111765, 0.0085603, 0.945, -0.6256714, 0.945, -0.7124634, 0.945, -0.4441528, 0.945, -23.0076332, 0.945, 10.9694653, 0.945, 5.7328243, , , , , , , , , , , , , , , , , , , , , , 
0.1119706, -0.0109102, 0.95175, -0.1116333, 0.95175, -0.5187988, 0.95175, 0.8201904, 0.95175, -16.8854961, 0.95175, 14.038168, 0.95175, -5.2290077, 0.1119706, 0.0072175, 0.95175, -0.6296387, 0.95175, -0.7142944, 0.95175, -0.4325562, 0.95175, -23.1679382, 0.95175, 13.3358774, 0.95175, 5.0229006, , , , , , , , , , , , , , , , , , , , , , 
0.1127647, -0.0105745, 0.9585, -0.1078491, 0.9585, -0.5206909, 0.9585, 0.815918, 0.9585, -17.0076332, 0.9585, 16.0534344, 0.9585, -5.5572519, 0.1127647, 0.0085603, 0.9585, -0.6373291, 0.9585, -0.7097778, 0.9585, -0.4266968, 0.9585, -23.3664131, 0.9585, 14.9694653, 0.9585, 3.8091602, , , , , , , , , , , , , , , , , , , , , , 
0.1135588, -0.0090639, 0.96525, -0.1088867, 0.96525, -0.5186768, 0.96525, 0.8152466, 0.96525, -17.1908398, 0.96525, 17.5725193, 0.96525, -6, 0.1135588, 0.0129244, 0.96525, -0.6419067, 0.96525, -0.7122803, 0.96525, -0.4245605, 0.96525, -23.1068707, 0.96525, 15.1832066, 0.96525, 2.5954199, , , , , , , , , , , , , , , , , , , , , , 
0.1143529, -0.0082246, 0.972, -0.1130371, 0.972, -0.5192871, 0.972, 0.8121948, 0.972, -17.8091602, 0.972, 18.038168, 0.972, -6.5038166, 0.1143529, 0.01561, 0.972, -0.6396484, 0.972, -0.7077026, 0.972, -0.4237671, 0.972, -22.8091602, 0.972, 14.4122133, 0.972, 1.5954199, , , , , , , , , , , , , , , , , , , , , , 
0.1151471, -0.0082246, 0.97875, -0.1231689, 0.97875, -0.5181274, 0.97875, 0.8128662, 0.97875, -17.7862587, 0.97875, 17.7709923, 0.97875, -6.6870227, 0.1151471, 0.0171206, 0.97875, -0.6390381, 0.97875, -0.7070923, 0.97875, -0.430603, 0.97875, -22.2213745, 0.97875, 12.961832, 0.97875, 0.9312977, , , , , , , , , , , , , , , , , , , , , , 
0.1159412, -0.0068818, 0.9855, -0.1344604, 0.9855, -0.5119019, 0.9855, 0.8115845, 0.9855, -17.7175579, 0.9855, 17.8549614, 0.9855, -6.7022901, 0.1159412, 0.0172885, 0.9855, -0.637207, 0.9855, -0.7042847, 0.9855, -0.4334106, 0.9855, -21.7175579, 0.9855, 11.9541988, 0.9855, 0.7633588, , , , , , , , , , , , , , , , , , , , , , 
0.1167353, -0.0078889, 0.99225, -0.1469116, 0.99225, -0.5037842, 0.99225, 0.8067627, 0.99225, -17.7786255, 0.99225, 18.1755733, 0.99225, -6.7175574, 0.1167353, 0.0182956, 0.99225, -0.6393433, 0.99225, -0.6990967, 0.99225, -0.4313354, 0.99225, -21.3893127, 0.99225, 11.4045801, 0.99225, 1.1526718, , , , , , , , , , , , , , , , , , , , , , 
0.1175294, -0.0062104, 0.999, -0.15271, 0.999, -0.50354, 0.999, 0.8050537, 0.999, -18.1145039, 0.999, 17.3664131, 0.999, -6.5496182, 0.1175294, 0.0169528, 0.999, -0.6463623, 0.999, -0.7025757, 0.999, -0.4315186, 0.999, -21.7786255, 0.999, 11.1908398, 0.999, 1.648855, , , , , , , , , , , , , , , , , , , , , , 
0.1183235, -0.005539, 1.00575, -0.1552734, 1.00575, -0.505249, 1.00575, 0.8091431, 1.00575, -18.198473, 1.00575, 15.8931293, 1.00575, -6.3969464, 0.1183235, 0.0104067, 1.00575, -0.6478271, 1.00575, -0.7001343, 1.00575, -0.4319458, 1.00575, -22.3129768, 1.00575, 11.5114508, 1.00575, 2.5267177, , , , , , , , , , , , , , , , , , , , , , 
0.1191176, -0.008896, 1.0125, -0.1550903, 1.0125, -0.5073242, 1.0125, 0.8030396, 1.0125, -18.0763359, 1.0125, 14.5725193, 1.0125, -6.1374044, 0.1191176, 0.0105745, 1.0125, -0.6478882, 1.0125, -0.6981812, 1.0125, -0.4279785, 1.0125, -22.3129768, 1.0125, 11.3435116, 1.0125, 3.3206108, , , , , , , , , , , , , , , , , , , , , , 
0.1199118, -0.014435, 1.01925, -0.154541, 1.01925, -0.5130005, 1.01925, 0.7980347, 1.01925, -17.5725193, 1.01925, 13.1297712, 1.01925, -6.1145039, 0.1199118, 0.0112459, 1.01925, -0.640686, 1.01925, -0.6958008, 1.01925, -0.4268799, 1.01925, -22.0076332, 1.01925, 10.4961834, 1.01925, 3.8549619, , , , , , , , , , , , , , , , , , , , , , 
0.1207059, -0.0097353, 1.026, -0.1464844, 1.026, -0.5177612, 1.026, 0.7932739, 1.026, -16.9847336, 1.026, 11.6488552, 1.026, -6.1450381, 0.1207059, 0.0146029, 1.026, -0.6314087, 1.026, -0.6934814, 1.026, -0.4268799, 1.026, -21.8625946, 1.026, 8.4885492, 1.026, 3.8244274, , , , , , , , , , , , , , , , , , , , , , 
0.1215, -0.0102388, 1.03275, -0.1368408, 1.03275, -0.5188599, 1.03275, 0.7901611, 1.03275, -16.7557259, 1.03275, 10.3511448, 1.03275, -6.2366414, 0.1215, 0.0172885, 1.03275, -0.6199341, 1.03275, -0.6931763, 1.03275, -0.4299927, 1.03275, -21.7251911, 1.03275, 6.8244276, 1.03275, 3.519084, , , , , , , , , , , , , , , , , , , , , , 
0.1222941, -0.0109102, 1.0395, -0.1339722, 1.0395, -0.520874, 1.0395, 0.7907104, 1.0395, -16.4045811, 1.0395, 9.5801525, 1.0395, -6.3893127, 0.1222941, 0.0135958, 1.0395, -0.6174316, 1.0395, -0.6918945, 1.0395, -0.4282837, 1.0395, -21.9160309, 1.0395, 6.2137403, 1.0395, 3.0458016, , , , , , , , , , , , , , , , , , , , , , 
0.1230882, -0.0097353, 1.04625, -0.1286011, 1.04625, -0.5269775, 1.04625, 0.7910767, 1.04625, -16.160305, 1.04625, 9.358779, 1.04625, -5.9312978, 0.1230882, 0.0135958, 1.04625, -0.6112061, 1.04625, -0.6906738, 1.04625, -0.4272461, 1.04625, -22.4961834, 1.04625, 6.5038166, 1.04625, 2.4351146, , , , , , , , , , , , , , , , , , , , , , 
0.1238824, -0.0063783, 1.053, -0.1252441, 1.053, -0.5300903, 1.053, 0.796814, 1.053, -16.0534344, 1.053, 9.4503813, 1.053, -5.4961834, 0.1238824, 0.0169528, 1.053, -0.6051636, 1.053, -0.6966553, 1.053, -0.4260254, 1.053, -22.8931293, 1.053, 7.4045801, 1.053, 1.9236641, , , , , , , , , , , , , , , , , , , , , , 
0.1246765, -0.0057069, 1.05975, -0.1206055, 1.05975, -0.5252686, 1.05975, 0.8009644, 1.05975, -15.7709923, 1.05975, 10.5572519, 1.05975, -5.0305343, 0.1246765, 0.0171206, 1.05975, -0.6051636, 1.05975, -0.7023315, 1.05975, -0.4247437, 1.05975, -22.9541988, 1.05975, 8.8625956, 1.05975, 1.9160305, , , , , , , , , , , , , , , , , , , , , , 
0.1254706, -0.0072175, 1.0665, -0.1172485, 1.0665, -0.5229492, 1.0665, 0.8120728, 1.0665, -15.8931293, 1.0665, 12.0992365, 1.0665, -4.8320613, 0.1254706, 0.012253, 1.0665, -0.6112061, 1.0665, -0.706543, 1.0665, -0.4283447, 1.0665, -23.0076332, 1.0665, 10.8931293, 1.0665, 2.3206108, , , , , , , , , , , , , , , , , , , , , , 
0.1262647, -0.012253, 1.07325, -0.111145, 1.07325, -0.5214844, 1.07325, 0.8154297, 1.07325, -16.0534344, 1.07325, 13.3129768, 1.07325, -4.8473282, 0.1262647, 0.0099031, 1.07325, -0.6193237, 1.07325, -0.7063599, 1.07325, -0.4283447, 1.07325, -23.0152664, 1.07325, 11.801527, 1.07325, 2.4351146, , , , , , , , , , , , , , , , , , , , , , 
0.1270588, -0.0102388, 1.08, -0.1061401, 1.08, -0.5219727, 1.08, 0.8132935, 1.08, -16.6259537, 1.08, 13.9541988, 1.08, -4.778626, 0.1270588, 0.0085603, 1.08, -0.6243286, 1.08, -0.7060547, 1.08, -0.4280396, 1.08, -23.3129768, 1.08, 12.9923668, 1.08, 2.8473282, , , , , , , , , , , , , , , , , , , , , , 
0.1278529, -0.0102388, 1.08675, -0.1080933, 1.08675, -0.5248413, 1.08675, 0.8078613, 1.08675, -16.1374054, 1.08675, 14.4580154, 1.08675, -4.6183205, 0.1278529, 0.0119173, 1.08675, -0.6289062, 1.08675, -0.7018433, 1.08675, -0.432312, 1.08675, -23.7099228, 1.08675, 13.0152674, 1.08675, 3.0610688, , , , , , , , , , , , , , , , , , , , , , 
0.1286471, -0.0095674, 1.0935, -0.1045532, 1.0935, -0.5233154, 1.0935, 0.7991333, 1.0935, -15.7633591, 1.0935, 15.7404585, 1.0935, -4.6564884, 0.1286471, 0.0078889, 1.0935, -0.6255493, 1.0935, -0.6983643, 1.0935, -0.4287109, 1.0935, -24, 1.0935, 11.7786255, 1.0935, 2.8473282, , , , , , , , , , , , , , , , , , , , , , 
0.1294412, -0.0092317, 1.10025, -0.1085815, 1.10025, -0.5182495, 1.10025, 0.791626, 1.10025, -15.320611, 1.10025, 17.2366409, 1.10025, -4.6259542, 0.1294412, 0.0078889, 1.10025, -0.6195068, 1.10025, -0.6989136, 1.10025, -0.4226685, 1.10025, -23.9847336, 1.10025, 10.4961834, 1.10025, 2.4961832, , , , , , , , , , , , , , , , , , , , , , 
0.1302353, -0.012253, 1.107, -0.1170044, 1.107, -0.5131836, 1.107, 0.7892456, 1.107, -15.2748089, 1.107, 17.9160309, 1.107, -4.8396945, 0.1302353, 0.0085603, 1.107, -0.6152954, 1.107, -0.6941528, 1.107, -0.4154663, 1.107, -23.9541988, 1.107, 10.2977095, 1.107, 2.1526718, , , , , , , , , , , , , , , , , , , , , , 
0.1310294, -0.0129244, 1.11375, -0.1195068, 1.11375, -0.5092773, 1.11375, 0.788269, 1.11375, -15.4503813, 1.11375, 17.2900772, 1.11375, -4.8015265, 0.1310294, 0.0052033, 1.11375, -0.6126099, 1.11375, -0.6965332, 1.11375, -0.4107666, 1.11375, -24.32061, 1.11375, 12.1068707, 1.11375, 1.6412214, , , , , , , , , , , , , , , , , , , , , , 
0.1318235, -0.0102388, 1.1205, -0.1220093, 1.1205, -0.5064087, 1.1205, 0.7897339, 1.1205, -15.0687027, 1.1205, 16.4580154, 1.1205, -4.7633586, 0.1318235, 0.0065461, 1.1205, -0.6170654, 1.1205, -0.6906128, 1.1205, -0.4043579, 1.1205, -24.9465656, 1.1205, 15.2290077, 1.1205, 1.6946565, , , , , , , , , , , , , , , , , , , , , , 
0.1326176, -0.0095674, 1.12725, -0.1251831, 1.12725, -0.5123291, 1.12725, 0.7901001, 1.12725, -14.8473282, 1.12725, 15.9160309, 1.12725, -4.7328243, 0.1326176, 0.0072175, 1.12725, -0.6259766, 1.12725, -0.6934814, 1.12725, -0.4024048, 1.12725, -25.3664131, 1.12725, 17.4045811, 1.12725, 1.8778626, , , , , , , , , , , , , , , , , , , , , , 
0.1334118, -0.0083925, 1.134, -0.1239624, 1.134, -0.5140991, 1.134, 0.7914429, 1.134, -14.9847326, 1.134, 15.1145039, 1.134, -4.3816795, 0.1334118, 0.0068818, 1.134, -0.6343384, 1.134, -0.6965332, 1.134, -0.4077148, 1.134, -25.1832066, 1.134, 17.1374054, 1.134, 2.0534351, , , , , , , , , , , , , , , , , , , , , , 
0.1342059, -0.0048676, 1.14075, -0.130188, 1.14075, -0.515686, 1.14075, 0.7943726, 1.14075, -15.4503813, 1.14075, 14.1297712, 1.14075, -4.0687022, 0.1342059, 0.0105745, 1.14075, -0.6373291, 1.14075, -0.7034912, 1.14075, -0.4122925, 1.14075, -24.442749, 1.14075, 15.0229006, 1.14075, 2.2442749, , , , , , , , , , , , , , , , , , , , , , 
0.135, -0.0028534, 1.1475, -0.1272583, 1.1475, -0.5159302, 1.1475, 0.8059082, 1.1475, -15.8702288, 1.1475, 12.9389315, 1.1475, -4.1374044, 0.135, 0.0099031, 1.1475, -0.6428223, 1.1475, -0.7091675, 1.1475, -0.4215088, 1.1475, -23.7480907, 1.1475, 12.3969469, 1.1475, 2.6793892, , , , , , , , , , , , , , , , , , , , , , 
0.1357941, -0.0025177, 1.15425, -0.1268921, 1.15425, -0.5206909, 1.15425, 0.8132935, 1.15425, -15.9541988, 1.15425, 11.6106873, 1.15425, -4.2061067, 0.1357941, 0.0157778, 1.15425, -0.6473999, 1.15425, -0.7120972, 1.15425, -0.4239502, 1.15425, -23.67939, 1.15425, 10.5496187, 1.15425, 2.9312978, , , , , , , , , , , , , , , , , , , , , , 
0.1365882, -0.0015106, 1.161, -0.1223145, 1.161, -0.5269165, 1.161, 0.819397, 1.161, -15.5877867, 1.161, 10.4656487, 1.161, -4.2442746, 0.1365882, 0.0193027, 1.161, -0.6532593, 1.161, -0.7203369, 1.161, -0.4266968, 1.161, -23.7404575, 1.161, 9.5038166, 1.161, 3.5725191, , , , , , , , , , , , , , , , , , , , , , 
0.1373824, -0.0018463, 1.16775, -0.121582, 1.16775, -0.5275879, 1.16775, 0.8118896, 1.16775, -15.3740454, 1.16775, 10.5038166, 1.16775, -4.259542, 0.1373824, 0.01561, 1.16775, -0.6524658, 1.16775, -0.7238159, 1.16775, -0.4203491, 1.16775, -23.839695, 1.16775, 8.0534353, 1.16775, 4.3893127, , , , , , , , , , , , , , , , , , , , , , 
0.1381765, -0.0045319, 1.1745, -0.1147461, 1.1745, -0.526123, 1.1745, 0.807373, 1.1745, -15.2061071, 1.1745, 11.2290077, 1.1745, -4.3969464, 0.1381765, 0.0119173, 1.1745, -0.6452637, 1.1745, -0.7249756, 1.1745, -0.4207153, 1.1745, -23.3129768, 1.1745, 7.0229006, 1.1745, 5, , , , , , , , , , , , , , , , , , , , , , 
0.1389706, -0.0035248, 1.18125, -0.1112061, 1.18125, -0.5245361, 1.18125, 0.8060303, 1.18125, -15.7786255, 1.18125, 12.1832066, 1.18125, -4.3206105, 0.1389706, 0.010071, 1.18125, -0.6305542, 1.18125, -0.7215576, 1.18125, -0.4230347, 1.18125, -22.6870232, 1.18125, 7.1679387, 1.18125, 4.9465647, , , , , , , , , , , , , , , , , , , , , , 
0.1397647, -0.0028534, 1.188, -0.1086426, 1.188, -0.5247803, 1.188, 0.8078613, 1.188, -16.1297703, 1.188, 12.6183205, 1.188, -4.4732823, 0.1397647, 0.0112459, 1.188, -0.6204224, 1.188, -0.713562, 1.188, -0.4318848, 1.188, -22.5267181, 1.188, 8.4351149, 1.188, 4.3893127, , , , , , , , , , , , , , , , , , , , , , 
0.1405588, -0.005539, 1.19475, -0.1072998, 1.19475, -0.5186157, 1.19475, 0.8086548, 1.19475, -15.7633591, 1.19475, 12.9236641, 1.19475, -5.1755724, 0.1405588, 0.0135958, 1.19475, -0.612793, 1.19475, -0.7075806, 1.19475, -0.4316406, 1.19475, -22.557251, 1.19475, 9.1450386, 1.19475, 3.8091602, , , , , , , , , , , , , , , , , , , , , , 
0.1413529, -0.0052033, 1.2015, -0.1109009, 1.2015, -0.5164795, 1.2015, 0.8031006, 1.2015, -15.5114508, 1.2015, 13.4885492, 1.2015, -5.4580154, 0.1413529, 0.0139315, 1.2015, -0.6132202, 1.2015, -0.7075195, 1.2015, -0.4326172, 1.2015, -22.6106873, 1.2015, 10.6870232, 1.2015, 2.7251909, , , , , , , , , , , , , , , , , , , , , , 
0.1421471, -0.0058747, 1.20825, -0.1156616, 1.20825, -0.513855, 1.20825, 0.8034668, 1.20825, -16.3129768, 1.20825, 13.9236641, 1.20825, -6.0763359, 0.1421471, 0.0149386, 1.20825, -0.6192017, 1.20825, -0.7038574, 1.20825, -0.430481, 1.20825, -22.3893127, 1.20825, 12.3511448, 1.20825, 2.1679389, , , , , , , , , , , , , , , , , , , , , , 
0.1429412, -0.0085603, 1.215, -0.1192017, 1.215, -0.5184937, 1.215, 0.8128662, 1.215, -17.1450386, 1.215, 14.4351149, 1.215, -6.1755724, 0.1429412, 0.0171206, 1.215, -0.6258545, 1.215, -0.7047119, 1.215, -0.4354248, 1.215, -22.557251, 1.215, 12.7633591, 1.215, 1.8854961, , , , , , , , , , , , , , , , , , , , , , 
0.1437353, -0.0083925, 1.22175, -0.1208496, 1.22175, -0.5169067, 1.22175, 0.8164673, 1.22175, -17.5725193, 1.22175, 14.9923668, 1.22175, -6.4351144, 0.1437353, 0.0149386, 1.22175, -0.6342163, 1.22175, -0.7112427, 1.22175, -0.4380493, 1.22175, -22.3435116, 1.22175, 11.8702288, 1.22175, 2.1526718, , , , , , , , , , , , , , , , , , , , , , 
0.1445294, -0.0105745, 1.2285, -0.1281128, 1.2285, -0.5205078, 1.2285, 0.8205566, 1.2285, -17.7175579, 1.2285, 16.1221371, 1.2285, -6.6183205, 0.1445294, 0.0112459, 1.2285, -0.6408691, 1.2285, -0.7125854, 1.2285, -0.4416504, 1.2285, -21.7099228, 1.2285, 10.3664122, 1.2285, 2.7099237, , , , , , , , , , , , , , , , , , , , , , 
0.1453235, -0.0130922, 1.23525, -0.1359863, 1.23525, -0.5137939, 1.23525, 0.8218384, 1.23525, -17.9312973, 1.23525, 16.7022896, 1.23525, -6.9847326, 0.1453235, 0.0092317, 1.23525, -0.6447144, 1.23525, -0.7096558, 1.23525, -0.4424438, 1.23525, -21.2290077, 1.23525, 9.1526718, 1.23525, 3.3740458, , , , , , , , , , , , , , , , , , , , , , 
0.1461176, -0.0115816, 1.242, -0.1362305, 1.242, -0.5142822, 1.242, 0.817749, 1.242, -17.8091602, 1.242, 16.2137413, 1.242, -7.4427481, 0.1461176, 0.012253, 1.242, -0.6443481, 1.242, -0.7045288, 1.242, -0.4348755, 1.242, -21.67939, 1.242, 8.801527, 1.242, 3.8625953, , , , , , , , , , , , , , , , , , , , , , 
0.1469118, -0.0112459, 1.24875, -0.1369019, 1.24875, -0.5056152, 1.24875, 0.8082886, 1.24875, -17.2366409, 1.24875, 15.2595415, 1.24875, -7.519084, 0.1469118, 0.0092317, 1.24875, -0.6383057, 1.24875, -0.6936035, 1.24875, -0.4224854, 1.24875, -22.4198475, 1.24875, 9.6946564, 1.24875, 4.1755724, , , , , , , , , , , , , , , , , , , , , , 
0.1477059, -0.0115816, 1.2555, -0.1277466, 1.2555, -0.5063477, 1.2555, 0.7955933, 1.2555, -16.3664131, 1.2555, 13.9160309, 1.2555, -6.9160304, 0.1477059, 0.0065461, 1.2555, -0.6245728, 1.2555, -0.6779785, 1.2555, -0.4105835, 1.2555, -23.1755733, 1.2555, 11.9694653, 1.2555, 3.5954199, , , , , , , , , , , , , , , , , , , , , , 
0.1485, -0.0082246, 1.26225, -0.1129761, 1.26225, -0.5053101, 1.26225, 0.7851562, 1.26225, -15.8931293, 1.26225, 13.2442751, 1.26225, -6.1145039, 0.1485, 0.0068818, 1.26225, -0.6139526, 1.26225, -0.6630859, 1.26225, -0.4050293, 1.26225, -23.8549614, 1.26225, 13.4427481, 1.26225, 2.2442749, , , , , , , , , , , , , , , , , , , , , , 
0.1492941, -0.005539, 1.269, -0.1054688, 1.269, -0.4995728, 1.269, 0.7877808, 1.269, -15.8931293, 1.269, 13.4045801, 1.269, -5.4885497, 0.1492941, 0.0104067, 1.269, -0.6150513, 1.269, -0.65802, 1.269, -0.4035645, 1.269, -24.4732819, 1.269, 13.7786255, 1.269, 0.6641222, , , , , , , , , , , , , , , , , , , , , , 
0.1500882, -0.0072175, 1.27575, -0.1123047, 1.27575, -0.4987183, 1.27575, 0.7940063, 1.27575, -16.1068707, 1.27575, 13.8244276, 1.27575, -5.2977099, 0.1500882, 0.0068818, 1.27575, -0.6233521, 1.27575, -0.6599121, 1.27575, -0.4050293, 1.27575, -25.0458012, 1.27575, 12.8778629, 1.27575, -0.5648855, , , , , , , , , , , , , , , , , , , , , , 
0.1508824, -0.0063783, 1.2825, -0.1306763, 1.2825, -0.5039673, 1.2825, 0.7987671, 1.2825, -16.4885502, 1.2825, 14.5267172, 1.2825, -5.1450381, 0.1508824, 0.0102388, 1.2825, -0.6451416, 1.2825, -0.6721191, 1.2825, -0.4070435, 1.2825, -25.9770985, 1.2825, 11.3740454, 1.2825, -0.5038168, , , , , , , , , , , , , , , , , , , , , , 
0.1516765, -0.0041962, 1.28925, -0.1442871, 1.28925, -0.5095215, 1.28925, 0.798645, 1.28925, -16.5114498, 1.28925, 14.4045801, 1.28925, -5.2900763, 0.1516765, 0.0105745, 1.28925, -0.6557617, 1.28925, -0.682373, 1.28925, -0.4099731, 1.28925, -26.7175579, 1.28925, 8.9160309, 1.28925, 1.2671756, , , , , , , , , , , , , , , , , , , , , , 
0.1524706, -0.0052033, 1.296, -0.149231, 1.296, -0.5201416, 1.296, 0.7981567, 1.296, -16.4580154, 1.296, 12.7862597, 1.296, -5.0916033, 0.1524706, 0.0099031, 1.296, -0.6623535, 1.296, -0.7044678, 1.296, -0.4185181, 1.296, -26.1832066, 1.296, 4.7328243, 1.296, 4.1755724, , , , , , , , , , , , , , , , , , , , , , 
0.1532647, -0.0058747, 1.30275, -0.1420898, 1.30275, -0.5279541, 1.30275, 0.8039551, 1.30275, -16.6870232, 1.30275, 10.679389, 1.30275, -4.7099237, 0.1532647, 0.0099031, 1.30275, -0.6464844, 1.30275, -0.7282104, 1.30275, -0.4293213, 1.30275, -24.0076332, 1.30275, 0.9770992, 1.30275, 6.740458, , , , , , , , , , , , , , , , , , , , , , 
0.1540588, -0.0068818, 1.3095, -0.1242065, 1.3095, -0.5367432, 1.3095, 0.8101196, 1.3095, -16.9847336, 1.3095, 8.8473282, 1.3095, -4.3053436, 0.1540588, 0.0112459, 1.3095, -0.6165161, 1.3095, -0.7402954, 1.3095, -0.4481201, 1.3095, -21.603054, 1.3095, 0.1755725, 1.3095, 8.4122133, , , , , , , , , , , , , , , , , , , , , , 
0.1548529, -0.0082246, 1.31625, -0.1054688, 1.31625, -0.5389404, 1.31625, 0.8155518, 1.31625, -16.67939, 1.31625, 8.5877867, 1.31625, -4.2977099, 0.1548529, 0.0159457, 1.31625, -0.590271, 1.31625, -0.7390747, 1.31625, -0.4552612, 1.31625, -19.9007626, 1.31625, 3.5038168, 1.31625, 8.7862597, , , , , , , , , , , , , , , , , , , , , , 
0.1556471, -0.0068818, 1.323, -0.0863647, 1.323, -0.536377, 1.323, 0.8170776, 1.323, -16.1450386, 1.323, 10.4580154, 1.323, -4.6564884, 0.1556471, 0.018967, 1.323, -0.5769653, 1.323, -0.7235718, 1.323, -0.4492798, 1.323, -19.9694653, 1.323, 6.3969464, 1.323, 8.5419846, , , , , , , , , , , , , , , , , , , , , , 
0.1564412, -0.008896, 1.32975, -0.0748291, 1.32975, -0.5372925, 1.32975, 0.8074341, 1.32975, -15.5343513, 1.32975, 13.4427481, 1.32975, -5.480916, 0.1564412, 0.0186313, 1.32975, -0.5786743, 1.32975, -0.7047729, 1.32975, -0.4308472, 1.32975, -21.5725193, 1.32975, 13.0916033, 1.32975, 6.5877862, , , , , , , , , , , , , , , , , , , , , , 
0.1572353, -0.012253, 1.3365, -0.0764771, 1.3365, -0.5372925, 1.3365, 0.8039551, 1.3365, -14.5877867, 1.3365, 16.358778, 1.3365, -6.2748094, 0.1572353, 0.0172885, 1.3365, -0.5869141, 1.3365, -0.6890259, 1.3365, -0.4105835, 1.3365, -24.4961834, 1.3365, 19.2061062, 1.3365, 3.9312978, , , , , , , , , , , , , , , , , , , , , , 
0.1580294, -0.0105745, 1.34325, -0.074646, 1.34325, -0.5350952, 1.34325, 0.7991333, 1.34325, -13.8473282, 1.34325, 18.839695, 1.34325, -6.5801525, 0.1580294, 0.0139315, 1.34325, -0.6049194, 1.34325, -0.6813354, 1.34325, -0.3894653, 1.34325, -27.0916023, 1.34325, 23.0152664, 1.34325, 1.2671756, , , , , , , , , , , , , , , , , , , , , , 
0.1588235, -0.0115816, 1.35, -0.0787354, 1.35, -0.5296631, 1.35, 0.7907104, 1.35, -13.3740454, 1.35, 20.396946, 1.35, -6.2061067, 0.1588235, 0.0139315, 1.35, -0.619873, 1.35, -0.6842651, 1.35, -0.3811646, 1.35, -27.9236641, 1.35, 23.0076332, 1.35, -0.5267175, , , , , , , , , , , , , , , , , , , , , , 
0.1596176, -0.0115816, 1.35675, -0.0916138, 1.35675, -0.5266113, 1.35675, 0.7859497, 1.35675, -13.4274807, 1.35675, 22.1374054, 1.35675, -5.6030536, 0.1596176, 0.0090639, 1.35675, -0.6369019, 1.35675, -0.6912842, 1.35675, -0.3883057, 1.35675, -27.1145039, 1.35675, 19.8702297, 1.35675, -0.8015267, , , , , , , , , , , , , , , , , , , , , , 
0.1604118, -0.0139315, 1.3635, -0.1118164, 1.3635, -0.5178833, 1.3635, 0.7802734, 1.3635, -14.2137403, 1.3635, 22.8625946, 1.3635, -5.0458016, 0.1604118, 0.0083925, 1.3635, -0.6408691, 1.3635, -0.699585, 1.3635, -0.4043579, 1.3635, -25.6641216, 1.3635, 15.1221371, 1.3635, -0.221374, , , , , , , , , , , , , , , , , , , , , , 
0.1612059, -0.0104067, 1.37025, -0.1343994, 1.37025, -0.5185547, 1.37025, 0.7870483, 1.37025, -15.480916, 1.37025, 22.2748089, 1.37025, -4.7633586, 0.1612059, 0.011078, 1.37025, -0.6464844, 1.37025, -0.7133789, 1.37025, -0.4222412, 1.37025, -25.2977104, 1.37025, 11, 1.37025, 1.3053435, , , , , , , , , , , , , , , , , , , , , , 
0.162, -0.0072175, 1.377, -0.1553955, 1.377, -0.5175781, 1.377, 0.7984619, 1.377, -16.198473, 1.377, 20.2977104, 1.377, -4.2977099, 0.162, 0.0112459, 1.377, -0.6466675, 1.377, -0.7330933, 1.377, -0.4326782, 1.377, -25.6183205, 1.377, 8.9923668, 1.377, 3.2061069, , , , , , , , , , , , , , , , , , , , , , 
0.1627941, -0.0075532, 1.38375, -0.1610718, 1.38375, -0.522644, 1.38375, 0.8115845, 1.38375, -16.8854961, 1.38375, 16.9389305, 1.38375, -4.480916, 0.1627941, 0.0166171, 1.38375, -0.6447144, 1.38375, -0.7480469, 1.38375, -0.4333496, 1.38375, -24.8244267, 1.38375, 8.9541988, 1.38375, 5.4656487, , , , , , , , , , , , , , , , , , , , , , 
0.1635882, -0.0092317, 1.3905, -0.1617432, 1.3905, -0.5270386, 1.3905, 0.8166504, 1.3905, -16.8854961, 1.3905, 14.8320608, 1.3905, -4.6870227, 0.1635882, 0.0146029, 1.3905, -0.6448364, 1.3905, -0.7550659, 1.3905, -0.435791, 1.3905, -22.8549614, 1.3905, 10.1297712, 1.3905, 7.4503818, , , , , , , , , , , , , , , , , , , , , , 
0.1643824, -0.0109102, 1.39725, -0.147522, 1.39725, -0.531189, 1.39725, 0.8108521, 1.39725, -16.6335869, 1.39725, 10.8549614, 1.39725, -4.9083967, 0.1643824, 0.0146029, 1.39725, -0.6365356, 1.39725, -0.7434692, 1.39725, -0.4385986, 1.39725, -20.7938938, 1.39725, 11.5038166, 1.39725, 8.3664122, , , , , , , , , , , , , , , , , , , , , , 
0.1651765, -0.0130922, 1.404, -0.1308594, 1.404, -0.5341797, 1.404, 0.8034668, 1.404, -16.9236641, 1.404, 8.7786255, 1.404, -5.1450381, 0.1651765, 0.0179599, 1.404, -0.6323242, 1.404, -0.7269287, 1.404, -0.4405518, 1.404, -20.3893127, 1.404, 12.4580154, 1.404, 7.7557254, , , , , , , , , , , , , , , , , , , , , , 
0.1659706, -0.0149386, 1.41075, -0.1116333, 1.41075, -0.53479, 1.41075, 0.7949219, 1.41075, -17.1450386, 1.41075, 9.2595415, 1.41075, -5.5114503, 0.1659706, 0.0196384, 1.41075, -0.6298218, 1.41075, -0.7086792, 1.41075, -0.4312744, 1.41075, -21.7938938, 1.41075, 12.5725193, 1.41075, 5.5725193, , , , , , , , , , , , , , , , , , , , , , 
0.1667647, -0.0146029, 1.4175, -0.0988159, 1.4175, -0.5349731, 1.4175, 0.7955322, 1.4175, -16.9389305, 1.4175, 10.8625956, 1.4175, -6.0152674, 0.1667647, 0.0159457, 1.4175, -0.6246338, 1.4175, -0.7018433, 1.4175, -0.4199829, 1.4175, -23.839695, 1.4175, 11.839695, 1.4175, 2.6183207, , , , , , , , , , , , , , , , , , , , , , 
0.1675588, -0.0162814, 1.42425, -0.0899658, 1.42425, -0.5365601, 1.42425, 0.7919922, 1.42425, -16.2595425, 1.42425, 11.9694653, 1.42425, -6.2442746, 0.1675588, 0.0135958, 1.42425, -0.619812, 1.42425, -0.6920776, 1.42425, -0.4009399, 1.42425, -25.1832066, 1.42425, 11.3129768, 1.42425, -0.1221374, , , , , , , , , , , , , , , , , , , , , , 
0.1683529, -0.0151064, 1.431, -0.0870972, 1.431, -0.5283813, 1.431, 0.7883301, 1.431, -15.2137403, 1.431, 13.0076332, 1.431, -6.0992365, 0.1683529, 0.0085603, 1.431, -0.6181641, 1.431, -0.6904907, 1.431, -0.3875122, 1.431, -25.7175579, 1.431, 11.2671757, 1.431, -1.6793894, , , , , , , , , , , , , , , , , , , , , , 
0.1691471, -0.0129244, 1.43775, -0.0960693, 1.43775, -0.524353, 1.43775, 0.7908936, 1.43775, -14.9847326, 1.43775, 14.358779, 1.43775, -5.6030536, 0.1691471, 0.0072175, 1.43775, -0.6149292, 1.43775, -0.6903687, 1.43775, -0.385437, 1.43775, -25.1679382, 1.43775, 11.2137403, 1.43775, -1.7862595, , , , , , , , , , , , , , , , , , , , , , 
0.1699412, -0.0112459, 1.4445, -0.1035767, 1.4445, -0.5212402, 1.4445, 0.7937012, 1.4445, -15.038168, 1.4445, 15.3969469, 1.4445, -5.1374044, 0.1699412, 0.0085603, 1.4445, -0.6172485, 1.4445, -0.6954346, 1.4445, -0.3961792, 1.4445, -24.9389305, 1.4445, 11.1679392, 1.4445, -1.5801526, , , , , , , , , , , , , , , , , , , , , , 
0.1707353, -0.0083925, 1.45125, -0.1207886, 1.45125, -0.5227051, 1.45125, 0.8012085, 1.45125, -15.717557, 1.45125, 15.6259546, 1.45125, -4.740458, 0.1707353, 0.0072175, 1.45125, -0.6248169, 1.45125, -0.7042847, 1.45125, -0.4102783, 1.45125, -24.5343513, 1.45125, 9.8625956, 1.45125, -0.3435115, , , , , , , , , , , , , , , , , , , , , , 
0.1715294, -0.0102388, 1.458, -0.1364136, 1.458, -0.526123, 1.458, 0.8062134, 1.458, -15.9770994, 1.458, 14.5648851, 1.458, -3.9923663, 0.1715294, 0.0048676, 1.458, -0.6351318, 1.458, -0.71521, 1.458, -0.4248047, 1.458, -24.7022896, 1.458, 8.1450386, 1.458, 1.7862595, , , , , , , , , , , , , , , , , , , , , , 
0.1723235, -0.0102388, 1.46475, -0.1437378, 1.46475, -0.5298462, 1.46475, 0.809021, 1.46475, -15.7862597, 1.46475, 13.282443, 1.46475, -3.5496182, 0.1723235, 0.0092317, 1.46475, -0.6365356, 1.46475, -0.7286987, 1.46475, -0.4363403, 1.46475, -24.4580154, 1.46475, 6.4198475, 1.46475, 4.2900763, , , , , , , , , , , , , , , , , , , , , , 
0.1731176, -0.0095674, 1.4715, -0.1400146, 1.4715, -0.5326538, 1.4715, 0.8075562, 1.4715, -15.4580154, 1.4715, 11.7557249, 1.4715, -3.2137403, 0.1731176, 0.0105745, 1.4715, -0.6356201, 1.4715, -0.7320557, 1.4715, -0.4438477, 1.4715, -23.3664131, 1.4715, 5.5725193, 1.4715, 6.5877862, , , , , , , , , , , , , , , , , , , , , , 
0.1739118, -0.0092317, 1.47825, -0.1347656, 1.47825, -0.5300903, 1.47825, 0.802124, 1.47825, -15.7938929, 1.47825, 10.320611, 1.47825, -3.2824428, 0.1739118, 0.0085603, 1.47825, -0.6281738, 1.47825, -0.7304077, 1.47825, -0.4490356, 1.47825, -21.8473282, 1.47825, 5.9389315, 1.47825, 7.8625956, , , , , , , , , , , , , , , , , , , , , , 
0.1747059, -0.0097353, 1.485, -0.1174927, 1.485, -0.52948, 1.485, 0.7988892, 1.485, -16.2977104, 1.485, 10.2595415, 1.485, -3.4351146, 0.1747059, 0.0159457, 1.485, -0.6167603, 1.485, -0.7197266, 1.485, -0.4467163, 1.485, -21.0076332, 1.485, 6.5572519, 1.485, 7.740458, , , , , , , , , , , , , , , , , , , , , , 
0.1755, -0.012253, 1.49175, -0.1085815, 1.49175, -0.5264893, 1.49175, 0.8007202, 1.49175, -16.3053436, 1.49175, 11.717557, 1.49175, -3.8625953, 0.1755, 0.0164492, 1.49175, -0.6070557, 1.49175, -0.7057495, 1.49175, -0.4407349, 1.49175, -21.396946, 1.49175, 8.0076332, 1.49175, 6.2519083, , , , , , , , , , , , , , , , , , , , , , 
0.1762941, -0.011078, 1.4985, -0.0969849, 1.4985, -0.520813, 1.4985, 0.8037109, 1.4985, -16.0839691, 1.4985, 12.6030531, 1.4985, -4.2137403, 0.1762941, 0.011078, 1.4985, -0.6075439, 1.4985, -0.6917114, 1.4985, -0.4275513, 1.4985, -22.5877857, 1.4985, 9.9770994, 1.4985, 3.9770992, , , , , , , , , , , , , , , , , , , , , , 
0.1770882, -0.008896, 1.50525, -0.095459, 1.50525, -0.5128784, 1.50525, 0.8005371, 1.50525, -15.2442751, 1.50525, 13.7099237, 1.50525, -4.7480917, 0.1770882, 0.012253, 1.50525, -0.6107178, 1.50525, -0.6801147, 1.50525, -0.413147, 1.50525, -24.2748089, 1.50525, 12.4503813, 1.50525, 1.6793894, , , , , , , , , , , , , , , , , , , , , , 
0.1778824, -0.0120851, 1.512, -0.0960693, 1.512, -0.505188, 1.512, 0.7947388, 1.512, -15, 1.512, 14.5038166, 1.512, -5.0916033, 0.1778824, 0.0092317, 1.512, -0.6173706, 1.512, -0.6737061, 1.512, -0.4046021, 1.512, -25.603054, 1.512, 15.5725193, 1.512, 0.0534351, , , , , , , , , , , , , , , , , , , , , , 
0.1786765, -0.0099031, 1.51875, -0.1063843, 1.51875, -0.5016479, 1.51875, 0.791748, 1.51875, -15.3282442, 1.51875, 15.5496187, 1.51875, -4.9770994, 0.1786765, 0.008896, 1.51875, -0.631897, 1.51875, -0.6719971, 1.51875, -0.4003906, 1.51875, -26.3053436, 1.51875, 17.3893127, 1.51875, -0.5419847, , , , , , , , , , , , , , , , , , , , , , 
0.1794706, -0.0062104, 1.5255, -0.1166382, 1.5255, -0.4989014, 1.5255, 0.7940063, 1.5255, -16.0534344, 1.5255, 16.4656487, 1.5255, -4.4656487, 0.1794706, 0.0119173, 1.5255, -0.6424561, 1.5255, -0.6746826, 1.5255, -0.4067383, 1.5255, -26.6488552, 1.5255, 16.8931293, 1.5255, -0.1450382, , , , , , , , , , , , , , , , , , , , , , 
0.1802647, -0.0035248, 1.53225, -0.1251831, 1.53225, -0.5081177, 1.53225, 0.8025513, 1.53225, -16.5038166, 1.53225, 16.7633591, 1.53225, -3.740458, 0.1802647, 0.0119173, 1.53225, -0.6503296, 1.53225, -0.6862793, 1.53225, -0.4161377, 1.53225, -26.4732819, 1.53225, 14.2595415, 1.53225, 0.9389313, , , , , , , , , , , , , , , , , , , , , , 
0.1810588, -0.0041962, 1.539, -0.1325684, 1.539, -0.5111084, 1.539, 0.8059082, 1.539, -16.8625946, 1.539, 16.2519093, 1.539, -3.2442749, 0.1810588, 0.0139315, 1.539, -0.652771, 1.539, -0.6916504, 1.539, -0.418457, 1.539, -26.2595425, 1.539, 10.5267172, 1.539, 2.1984732, , , , , , , , , , , , , , , , , , , , , , 
0.1818529, -0.002182, 1.54575, -0.1410522, 1.54575, -0.5137939, 1.54575, 0.8092041, 1.54575, -17.2748089, 1.54575, 14.4885492, 1.54575, -2.8473282, 0.1818529, 0.0139315, 1.54575, -0.65625, 1.54575, -0.7028809, 1.54575, -0.4282227, 1.54575, -25.8625946, 1.54575, 6.6030536, 1.54575, 3.3587787, , , , , , , , , , , , , , , , , , , , , , 
0.1826471, 0.0015106, 1.5525, -0.1473999, 1.5525, -0.5206909, 1.5525, 0.8128052, 1.5525, -17.603054, 1.5525, 12.1450386, 1.5525, -2.8931298, 0.1826471, 0.0157778, 1.5525, -0.6541748, 1.5525, -0.7161865, 1.5525, -0.4364014, 1.5525, -25.1068707, 1.5525, 3.8320611, 1.5525, 4.6183205, , , , , , , , , , , , , , , , , , , , , , 
0.1834412, 0.0011749, 1.55925, -0.1437378, 1.55925, -0.5205688, 1.55925, 0.8156738, 1.55925, -17.7709923, 1.55925, 10.1450386, 1.55925, -3.0610688, 0.1834412, 0.0179599, 1.55925, -0.6480713, 1.55925, -0.7248535, 1.55925, -0.4396362, 1.55925, -23.7099228, 1.55925, 3.3129771, 1.55925, 5.7099237, , , , , , , , , , , , , , , , , , , , , , 
0.1842353, 0.0028534, 1.566, -0.1373291, 1.566, -0.5219727, 1.566, 0.8167725, 1.566, -17.7175579, 1.566, 8.8854961, 1.566, -3.3740458, 0.1842353, 0.0159457, 1.566, -0.6392822, 1.566, -0.7282104, 1.566, -0.4386597, 1.566, -22.9160309, 1.566, 3.6564887, 1.566, 6.2442746, , , , , , , , , , , , , , , , , , , , , , 
0.1850294, 0.0011749, 1.57275, -0.1273804, 1.57275, -0.5216675, 1.57275, 0.8146362, 1.57275, -17.7022896, 1.57275, 8.9083967, 1.57275, -3.6717558, 0.1850294, 0.0125887, 1.57275, -0.6353149, 1.57275, -0.7284546, 1.57275, -0.4431152, 1.57275, -22.0152664, 1.57275, 5.3969464, 1.57275, 6.8167939, , , , , , , , , , , , , , , , , , , , , , 
0.1858235, -0.002182, 1.5795, -0.1187134, 1.5795, -0.5167847, 1.5795, 0.8103638, 1.5795, -18.0687027, 1.5795, 8.9236641, 1.5795, -3.8931298, 0.1858235, 0.011078, 1.5795, -0.6210327, 1.5795, -0.7133179, 1.5795, -0.4454346, 1.5795, -21.442749, 1.5795, 7.3511453, 1.5795, 6.6717558, , , , , , , , , , , , , , , , , , , , , , 
0.1866176, -0.0035248, 1.58625, -0.1062622, 1.58625, -0.5158691, 1.58625, 0.8099976, 1.58625, -18.9236641, 1.58625, 9.6717558, 1.58625, -4.1374044, 0.1866176, 0.0097353, 1.58625, -0.6159058, 1.58625, -0.7040405, 1.58625, -0.4484863, 1.58625, -21.7938938, 1.58625, 9.5114508, 1.58625, 5.4961834, , , , , , , , , , , , , , , , , , , , , , 
0.1874118, -0.0063783, 1.593, -0.097229, 1.593, -0.5181274, 1.593, 0.8129883, 1.593, -19.6335869, 1.593, 11.1755724, 1.593, -4.7251906, 0.1874118, 0.0083925, 1.593, -0.6112061, 1.593, -0.6992798, 1.593, -0.4432373, 1.593, -22.603054, 1.593, 11.4351149, 1.593, 3.7251909, , , , , , , , , , , , , , , , , , , , , , 
0.1882059, -0.0105745, 1.59975, -0.0949097, 1.59975, -0.5169678, 1.59975, 0.8120117, 1.59975, -20.4656487, 1.59975, 13.0763359, 1.59975, -5.259542, 0.1882059, 0.0085603, 1.59975, -0.6178589, 1.59975, -0.6974487, 1.59975, -0.434021, 1.59975, -23.5114498, 1.59975, 12.6870232, 1.59975, 1.8473282, , , , , , , , , , , , , , , , , , , , , , 
0.189, -0.0135958, 1.6065, -0.1013794, 1.6065, -0.5245361, 1.6065, 0.8164673, 1.6065, -20.4656487, 1.6065, 14.2213745, 1.6065, -5.6488547, 0.189, 0.0092317, 1.6065, -0.6295776, 1.6065, -0.7056885, 1.6065, -0.4199829, 1.6065, -24.038168, 1.6065, 12.8854961, 1.6065, 0.5572519, , , , , , , , , , , , , , , , , , , , , , 
0.1897941, -0.0109102, 1.61325, -0.105835, 1.61325, -0.5266724, 1.61325, 0.8136597, 1.61325, -19.8778629, 1.61325, 15.8625956, 1.61325, -6.0839696, 0.1897941, 0.0082246, 1.61325, -0.6350708, 1.61325, -0.7094727, 1.61325, -0.4102173, 1.61325, -24.3816795, 1.61325, 12.7709923, 1.61325, -0.1679389, , , , , , , , , , , , , , , , , , , , , , 
0.1905882, -0.0115816, 1.62, -0.1057129, 1.62, -0.5278931, 1.62, 0.8079224, 1.62, -19.0229015, 1.62, 16.5038166, 1.62, -6.2519083, 0.1905882, 0.0099031, 1.62, -0.6339111, 1.62, -0.7096558, 1.62, -0.406189, 1.62, -24.198473, 1.62, 13.1297712, 1.62, -0.5038168, , , , , , , , , , , , , , , , , , , , , , 
0.1913824, -0.0146029, 1.62675, -0.1071167, 1.62675, -0.5272827, 1.62675, 0.8024292, 1.62675, -18.2748089, 1.62675, 16.9083977, 1.62675, -6.1679387, 0.1913824, 0.0125887, 1.62675, -0.6324463, 1.62675, -0.7056885, 1.62675, -0.4070435, 1.62675, -23.9694653, 1.62675, 14.0687027, 1.62675, -0.3358779, , , , , , , , , , , , , , , , , , , , , , 
0.1921765, -0.0119173, 1.6335, -0.1085815, 1.6335, -0.5307007, 1.6335, 0.7937622, 1.6335, -17.480917, 1.6335, 16.9847336, 1.6335, -5.9847326, 0.1921765, 0.0146029, 1.6335, -0.6259155, 1.6335, -0.696228, 1.6335, -0.4098511, 1.6335, -24.1450386, 1.6335, 14.8167934, 1.6335, -0.2900763, , , , , , , , , , , , , , , , , , , , , , 
0.1929706, -0.0085603, 1.64025, -0.1137085, 1.64025, -0.5305176, 1.64025, 0.7911987, 1.64025, -16.9312973, 1.64025, 16.801527, 1.64025, -5.480916, 0.1929706, 0.0152743, 1.64025, -0.6233521, 1.64025, -0.6923218, 1.64025, -0.4061279, 1.64025, -24.4732819, 1.64025, 14.3053436, 1.64025, -0.4656489, , , , , , , , , , , , , , , , , , , , , , 
0.1937647, -0.0048676, 1.647, -0.1257935, 1.647, -0.527832, 1.647, 0.7902832, 1.647, -16.603054, 1.647, 16, 1.647, -5.1068702, 0.1937647, 0.0139315, 1.647, -0.6317139, 1.647, -0.6903076, 1.647, -0.4029541, 1.647, -24.8244267, 1.647, 12.2900763, 1.647, -0.4122137, , , , , , , , , , , , , , , , , , , , , , 
0.1945588, -0.0035248, 1.65375, -0.1348267, 1.65375, -0.527832, 1.65375, 0.7868652, 1.65375, -16.4503822, 1.65375, 14.6641226, 1.65375, -4.2519083, 0.1945588, 0.0193027, 1.65375, -0.6372681, 1.65375, -0.6977539, 1.65375, -0.4017334, 1.65375, -25.2366409, 1.65375, 9.2977095, 1.65375, -0.0152672, , , , , , , , , , , , , , , , , , , , , , 
0.1953529, -0.0046998, 1.6605, -0.1420898, 1.6605, -0.5288696, 1.6605, 0.7906494, 1.6605, -16.2900772, 1.6605, 12.3816795, 1.6605, -3.6412213, 0.1953529, 0.0172885, 1.6605, -0.6373901, 1.6605, -0.7001953, 1.6605, -0.4019775, 1.6605, -25.3816795, 1.6605, 5.9541984, 1.6605, 1.3358779, , , , , , , , , , , , , , , , , , , , , , 
0.1961471, -0.0043641, 1.66725, -0.1415405, 1.66725, -0.5305176, 1.66725, 0.7907104, 1.66725, -16.2061062, 1.66725, 10.2748089, 1.66725, -2.9541984, 0.1961471, 0.0179599, 1.66725, -0.6453247, 1.66725, -0.7086792, 1.66725, -0.4008789, 1.66725, -25.1068707, 1.66725, 2.7175572, 1.66725, 3.2290077, , , , , , , , , , , , , , , , , , , , , , 
0.1969412, -0.0062104, 1.674, -0.138855, 1.674, -0.5299683, 1.674, 0.7907715, 1.674, -16.2519093, 1.674, 8.3816795, 1.674, -2.4503818, 0.1969412, 0.0166171, 1.674, -0.6401367, 1.674, -0.7194824, 1.674, -0.4088135, 1.674, -23.7709923, 1.674, 0.610687, 1.674, 5.4732823, , , , , , , , , , , , , , , , , , , , , , 
0.1977353, -0.008896, 1.68075, -0.1275635, 1.68075, -0.5311279, 1.68075, 0.7894897, 1.68075, -16.3282452, 1.68075, 6.8091602, 1.68075, -2.3053436, 0.1977353, 0.0112459, 1.68075, -0.632019, 1.68075, -0.7268066, 1.68075, -0.4216919, 1.68075, -22.6183205, 1.68075, 0.0916031, 1.68075, 7.1603055, , , , , , , , , , , , , , , , , , , , , , 
0.1985294, -0.0117494, 1.6875, -0.1162109, 1.6875, -0.5408936, 1.6875, 0.7930908, 1.6875, -16.32061, 1.6875, 6.3893127, 1.6875, -2.4732823, 0.1985294, 0.0125887, 1.6875, -0.6139526, 1.6875, -0.7282715, 1.6875, -0.4286499, 1.6875, -21.839695, 1.6875, 1.2977099, 1.6875, 7.5267177, , , , , , , , , , , , , , , , , , , , , , 
0.1993235, -0.0149386, 1.69425, -0.1005249, 1.69425, -0.538269, 1.69425, 0.7994995, 1.69425, -16, 1.69425, 7.2061067, 1.69425, -2.5801528, 0.1993235, 0.0139315, 1.69425, -0.6078491, 1.69425, -0.7269287, 1.69425, -0.4300537, 1.69425, -21.4732819, 1.69425, 2.1068702, 1.69425, 7.3816795, , , , , , , , , , , , , , , , , , , , , , 
0.2001176, -0.0162814, 1.701, -0.0876465, 1.701, -0.5368042, 1.701, 0.8085327, 1.701, -15.519084, 1.701, 8.6870232, 1.701, -3.0305343, 0.2001176, 0.0127565, 1.701, -0.5995483, 1.701, -0.7155151, 1.701, -0.4297485, 1.701, -21.1832066, 1.701, 4.7633586, 1.701, 6.3358779, , , , , , , , , , , , , , , , , , , , , , 
0.2009118, -0.0176242, 1.70775, -0.0800171, 1.70775, -0.5280762, 1.70775, 0.8156738, 1.70775, -15.1832066, 1.70775, 10.7251911, 1.70775, -3.5725191, 0.2009118, 0.0119173, 1.70775, -0.5999146, 1.70775, -0.704895, 1.70775, -0.4298706, 1.70775, -21.9083977, 1.70775, 8.839695, 1.70775, 4.6793895, , , , , , , , , , , , , , , , , , , , , , 
0.2017059, -0.0176242, 1.7145, -0.0807495, 1.7145, -0.5263672, 1.7145, 0.8139648, 1.7145, -15.0458012, 1.7145, 13.1755724, 1.7145, -3.9770992, 0.2017059, 0.0107424, 1.7145, -0.6057739, 1.7145, -0.6960449, 1.7145, -0.4223022, 1.7145, -23.198473, 1.7145, 12.6183205, 1.7145, 2.4503818, , , , , , , , , , , , , , , , , , , , , , 
0.2025, -0.0169528, 1.72125, -0.0874634, 1.72125, -0.5205078, 1.72125, 0.8112793, 1.72125, -15.0534353, 1.72125, 14.2519083, 1.72125, -4.2671757, 0.2025, 0.0075532, 1.72125, -0.6187134, 1.72125, -0.6881104, 1.72125, -0.4146118, 1.72125, -24.4732819, 1.72125, 14.8091602, 1.72125, 0.6946565, , , , , , , , , , , , , , , , , , , , , , 
0.2032941, -0.0159457, 1.728, -0.0957031, 1.728, -0.5161133, 1.728, 0.7982788, 1.728, -15.5419846, 1.728, 16.2671757, 1.728, -4.5954199, 0.2032941, 0.0060426, 1.728, -0.6351318, 1.728, -0.6883545, 1.728, -0.4110107, 1.728, -25.3282452, 1.728, 14.4732828, 1.728, 0.0076336, , , , , , , , , , , , , , , , , , , , , , 
0.2040882, -0.0182956, 1.73475, -0.1080933, 1.73475, -0.5206299, 1.73475, 0.7891846, 1.73475, -16.0687027, 1.73475, 17.0992374, 1.73475, -4.7480917, 0.2040882, 0.0099031, 1.73475, -0.6436157, 1.73475, -0.6904907, 1.73475, -0.413269, 1.73475, -25.6335869, 1.73475, 12.2442751, 1.73475, 0.0687023, , , , , , , , , , , , , , , , , , , , , , 
0.2048824, -0.0169528, 1.7415, -0.1109009, 1.7415, -0.5223999, 1.7415, 0.7858276, 1.7415, -16.6870232, 1.7415, 17.1908398, 1.7415, -4.4198475, 0.2048824, 0.0109102, 1.7415, -0.6381226, 1.7415, -0.7025757, 1.7415, -0.4164429, 1.7415, -25.6870232, 1.7415, 9.8473282, 1.7415, 0.5267175, , , , , , , , , , , , , , , , , , , , , , 
0.2056765, -0.012253, 1.74825, -0.1199951, 1.74825, -0.5269775, 1.74825, 0.7904053, 1.74825, -16.9160309, 1.74825, 17.1221371, 1.74825, -4.0534353, 0.2056765, 0.0095674, 1.74825, -0.62677, 1.74825, -0.7079468, 1.74825, -0.4207153, 1.74825, -25.7633591, 1.74825, 8.4580154, 1.74825, 1.5343511, , , , , , , , , , , , , , , , , , , , , , 
0.2064706, -0.0075532, 1.755, -0.1276245, 1.755, -0.5344849, 1.755, 0.793396, 1.755, -16.801527, 1.755, 16.6183205, 1.755, -3.9465649, 0.2064706, 0.012253, 1.755, -0.6181641, 1.755, -0.7169189, 1.755, -0.4207764, 1.755, -25.160305, 1.755, 8.9312973, 1.755, 2.1526718, , , , , , , , , , , , , , , , , , , , , , 
0.2072647, -0.010071, 1.76175, -0.1330566, 1.76175, -0.5354004, 1.76175, 0.7954712, 1.76175, -16.4580154, 1.76175, 15.9465647, 1.76175, -4.0305343, 0.2072647, 0.0164492, 1.76175, -0.6195068, 1.76175, -0.7203979, 1.76175, -0.4163208, 1.76175, -24.5114498, 1.76175, 10.1908398, 1.76175, 3.129771, , , , , , , , , , , , , , , , , , , , , , 
0.2080588, -0.008896, 1.7685, -0.1339722, 1.7685, -0.5325928, 1.7685, 0.7990112, 1.7685, -15.8702288, 1.7685, 14.3435116, 1.7685, -4.0152674, 0.2080588, 0.0152743, 1.7685, -0.6199951, 1.7685, -0.7195435, 1.7685, -0.4141846, 1.7685, -23.8854961, 1.7685, 10.9694653, 1.7685, 3.5343511, , , , , , , , , , , , , , , , , , , , , , 
0.2088529, -0.005539, 1.77525, -0.1328125, 1.77525, -0.5324097, 1.77525, 0.800293, 1.77525, -15.5267172, 1.77525, 12.6641226, 1.77525, -3.8015268, 0.2088529, 0.0132601, 1.77525, -0.6286621, 1.77525, -0.7125244, 1.77525, -0.4161377, 1.77525, -23.3664131, 1.77525, 11.2595415, 1.77525, 4.0229006, , , , , , , , , , , , , , , , , , , , , , 
0.2096471, -0.0048676, 1.782, -0.1300659, 1.782, -0.5324707, 1.782, 0.7993164, 1.782, -15.0229006, 1.782, 10.9923668, 1.782, -3.6412213, 0.2096471, 0.0125887, 1.782, -0.6350708, 1.782, -0.7039795, 1.782, -0.414978, 1.782, -23.2290077, 1.782, 10.6259546, 1.782, 4.3893127, , , , , , , , , , , , , , , , , , , , , , 
0.2104412, -0.0036927, 1.78875, -0.1233521, 1.78875, -0.5258789, 1.78875, 0.7961426, 1.78875, -14.8625956, 1.78875, 10.0534353, 1.78875, -3.610687, 0.2104412, 0.0099031, 1.78875, -0.6360474, 1.78875, -0.7020264, 1.78875, -0.4200439, 1.78875, -23.2824421, 1.78875, 9.5496187, 1.78875, 4.1374044, , , , , , , , , , , , , , , , , , , , , , 
0.2112353, -0.0038605, 1.7955, -0.1199951, 1.7955, -0.5231323, 1.7955, 0.7924194, 1.7955, -15.0076332, 1.7955, 9.5877867, 1.7955, -3.3816793, 0.2112353, 0.0068818, 1.7955, -0.6362305, 1.7955, -0.6964111, 1.7955, -0.4192505, 1.7955, -23.7480907, 1.7955, 8.198473, 1.7955, 3.870229, , , , , , , , , , , , , , , , , , , , , , 
0.2120294, -0.0035248, 1.80225, -0.1134033, 1.80225, -0.5218506, 1.80225, 0.7932129, 1.80225, -15.801527, 1.80225, 9.8320608, 1.80225, -3.3435113, 0.2120294, 0.0087282, 1.80225, -0.6351929, 1.80225, -0.6984863, 1.80225, -0.4165039, 1.80225, -24.5038166, 1.80225, 7.3664122, 1.80225, 3.610687, , , , , , , , , , , , , , , , , , , , , , 
0.2128235, -0.0035248, 1.809, -0.1065674, 1.809, -0.5217896, 1.809, 0.7944946, 1.809, -16.2061062, 1.809, 10.0763359, 1.809, -3.5419848, 0.2128235, 0.0112459, 1.809, -0.635437, 1.809, -0.697998, 1.809, -0.4136353, 1.809, -25.1145039, 1.809, 7.1908398, 1.809, 3.4961832, , , , , , , , , , , , , , , , , , , , , , 
0.2136176, -0.0018463, 1.81575, -0.1040039, 1.81575, -0.5228882, 1.81575, 0.7991943, 1.81575, -16.3282452, 1.81575, 10.641221, 1.81575, -3.5725191, 0.2136176, 0.0095674, 1.81575, -0.6254272, 1.81575, -0.7022095, 1.81575, -0.4089966, 1.81575, -25.1221371, 1.81575, 7.3435116, 1.81575, 3.3587787, , , , , , , , , , , , , , , , , , , , , , 
0.2144118, -0.0011749, 1.8225, -0.0977173, 1.8225, -0.5238037, 1.8225, 0.8058472, 1.8225, -16.1068707, 1.8225, 12.2366409, 1.8225, -3.8091602, 0.2144118, 0.0119173, 1.8225, -0.6222534, 1.8225, -0.7028809, 1.8225, -0.4073486, 1.8225, -25.2671757, 1.8225, 7.8702292, 1.8225, 2.8473282, , , , , , , , , , , , , , , , , , , , , , 
0.2152059, -0.0041962, 1.82925, -0.0960693, 1.82925, -0.5269165, 1.82925, 0.8091431, 1.82925, -15.801527, 1.82925, 13.1297712, 1.82925, -3.8015268, 0.2152059, 0.0146029, 1.82925, -0.6192017, 1.82925, -0.7055664, 1.82925, -0.4119873, 1.82925, -25.038168, 1.82925, 8.3664122, 1.82925, 2.8320611, , , , , , , , , , , , , , , , , , , , , , 
0.216, -0.0072175, 1.836, -0.0992432, 1.836, -0.5289917, 1.836, 0.8053589, 1.836, -16.0076332, 1.836, 14.1908398, 1.836, -3.908397, 0.216, 0.0151064, 1.836, -0.6168213, 1.836, -0.7095337, 1.836, -0.4143066, 1.836, -24.67939, 1.836, 8.801527, 1.836, 2.9160306, , , , , , , , , , , , , , , , , , , , , , 
0.2167941, -0.0077211, 1.84275, -0.0977783, 1.84275, -0.531189, 1.84275, 0.8022461, 1.84275, -15.7557249, 1.84275, 14.3511448, 1.84275, -3.8320611, 0.2167941, 0.0132601, 1.84275, -0.6170044, 1.84275, -0.7072144, 1.84275, -0.4214478, 1.84275, -24.4503822, 1.84275, 9.1145039, 1.84275, 3.1374047, , , , , , , , , , , , , , , , , , , , , , 
0.2175882, -0.0068818, 1.8495, -0.0966797, 1.8495, -0.5306396, 1.8495, 0.7996826, 1.8495, -15.8854961, 1.8495, 14.6183205, 1.8495, -3.8167939, 0.2175882, 0.0125887, 1.8495, -0.617981, 1.8495, -0.7069092, 1.8495, -0.4249268, 1.8495, -24.5267181, 1.8495, 9.641221, 1.8495, 3.480916, , , , , , , , , , , , , , , , , , , , , , 
0.2183824, -0.0052033, 1.85625, -0.1002197, 1.85625, -0.5267944, 1.85625, 0.8023071, 1.85625, -16.038168, 1.85625, 15.3053436, 1.85625, -3.8015268, 0.2183824, 0.0083925, 1.85625, -0.6209717, 1.85625, -0.7062378, 1.85625, -0.4243164, 1.85625, -24.7480907, 1.85625, 10.358779, 1.85625, 3.7480917, , , , , , , , , , , , , , , , , , , , , , 
0.2191765, -0.0041962, 1.863, -0.104187, 1.863, -0.5274658, 1.863, 0.8012695, 1.863, -16.2213745, 1.863, 15.9007635, 1.863, -4.0152674, 0.2191765, 0.0132601, 1.863, -0.6221313, 1.863, -0.7076416, 1.863, -0.4223022, 1.863, -24.7938938, 1.863, 10.9541988, 1.863, 4.0229006, , , , , , , , , , , , , , , , , , , , , , 
0.2199706, -0.0031891, 1.86975, -0.1063843, 1.86975, -0.5291748, 1.86975, 0.8017578, 1.86975, -16.5114498, 1.86975, 16.160305, 1.86975, -4.2442746, 0.2199706, 0.0166171, 1.86975, -0.6217651, 1.86975, -0.7113037, 1.86975, -0.4224854, 1.86975, -24.8244267, 1.86975, 11.4580154, 1.86975, 4.0839696, , , , , , , , , , , , , , , , , , , , , , 
0.2207647, -0.0041962, 1.8765, -0.1060791, 1.8765, -0.5302734, 1.8765, 0.7990112, 1.8765, -16.4656487, 1.8765, 16.3664131, 1.8765, -4.5343513, 0.2207647, 0.0139315, 1.8765, -0.6226196, 1.8765, -0.7112427, 1.8765, -0.4202881, 1.8765, -25.1221371, 1.8765, 12.038168, 1.8765, 4.1450381, , , , , , , , , , , , , , , , , , , , , , 
0.2215588, -0.0052033, 1.88325, -0.102478, 1.88325, -0.5301514, 1.88325, 0.7984619, 1.88325, -16.557251, 1.88325, 16.8702297, 1.88325, -4.5725193, 0.2215588, 0.0159457, 1.88325, -0.6211548, 1.88325, -0.711853, 1.88325, -0.4195557, 1.88325, -24.7328243, 1.88325, 12.641221, 1.88325, 3.7099237, , , , , , , , , , , , , , , , , , , , , , 
0.2223529, -0.0083925, 1.89, -0.1032104, 1.89, -0.5303955, 1.89, 0.7994385, 1.89, -16.7404575, 1.89, 17.7862587, 1.89, -4.7099237, 0.2223529, 0.0099031, 1.89, -0.6234741, 1.89, -0.7098999, 1.89, -0.4172363, 1.89, -24.5267181, 1.89, 13.0229006, 1.89, 3.4198472, , , , , , , , , , , , , , , , , , , , , , 
0.2231471, -0.0083925, 1.89675, -0.1040039, 1.89675, -0.5272217, 1.89675, 0.8034058, 1.89675, -16.6564884, 1.89675, 18.6106873, 1.89675, -4.6412215, 0.2231471, 0.0068818, 1.89675, -0.6276245, 1.89675, -0.7095337, 1.89675, -0.4224243, 1.89675, -24.4274807, 1.89675, 13.3435116, 1.89675, 3.3740458, , , , , , , , , , , , , , , , , , , , , , 
0.2239412, -0.0095674, 1.9035, -0.1083984, 1.9035, -0.5286255, 1.9035, 0.803833, 1.9035, -16.5648861, 1.9035, 18.8549614, 1.9035, -4.7022901, 0.2239412, 0.0137636, 1.9035, -0.6290894, 1.9035, -0.7081299, 1.9035, -0.4208984, 1.9035, -24.8625946, 1.9035, 13.2748089, 1.9035, 3.1068702, , , , , , , , , , , , , , , , , , , , , , 
0.2247353, -0.0099031, 1.91025, -0.1119995, 1.91025, -0.529541, 1.91025, 0.8007202, 1.91025, -16.4885502, 1.91025, 18.7709923, 1.91025, -4.5267177, 0.2247353, 0.0169528, 1.91025, -0.630127, 1.91025, -0.7078857, 1.91025, -0.4197388, 1.91025, -24.4274807, 1.91025, 13.2213745, 1.91025, 3.0839694, , , , , , , , , , , , , , , , , , , , , , 
0.2255294, -0.0095674, 1.917, -0.1171265, 1.917, -0.5281982, 1.917, 0.7989502, 1.917, -16.3511448, 1.917, 18.2290077, 1.917, -4.5954199, 0.2255294, 0.0159457, 1.917, -0.6367188, 1.917, -0.7092285, 1.917, -0.4172974, 1.917, -24.4045811, 1.917, 13.4427481, 1.917, 3.4351146, , , , , , , , , , , , , , , , , , , , , , 
0.2263235, -0.0078889, 1.92375, -0.1231079, 1.92375, -0.5288696, 1.92375, 0.7963867, 1.92375, -16.198473, 1.92375, 18.1221371, 1.92375, -4.480916, 0.2263235, 0.0142672, 1.92375, -0.6372681, 1.92375, -0.7086182, 1.92375, -0.4160767, 1.92375, -24.2061062, 1.92375, 13.4198475, 1.92375, 3.519084, , , , , , , , , , , , , , , , , , , , , , 
0.2271176, -0.0072175, 1.9305, -0.1235352, 1.9305, -0.527832, 1.9305, 0.7997437, 1.9305, -16.1068707, 1.9305, 17.801527, 1.9305, -4.5496182, 0.2271176, 0.0135958, 1.9305, -0.6409302, 1.9305, -0.7092285, 1.9305, -0.4155884, 1.9305, -24.2671757, 1.9305, 12.8167934, 1.9305, 3.6717558, , , , , , , , , , , , , , , , , , , , , , 
0.2279118, -0.0132601, 1.93725, -0.1237183, 1.93725, -0.5240479, 1.93725, 0.7992554, 1.93725, -16.1145039, 1.93725, 17.6488552, 1.93725, -4.4656487, 0.2279118, 0.0085603, 1.93725, -0.6395874, 1.93725, -0.7103882, 1.93725, -0.4209595, 1.93725, -24.2290077, 1.93725, 11.9694653, 1.93725, 3.6183207, , , , , , , , , , , , , , , , , , , , , , 
0.2287059, -0.0159457, 1.944, -0.1256104, 1.944, -0.5249634, 1.944, 0.7988281, 1.944, -16.4961834, 1.944, 17.7251911, 1.944, -4.4732823, 0.2287059, 0.0078889, 1.944, -0.6364746, 1.944, -0.708252, 1.944, -0.4263306, 1.944, -24.2366409, 1.944, 11.6030531, 1.944, 3.5801528, , , , , , , , , , , , , , , , , , , , , , 
0.2295, -0.0142672, 1.95075, -0.1229248, 1.95075, -0.5249634, 1.95075, 0.8010864, 1.95075, -16.7175579, 1.95075, 16.8091602, 1.95075, -4.6106873, 0.2295, 0.0052033, 1.95075, -0.633728, 1.95075, -0.7067261, 1.95075, -0.4249268, 1.95075, -24.3358784, 1.95075, 11.3282442, 1.95075, 3.1755726, , , , , , , , , , , , , , , , , , , , , , 
0.2302941, -0.012253, 1.9575, -0.1204224, 1.9575, -0.5262451, 1.9575, 0.8031616, 1.9575, -16.7251911, 1.9575, 15.679389, 1.9575, -5.0687022, 0.2302941, 0.0045319, 1.9575, -0.6346436, 1.9575, -0.7059937, 1.9575, -0.4247437, 1.9575, -24.4656487, 1.9575, 11.2442751, 1.9575, 2.8320611, , , , , , , , , , , , , , , , , , , , , , 
0.2310882, -0.0097353, 1.96425, -0.1203613, 1.96425, -0.5266113, 1.96425, 0.8016357, 1.96425, -16.5496178, 1.96425, 15.1679392, 1.96425, -5.0229006, 0.2310882, 0.0062104, 1.96425, -0.640564, 1.96425, -0.7041016, 1.96425, -0.4223022, 1.96425, -24.3053436, 1.96425, 10.5954199, 1.96425, 2.6641221, , , , , , , , , , , , , , , , , , , , , , 
0.2318824, -0.0115816, 1.971, -0.1228638, 1.971, -0.5232544, 1.971, 0.7994385, 1.971, -16.1755733, 1.971, 15.0534353, 1.971, -4.9847326, 0.2318824, 0.0043641, 1.971, -0.638855, 1.971, -0.7020264, 1.971, -0.4165649, 1.971, -24.038168, 1.971, 9.198473, 1.971, 2.778626, , , , , , , , , , , , , , , , , , , , , , 
0.2326765, -0.008896, 1.97775, -0.12146, 1.97775, -0.5196533, 1.97775, 0.8028564, 1.97775, -15.7099237, 1.97775, 14.2671757, 1.97775, -4.9312978, 0.2326765, 0.0043641, 1.97775, -0.6334229, 1.97775, -0.697937, 1.97775, -0.4194336, 1.97775, -23.557251, 1.97775, 7.8778625, 1.97775, 3.1450381, , , , , , , , , , , , , , , , , , , , , , 
0.2334706, -0.0075532, 1.9845, -0.1185913, 1.9845, -0.5142822, 1.9845, 0.7996216, 1.9845, -15.480916, 1.9845, 13.7786255, 1.9845, -4.7862597, 0.2334706, 0.0085603, 1.9845, -0.6262207, 1.9845, -0.6985474, 1.9845, -0.4202271, 1.9845, -23.3358784, 1.9845, 7.6717558, 1.9845, 3.7557251, , , , , , , , , , , , , , , , , , , , , , 
0.2342647, -0.0062104, 1.99125, -0.1134033, 1.99125, -0.5184326, 1.99125, 0.7984009, 1.99125, -15.4580154, 1.99125, 13.801527, 1.99125, -4.7633586, 0.2342647, 0.0130922, 1.99125, -0.6184082, 1.99125, -0.697876, 1.99125, -0.4189453, 1.99125, -23.480917, 1.99125, 9.1526718, 1.99125, 4.1450381, , , , , , , , , , , , , , , , , , , , , , 
0.2350588, -0.0082246, 1.998, -0.1099854, 1.998, -0.5214844, 1.998, 0.7956543, 1.998, -15.3816795, 1.998, 14.2213745, 1.998, -4.5572519, 0.2350588, 0.0099031, 1.998, -0.6170044, 1.998, -0.6956177, 1.998, -0.4175415, 1.998, -23.9847336, 1.998, 11.2519083, 1.998, 4.1908398, , , , , , , , , , , , , , , , , , , , , , 
0.2358529, -0.008896, 2.00475, -0.1085815, 2.00475, -0.5211182, 2.00475, 0.7962036, 2.00475, -15.6641226, 2.00475, 14.5496187, 2.00475, -4.4198475, 0.2358529, 0.0068818, 2.00475, -0.6201172, 2.00475, -0.7000122, 2.00475, -0.4164429, 2.00475, -24.2671757, 2.00475, 12.9541988, 2.00475, 3.7862597, , , , , , , , , , , , , , , , , , , , , , 
0.2366471, -0.0058747, 2.0115, -0.1085205, 2.0115, -0.5253906, 2.0115, 0.7970581, 2.0115, -15.7480917, 2.0115, 15.4045801, 2.0115, -4.3587785, 0.2366471, 0.0119173, 2.0115, -0.6262817, 2.0115, -0.6992188, 2.0115, -0.4188843, 2.0115, -24.6717548, 2.0115, 13.8702288, 2.0115, 3.4580152, , , , , , , , , , , , , , , , , , , , , , 
0.2374412, -0.0038605, 2.01825, -0.1090088, 2.01825, -0.5270996, 2.01825, 0.8000488, 2.01825, -15.5038166, 2.01825, 15.9236641, 2.01825, -4.4427481, 0.2374412, 0.0152743, 2.01825, -0.6322632, 2.01825, -0.7024536, 2.01825, -0.4219971, 2.01825, -24.8549614, 2.01825, 14.0687027, 2.01825, 2.7251909, , , , , , , , , , , , , , , , , , , , , , 
0.2382353, -0.0015106, 2.025, -0.1123657, 2.025, -0.5299683, 2.025, 0.8005981, 2.025, -15.2595415, 2.025, 15.7557249, 2.025, -4.5496182, 0.2382353, 0.014435, 2.025, -0.6340942, 2.025, -0.7075806, 2.025, -0.4213867, 2.025, -24.8091602, 2.025, 13.4656487, 2.025, 2.5877862, , , , , , , , , , , , , , , , , , , , , , 
0.2390294, -0.0041962, 2.03175, -0.1167603, 2.03175, -0.5259399, 2.03175, 0.7983398, 2.03175, -15.1832066, 2.03175, 15.0992365, 2.03175, -4.5114503, 0.2390294, 0.0166171, 2.03175, -0.6358032, 2.03175, -0.7087402, 2.03175, -0.4212036, 2.03175, -24.7633591, 2.03175, 12.9007635, 2.03175, 2.6564887, , , , , , , , , , , , , , , , , , , , , , 
0.2398235, -0.0008392, 2.0385, -0.12146, 2.0385, -0.5269775, 2.0385, 0.8013306, 2.0385, -14.9465647, 2.0385, 14.1374044, 2.0385, -4.6564884, 0.2398235, 0.01561, 2.0385, -0.6353149, 2.0385, -0.7045288, 2.0385, -0.4243164, 2.0385, -24.5648861, 2.0385, 12.6488552, 2.0385, 2.9389312, , , , , , , , , , , , , , , , , , , , , , 
0.2406176, 0.0011749, 2.04525, -0.1258545, 2.04525, -0.5239868, 2.04525, 0.8001709, 2.04525, -15, 2.04525, 13.5343513, 2.04525, -4.2366414, 0.2406176, 0.0172885, 2.04525, -0.6369629, 2.04525, -0.7034912, 2.04525, -0.4252319, 2.04525, -24.5343513, 2.04525, 12.7557249, 2.04525, 3.2900763, , , , , , , , , , , , , , , , , , , , , , 
0.2414118, -0.0015106, 2.052, -0.1278687, 2.052, -0.5213013, 2.052, 0.7990112, 2.052, -15.2290077, 2.052, 13.2671757, 2.052, -4.1450381, 0.2414118, 0.01561, 2.052, -0.6350098, 2.052, -0.7067871, 2.052, -0.4243774, 2.052, -24.641222, 2.052, 12.5419846, 2.052, 3.4045801, , , , , , , , , , , , , , , , , , , , , , 
0.2422059, -0.0041962, 2.05875, -0.1241455, 2.05875, -0.5220337, 2.05875, 0.7966309, 2.05875, -15.9770994, 2.05875, 13.1832066, 2.05875, -3.8015268, 0.2422059, 0.0179599, 2.05875, -0.6343384, 2.05875, -0.7056885, 2.05875, -0.4204712, 2.05875, -24.7862587, 2.05875, 12.0916033, 2.05875, 3.5267177, , , , , , , , , , , , , , , , , , , , , , 
0.243, -0.0062104, 2.0655, -0.1208496, 2.0655, -0.5227661, 2.0655, 0.7944946, 2.0655, -16.8625946, 2.0655, 12.7099237, 2.0655, -3.8015268, 0.243, 0.0166171, 2.0655, -0.6367798, 2.0655, -0.7128296, 2.0655, -0.414856, 2.0655, -24.6717548, 2.0655, 12.0076332, 2.0655, 3.648855, , , , , , , , , , , , , , , , , , , , , , 
0.2437941, -0.0104067, 2.07225, -0.1241455, 2.07225, -0.5300293, 2.07225, 0.7945557, 2.07225, -17.3893127, 2.07225, 11.6946564, 2.07225, -4.0305343, 0.2437941, 0.0164492, 2.07225, -0.6382446, 2.07225, -0.7159424, 2.07225, -0.4147339, 2.07225, -24.2366409, 2.07225, 11.1832066, 2.07225, 3.5419848, , , , , , , , , , , , , , , , , , , , , , 
0.2445882, -0.0119173, 2.079, -0.1188965, 2.079, -0.5358276, 2.079, 0.8016357, 2.079, -17.7404575, 2.079, 11.1679392, 2.079, -4.0916033, 0.2445882, 0.0162814, 2.079, -0.6376953, 2.079, -0.7207031, 2.079, -0.4185791, 2.079, -23.9083977, 2.079, 10.7022905, 2.079, 3.2977099, , , , , , , , , , , , , , , , , , , , , , 
0.2453824, -0.0142672, 2.08575, -0.117981, 2.08575, -0.538208, 2.08575, 0.8023682, 2.08575, -17.8625946, 2.08575, 11.0305347, 2.08575, -4.0152674, 0.2453824, 0.0142672, 2.08575, -0.6412964, 2.08575, -0.7193604, 2.08575, -0.4174194, 2.08575, -23.6870232, 2.08575, 10.3893127, 2.08575, 3.2442749, , , , , , , , , , , , , , , , , , , , , , 
0.2461765, -0.01561, 2.0925, -0.1152344, 2.0925, -0.5389404, 2.0925, 0.8040161, 2.0925, -17.4503822, 2.0925, 10.9694653, 2.0925, -4.038168, 0.2461765, 0.011078, 2.0925, -0.6386719, 2.0925, -0.7160034, 2.0925, -0.4189453, 2.0925, -23.6106873, 2.0925, 9.679389, 2.0925, 3.0534351, , , , , , , , , , , , , , , , , , , , , , 
0.2469706, -0.0139315, 2.09925, -0.114502, 2.09925, -0.5324097, 2.09925, 0.8085938, 2.09925, -16.8931293, 2.09925, 10.6717558, 2.09925, -4.2977099, 0.2469706, 0.0132601, 2.09925, -0.6429443, 2.09925, -0.7070923, 2.09925, -0.4248047, 2.09925, -23.5801525, 2.09925, 8.5343513, 2.09925, 2.648855, , , , , , , , , , , , , , , , , , , , , , 
0.2477647, -0.0162814, 2.106, -0.1138306, 2.106, -0.531189, 2.106, 0.8076782, 2.106, -16.3358784, 2.106, 10.2748089, 2.106, -4.6641221, 0.2477647, 0.0075532, 2.106, -0.6367798, 2.106, -0.7022095, 2.106, -0.4269409, 2.106, -24.2213745, 2.106, 8.1908398, 2.106, 2.4427481, , , , , , , , , , , , , , , , , , , , , , 
0.2485588, -0.0169528, 2.11275, -0.1080933, 2.11275, -0.5234985, 2.11275, 0.8057251, 2.11275, -16.0152664, 2.11275, 10.3358774, 2.11275, -4.8320613, 0.2485588, 0.0028534, 2.11275, -0.6311646, 2.11275, -0.6973877, 2.11275, -0.427002, 2.11275, -24.6946564, 2.11275, 8.7709923, 2.11275, 2.129771, , , , , , , , , , , , , , , , , , , , , , 
0.2493529, -0.0171206, 2.1195, -0.1030884, 2.1195, -0.5183105, 2.1195, 0.8060303, 2.1195, -16.0076332, 2.1195, 10.5572519, 2.1195, -4.8854961, 0.2493529, 0.0065461, 2.1195, -0.62677, 2.1195, -0.6983643, 2.1195, -0.4213867, 2.1195, -24.7328243, 2.1195, 9.3816795, 2.1195, 2.2442749, , , , , , , , , , , , , , , , , , , , , , 
0.2501471, -0.0166171, 2.12625, -0.1033936, 2.12625, -0.5163574, 2.12625, 0.8061523, 2.12625, -16.5496178, 2.12625, 11.0763359, 2.12625, -4.7175574, 0.2501471, 0.0095674, 2.12625, -0.6233521, 2.12625, -0.6956787, 2.12625, -0.4193726, 2.12625, -23.8931293, 2.12625, 10.1297712, 2.12625, 2.0458016, , , , , , , , , , , , , , , , , , , , , , 
0.2509412, -0.0162814, 2.133, -0.1028442, 2.133, -0.5151367, 2.133, 0.8045654, 2.133, -17.0534344, 2.133, 11.717557, 2.133, -4.2977099, 0.2509412, 0.0109102, 2.133, -0.6269531, 2.133, -0.6988525, 2.133, -0.4163818, 2.133, -23.32061, 2.133, 10.3816795, 2.133, 2.259542, , , , , , , , , , , , , , , , , , , , , , 
0.2517353, -0.0164492, 2.13975, -0.1046143, 2.13975, -0.5141602, 2.13975, 0.7978516, 2.13975, -17.7328243, 2.13975, 12.1755724, 2.13975, -3.7251909, 0.2517353, 0.0125887, 2.13975, -0.6264648, 2.13975, -0.7000122, 2.13975, -0.4158936, 2.13975, -23.2290077, 2.13975, 10.4427481, 2.13975, 2.4732823, , , , , , , , , , , , , , , , , , , , , , 
0.2525294, -0.0166171, 2.1465, -0.1080933, 2.1465, -0.520813, 2.1465, 0.800415, 2.1465, -18.5725193, 2.1465, 12.6335878, 2.1465, -3.5038168, 0.2525294, 0.0152743, 2.1465, -0.6333008, 2.1465, -0.7005615, 2.1465, -0.4192505, 2.1465, -23.2595425, 2.1465, 9.7099237, 2.1465, 2.9160306, , , , , , , , , , , , , , , , , , , , , , 
0.2533235, -0.01561, 2.15325, -0.1144409, 2.15325, -0.5259399, 2.15325, 0.8053589, 2.15325, -18.5267181, 2.15325, 13.0152674, 2.15325, -3.6946564, 0.2533235, 0.0166171, 2.15325, -0.6369629, 2.15325, -0.7004395, 2.15325, -0.4185181, 2.15325, -23.5954189, 2.15325, 9.4122133, 2.15325, 3.389313, , , , , , , , , , , , , , , , , , , , , , 
0.2541176, -0.0135958, 2.16, -0.112793, 2.16, -0.5323486, 2.16, 0.8063965, 2.16, -17.9923668, 2.16, 13.038168, 2.16, -3.6793892, 0.2541176, 0.0135958, 2.16, -0.6396484, 2.16, -0.7026978, 2.16, -0.420105, 2.16, -24, 2.16, 9.1374044, 2.16, 3.6259542, , , , , , , , , , , , , , , , , , , , , , 
0.2549118, -0.0099031, 2.16675, -0.1112061, 2.16675, -0.5324707, 2.16675, 0.8052368, 2.16675, -17.3664131, 2.16675, 13.1450386, 2.16675, -4.1603055, 0.2549118, 0.0125887, 2.16675, -0.6416626, 2.16675, -0.7036743, 2.16675, -0.421814, 2.16675, -23.8320618, 2.16675, 8.4580154, 2.16675, 3.5267177, , , , , , , , , , , , , , , , , , , , , , 
0.2557059, -0.0052033, 2.1735, -0.1121826, 2.1735, -0.531189, 2.1735, 0.7995605, 2.1735, -16.5038166, 2.1735, 12.6183205, 2.1735, -4.2977099, 0.2557059, 0.0151064, 2.1735, -0.637085, 2.1735, -0.7050171, 2.1735, -0.4255371, 2.1735, -23.8854961, 2.1735, 8.2366409, 2.1735, 3.4198472, , , , , , , , , , , , , , , , , , , , , , 
0.2565, -0.0048676, 2.18025, -0.1148682, 2.18025, -0.5265503, 2.18025, 0.7965088, 2.18025, -16.5801525, 2.18025, 11.7557249, 2.18025, -4.4351144, 0.2565, 0.0176242, 2.18025, -0.6304321, 2.18025, -0.7052612, 2.18025, -0.4248657, 2.18025, -24.1297703, 2.18025, 8.6488552, 2.18025, 2.8549619, , , , , , , , , , , , , , , , , , , , , , 
0.2572941, -0.0062104, 2.187, -0.1152344, 2.187, -0.5227661, 2.187, 0.7900391, 2.187, -17.0458012, 2.187, 11.3282442, 2.187, -4.5038166, 0.2572941, 0.0186313, 2.187, -0.6231689, 2.187, -0.7042847, 2.187, -0.4261475, 2.187, -23.9847336, 2.187, 9.1374044, 2.187, 2.5648854, , , , , , , , , , , , , , , , , , , , , , 
0.2580882, -0.0075532, 2.19375, -0.1185303, 2.19375, -0.5240479, 2.19375, 0.7897339, 2.19375, -17.2061062, 2.19375, 11.5496187, 2.19375, -4.3664122, 0.2580882, 0.0176242, 2.19375, -0.621582, 2.19375, -0.7023315, 2.19375, -0.4227295, 2.19375, -23.961832, 2.19375, 11.0458012, 2.19375, 2.2824428, , , , , , , , , , , , , , , , , , , , , , 
0.2588824, -0.0065461, 2.2005, -0.1187134, 2.2005, -0.5239258, 2.2005, 0.7904663, 2.2005, -17.2748089, 2.2005, 11.6183205, 2.2005, -4.3511453, 0.2588824, 0.0182956, 2.2005, -0.6236572, 2.2005, -0.6988525, 2.2005, -0.420105, 2.2005, -23.839695, 2.2005, 12.3740454, 2.2005, 2.1221373, , , , , , , , , , , , , , , , , , , , , , 
0.2596765, -0.0048676, 2.20725, -0.1228027, 2.20725, -0.5253906, 2.20725, 0.795105, 2.20725, -17.6564884, 2.20725, 11.0458012, 2.20725, -4.0458016, 0.2596765, 0.014435, 2.20725, -0.6293335, 2.20725, -0.6973877, 2.20725, -0.4161987, 2.20725, -23.9770985, 2.20725, 12.3282442, 2.20725, 2.1145039, , , , , , , , , , , , , , , , , , , , , , 
0.2604706, -0.0035248, 2.214, -0.1234131, 2.214, -0.5250854, 2.214, 0.7980957, 2.214, -17.7328243, 2.214, 10.3129768, 2.214, -3.9465649, 0.2604706, 0.0129244, 2.214, -0.6331177, 2.214, -0.6982422, 2.214, -0.4140625, 2.214, -24.198473, 2.214, 11.0992365, 2.214, 1.9694656, , , , , , , , , , , , , , , , , , , , , , 
0.2612647, -0.0028534, 2.22075, -0.1240234, 2.22075, -0.5273438, 2.22075, 0.7988281, 2.22075, -17.8702297, 2.22075, 10.1374044, 2.22075, -3.7480917, 0.2612647, 0.012253, 2.22075, -0.637207, 2.22075, -0.7003784, 2.22075, -0.4173584, 2.22075, -24.3053436, 2.22075, 9.6641226, 2.22075, 1.9389313, , , , , , , , , , , , , , , , , , , , , , 
0.2620588, -0.0001678, 2.2275, -0.1233521, 2.2275, -0.5307007, 2.2275, 0.805603, 2.2275, -17.4961834, 2.2275, 10.4274807, 2.2275, -3.5038168, 0.2620588, 0.0105745, 2.2275, -0.6379395, 2.2275, -0.6984253, 2.2275, -0.4204712, 2.2275, -24.603054, 2.2275, 8.1297712, 2.2275, 2.1068702, , , , , , , , , , , , , , , , , , , , , , 
0.2628529, -0.0015106, 2.23425, -0.1173096, 2.23425, -0.5330811, 2.23425, 0.8112183, 2.23425, -16.7022896, 2.23425, 9.9083967, 2.23425, -3.519084, 0.2628529, 0.0092317, 2.23425, -0.6362915, 2.23425, -0.7039795, 2.23425, -0.4221802, 2.23425, -24.4274807, 2.23425, 6.6183205, 2.23425, 2.4580152, , , , , , , , , , , , , , , , , , , , , , 
0.2636471, -0.0025177, 2.241, -0.1081543, 2.241, -0.5308228, 2.241, 0.8070679, 2.241, -16.1145039, 2.241, 9.2748089, 2.241, -3.480916, 0.2636471, 0.0127565, 2.241, -0.6390381, 2.241, -0.7070923, 2.241, -0.4240723, 2.241, -24.0992374, 2.241, 5.7709923, 2.241, 3.0076337, , , , , , , , , , , , , , , , , , , , , , 
0.2644412, -0.0011749, 2.24775, -0.0985718, 2.24775, -0.5287476, 2.24775, 0.8062744, 2.24775, -16.2213745, 2.24775, 8.6183205, 2.24775, -3.778626, 0.2644412, 0.0146029, 2.24775, -0.6321411, 2.24775, -0.7097168, 2.24775, -0.4216919, 2.24775, -23.8473282, 2.24775, 6.3893127, 2.24775, 3.8778627, , , , , , , , , , , , , , , , , , , , , , 
0.2652353, -0.0018463, 2.2545, -0.0924683, 2.2545, -0.5270386, 2.2545, 0.8015137, 2.2545, -16.442749, 2.2545, 8.8091602, 2.2545, -4.0076337, 0.2652353, 0.0115816, 2.2545, -0.6287842, 2.2545, -0.7064209, 2.2545, -0.4176636, 2.2545, -23.6259537, 2.2545, 7.7022901, 2.2545, 4.1068702, , , , , , , , , , , , , , , , , , , , , , 
0.2660294, -0.002182, 2.26125, -0.0802002, 2.26125, -0.5296021, 2.26125, 0.8081665, 2.26125, -16.2977104, 2.26125, 9.5954199, 2.26125, -4.2137403, 0.2660294, 0.0105745, 2.26125, -0.62146, 2.26125, -0.7029419, 2.26125, -0.4168701, 2.26125, -23.3511448, 2.26125, 9.5114508, 2.26125, 3.8091602, , , , , , , , , , , , , , , , , , , , , , 
0.2668235, -0.0062104, 2.268, -0.0762329, 2.268, -0.5283203, 2.268, 0.8095093, 2.268, -16.0305347, 2.268, 11.0839691, 2.268, -4.7251906, 0.2668235, 0.010071, 2.268, -0.6183472, 2.268, -0.7029419, 2.268, -0.4125366, 2.268, -23.8091602, 2.268, 10.9389315, 2.268, 3.2061069, , , , , , , , , , , , , , , , , , , , , , 
0.2676176, -0.0125887, 2.27475, -0.0755615, 2.27475, -0.5297852, 2.27475, 0.8056641, 2.27475, -15.961832, 2.27475, 11.9847326, 2.27475, -4.961832, 0.2676176, 0.005539, 2.27475, -0.6209106, 2.27475, -0.6995239, 2.27475, -0.4124146, 2.27475, -24.1679382, 2.27475, 12.1068707, 2.27475, 2.4427481, , , , , , , , , , , , , , , , , , , , , , 
0.2684118, -0.012253, 2.2815, -0.0797729, 2.2815, -0.5270996, 2.2815, 0.8049316, 2.2815, -15.9847326, 2.2815, 13.7862597, 2.2815, -5.0610685, 0.2684118, 0.0041962, 2.2815, -0.62146, 2.2815, -0.6998291, 2.2815, -0.4133301, 2.2815, -24.6641216, 2.2815, 12.6106873, 2.2815, 1.7557251, , , , , , , , , , , , , , , , , , , , , , 
0.2692059, -0.0135958, 2.28825, -0.0870361, 2.28825, -0.526123, 2.28825, 0.8001709, 2.28825, -15.9160309, 2.28825, 15.0916033, 2.28825, -5.0763359, 0.2692059, 0.0041962, 2.28825, -0.625061, 2.28825, -0.7023315, 2.28825, -0.4052124, 2.28825, -24.7175579, 2.28825, 13.0152674, 2.28825, 1.259542, , , , , , , , , , , , , , , , , , , , , , 
0.27, -0.0152743, 2.295, -0.0946045, 2.295, -0.5253906, 2.295, 0.7947998, 2.295, -16.4580154, 2.295, 15.6870232, 2.295, -5.2671757, 0.27, 0.0045319, 2.295, -0.6275024, 2.295, -0.7044678, 2.295, -0.4075317, 2.295, -24.6335869, 2.295, 13.3129768, 2.295, 1.4961832, , , , , , , , , , , , , , , , , , , , , , 
0.2707941, -0.0142672, 2.30175, -0.0978394, 2.30175, -0.5280151, 2.30175, 0.7965088, 2.30175, -16.9923668, 2.30175, 16.0687027, 2.30175, -5.4503818, 0.2707941, 0.0085603, 2.30175, -0.6358643, 2.30175, -0.7072754, 2.30175, -0.411377, 2.30175, -24.3511448, 2.30175, 13.0763359, 2.30175, 1.9389313, , , , , , , , , , , , , , , , , , , , , , 
0.2715882, -0.0105745, 2.3085, -0.1052246, 2.3085, -0.5290527, 2.3085, 0.8013916, 2.3085, -17.7099228, 2.3085, 16.6183205, 2.3085, -5.2824426, 0.2715882, 0.0105745, 2.3085, -0.6382446, 2.3085, -0.7075806, 2.3085, -0.4111328, 2.3085, -24.1221371, 2.3085, 12.2595415, 2.3085, 2.6030533, , , , , , , , , , , , , , , , , , , , , , 
0.2723824, -0.0102388, 2.31525, -0.1097412, 2.31525, -0.5340576, 2.31525, 0.8022461, 2.31525, -17.8244267, 2.31525, 16.7175579, 2.31525, -4.9923663, 0.2723824, 0.0119173, 2.31525, -0.6358643, 2.31525, -0.7059326, 2.31525, -0.414917, 2.31525, -24.0152664, 2.31525, 11.961832, 2.31525, 2.9847329, , , , , , , , , , , , , , , , , , , , , , 
0.2731765, -0.0072175, 2.322, -0.1098022, 2.322, -0.5380249, 2.322, 0.8032227, 2.322, -17.2061062, 2.322, 16.1068707, 2.322, -4.8091602, 0.2731765, 0.0099031, 2.322, -0.631897, 2.322, -0.7062988, 2.322, -0.4189453, 2.322, -24.4122143, 2.322, 11.3969469, 2.322, 3.4656489, , , , , , , , , , , , , , , , , , , , , , 
0.2739706, -0.005539, 2.32875, -0.1119995, 2.32875, -0.5371704, 2.32875, 0.8032837, 2.32875, -16.6870232, 2.32875, 15.0534353, 2.32875, -4.7633586, 0.2739706, 0.0115816, 2.32875, -0.6325684, 2.32875, -0.7061768, 2.32875, -0.4206543, 2.32875, -24.603054, 2.32875, 11.0610685, 2.32875, 3.648855, , , , , , , , , , , , , , , , , , , , , , 
0.2747647, -0.0048676, 2.3355, -0.1143799, 2.3355, -0.5367432, 2.3355, 0.7998657, 2.3355, -16.4656487, 2.3355, 13.9694653, 2.3355, -4.5496182, 0.2747647, 0.0176242, 2.3355, -0.6275024, 2.3355, -0.708374, 2.3355, -0.4172974, 2.3355, -24.2290077, 2.3355, 10.7022905, 2.3355, 3.6641221, , , , , , , , , , , , , , , , , , , , , , 
0.2755588, -0.0052033, 2.34225, -0.1121826, 2.34225, -0.5389404, 2.34225, 0.7946777, 2.34225, -16.6564884, 2.34225, 13.0152674, 2.34225, -4.2748094, 0.2755588, 0.0186313, 2.34225, -0.6289673, 2.34225, -0.7092896, 2.34225, -0.4176636, 2.34225, -23.7862587, 2.34225, 10.4045801, 2.34225, 3.4045801, , , , , , , , , , , , , , , , , , , , , , 
0.2763529, -0.002182, 2.349, -0.1113281, 2.349, -0.5345459, 2.349, 0.7897339, 2.349, -16.3511448, 2.349, 12.5038166, 2.349, -4.2977099, 0.2763529, 0.017792, 2.349, -0.626709, 2.349, -0.7111816, 2.349, -0.420105, 2.349, -23.839695, 2.349, 10.6946564, 2.349, 3.4198472, , , , , , , , , , , , , , , , , , , , , , 
0.2771471, -0.0005035, 2.35575, -0.1083374, 2.35575, -0.536499, 2.35575, 0.7967529, 2.35575, -15.8625956, 2.35575, 12.8931293, 2.35575, -4.5343513, 0.2771471, 0.0172885, 2.35575, -0.626709, 2.35575, -0.7086182, 2.35575, -0.4229126, 2.35575, -24.0916023, 2.35575, 10.7099237, 2.35575, 3.2748091, , , , , , , , , , , , , , , , , , , , , , 
0.2779412, -0.0001678, 2.3625, -0.1054077, 2.3625, -0.5361328, 2.3625, 0.7955933, 2.3625, -15.3740454, 2.3625, 13.641221, 2.3625, -4.5801525, 0.2779412, 0.0179599, 2.3625, -0.6275635, 2.3625, -0.7102661, 2.3625, -0.4209595, 2.3625, -24.480917, 2.3625, 10.8320608, 2.3625, 2.908397, , , , , , , , , , , , , , , , , , , , , , 
0.2787353, 0.0030213, 2.36925, -0.1068115, 2.36925, -0.53302, 2.36925, 0.7991333, 2.36925, -15.5343513, 2.36925, 14.2442751, 2.36925, -4.5801525, 0.2787353, 0.0179599, 2.36925, -0.6256714, 2.36925, -0.7124634, 2.36925, -0.4230957, 2.36925, -24.6259537, 2.36925, 11, 2.36925, 2.5419848, , , , , , , , , , , , , , , , , , , , , , 
0.2795294, 0.0011749, 2.376, -0.1080933, 2.376, -0.5323486, 2.376, 0.8002319, 2.376, -15.7022905, 2.376, 13.961832, 2.376, -4.519084, 0.2795294, 0.0193027, 2.376, -0.6278076, 2.376, -0.708252, 2.376, -0.4227905, 2.376, -24.7557259, 2.376, 11.5572519, 2.376, 2.2519083, , , , , , , , , , , , , , , , , , , , , , 
0.2803235, -0.0001678, 2.38275, -0.1065674, 2.38275, -0.5303955, 2.38275, 0.8023682, 2.38275, -15.6870232, 2.38275, 13.7709923, 2.38275, -4.5572519, 0.2803235, 0.0199741, 2.38275, -0.6275635, 2.38275, -0.7035522, 2.38275, -0.4209595, 2.38275, -24.7404575, 2.38275, 12.1450386, 2.38275, 2.1374047, , , , , , , , , , , , , , , , , , , , , , 
0.2811176, -0.002182, 2.3895, -0.1036987, 2.3895, -0.52771, 2.3895, 0.7998047, 2.3895, -15.4885492, 2.3895, 13.6259546, 2.3895, -4.5648856, 0.2811176, 0.0179599, 2.3895, -0.632019, 2.3895, -0.6998901, 2.3895, -0.4221802, 2.3895, -24.8931293, 2.3895, 12.6106873, 2.3895, 2.1755726, , , , , , , , , , , , , , , , , , , , , , 
0.2819118, -0.0082246, 2.39625, -0.1025391, 2.39625, -0.5255737, 2.39625, 0.7987671, 2.39625, -15.5725193, 2.39625, 13.7022905, 2.39625, -4.4427481, 0.2819118, 0.0139315, 2.39625, -0.6322021, 2.39625, -0.694519, 2.39625, -0.4196777, 2.39625, -25.2595425, 2.39625, 12.6564884, 2.39625, 2.4045801, , , , , , , , , , , , , , , , , , , , , , 
0.2827059, -0.0115816, 2.403, -0.0980835, 2.403, -0.5230713, 2.403, 0.7998047, 2.403, -15.4045801, 2.403, 13.6641226, 2.403, -4.3282442, 0.2827059, 0.0130922, 2.403, -0.6300659, 2.403, -0.6958618, 2.403, -0.4213257, 2.403, -25.5801525, 2.403, 12.3282442, 2.403, 2.4351146, , , , , , , , , , , , , , , , , , , , , , 
0.2835, -0.0115816, 2.40975, -0.0961914, 2.40975, -0.5274658, 2.40975, 0.8001709, 2.40975, -15.6488552, 2.40975, 13.9923668, 2.40975, -4.3358779, 0.2835, 0.0125887, 2.40975, -0.6257324, 2.40975, -0.6964111, 2.40975, -0.4214478, 2.40975, -25.5419846, 2.40975, 11.9236641, 2.40975, 2.3053436, , , , , , , , , , , , , , , , , , , , , , 
0.2842941, -0.0105745, 2.4165, -0.0911865, 2.4165, -0.5258789, 2.4165, 0.8060303, 2.4165, -15.5496187, 2.4165, 14.4885492, 2.4165, -4.5343513, 0.2842941, 0.0112459, 2.4165, -0.6206055, 2.4165, -0.6964111, 2.4165, -0.4165649, 2.4165, -25.2137413, 2.4165, 11.6030531, 2.4165, 2.2824428, , , , , , , , , , , , , , , , , , , , , , 
0.2850882, -0.0068818, 2.42325, -0.098938, 2.42325, -0.5266113, 2.42325, 0.8030396, 2.42325, -15.4732828, 2.42325, 14.5877867, 2.42325, -4.519084, 0.2850882, 0.0070497, 2.42325, -0.6229858, 2.42325, -0.6981201, 2.42325, -0.413269, 2.42325, -24.8167934, 2.42325, 11.6641226, 2.42325, 2.3129771, , , , , , , , , , , , , , , , , , , , , , 
0.2858824, -0.0063783, 2.43, -0.1010132, 2.43, -0.5287476, 2.43, 0.7992554, 2.43, -15.641221, 2.43, 14.3282442, 2.43, -4.3816795, 0.2858824, 0.0068818, 2.43, -0.6273193, 2.43, -0.7001343, 2.43, -0.4098511, 2.43, -24.4656487, 2.43, 12.1526718, 2.43, 2.9312978, , , , , , , , , , , , , , , , , , , , , , 
0.2866765, -0.0048676, 2.43675, -0.1075439, 2.43675, -0.5296631, 2.43675, 0.7965698, 2.43675, -15.5343513, 2.43675, 14.4885492, 2.43675, -3.8931298, 0.2866765, 0.0045319, 2.43675, -0.6312256, 2.43675, -0.7000732, 2.43675, -0.4108887, 2.43675, -24.3511448, 2.43675, 12.5648851, 2.43675, 3.0839694, , , , , , , , , , , , , , , , , , , , , , 
