Application:, Trigno Discover (2.0.1.2)
Date/Time:, 5/14/2025 12:03:46 PM
Collection Length (seconds):, 34.5735
Forearm 2 (83169), , , , , , , , Forearm 1 (82633), , , , , , , , Biceps (83254), , , , , , , , Triceps (83087)
sensor mode: 45, , , , , , , , sensor mode: 45, , , , , , , , sensor mode: 45, , , , , , , , sensor mode: 45
EMG 1 Time Series (s), EMG 1 (mV), ACC X Time Series (s), ACC X (G), ACC Y Time Series (s), ACC Y (G), ACC Z Time Series (s), ACC Z (G), EMG 1 Time Series (s), EMG 1 (mV), ACC X Time Series (s), ACC X (G), ACC Y Time Series (s), ACC Y (G), ACC Z Time Series (s), ACC Z (G), EMG 1 Time Series (s), EMG 1 (mV), ACC X Time Series (s), ACC X (G), ACC Y Time Series (s), ACC Y (G), ACC Z Time Series (s), ACC Z (G), EMG 1 Time Series (s), EMG 1 (mV), ACC X Time Series (s), ACC X (G), ACC Y Time Series (s), ACC Y (G), ACC Z Time Series (s), ACC Z (G)
, 1925.9259 Hz, , 74.0741 Hz, , 74.0741 Hz, , 74.0741 Hz, , 1925.9259 Hz, , 74.0741 Hz, , 74.0741 Hz, , 74.0741 Hz, , 1925.9259 Hz, , 74.0741 Hz, , 74.0741 Hz, , 74.0741 Hz, , 1925.9259 Hz, , 74.0741 Hz, , 74.0741 Hz, , 74.0741 Hz
, 0.0005192307692307692 s, , 0.0135 s, , 0.0135 s, , 0.0135 s, , 0.0005192307692307692 s, , 0.0135 s, , 0.0135 s, , 0.0135 s, , 0.0005192307692307692 s, , 0.0135 s, , 0.0135 s, , 0.0135 s, , 0.0005192307692307692 s, , 0.0135 s, , 0.0135 s, , 0.0135 s, , Type, Name, Label, Time (s), , Pair, E1, E2, T1, T2, V1, V2, Sensor, Channel, Units, Delta T, RMS, PKPK, Peak Value, TPK, Integral
0, 0.0062104, 0, -0.2460938, 0, -0.9960938, 0, 0.0654297, 0, -0.0048676, 0, 0.2719727, 0, -0.9584961, 0, -0.1694336, 0, -0.005539, 0, 0.1411133, 0, -1.0004883, 0, -0.1040039, 0, 0.0191348, 0, -0.0888672, 0, -0.9970703, 0, 0.0341797, , , , , , , , , , , , , , , , , , , , , , 
0.0005192, 0.0129244, 0.0135, -0.2431641, 0.0135, -0.9960938, 0.0135, 0.0673828, 0.0005192, -0.0065461, 0.0135, 0.2695312, 0.0135, -0.9604492, 0.0135, -0.1708984, 0.0005192, -0.0068818, 0.0135, 0.1420898, 0.0135, -0.9990234, 0.0135, -0.1040039, 0.0005192, 0.0186313, 0.0135, -0.0859375, 0.0135, -0.9980469, 0.0135, 0.0297852, , , , , , , , , , , , , , , , , , , , , , 
0.0010385, 0.0213169, 0.027, -0.2456055, 0.027, -0.9975586, 0.027, 0.0664062, 0.0010385, -0.0082246, 0.027, 0.2700195, 0.027, -0.9570312, 0.027, -0.1738281, 0.0010385, -0.0082246, 0.027, 0.1450195, 0.027, -1.0019531, 0.027, -0.1064453, 0.0010385, 0.0172885, 0.027, -0.0800781, 0.027, -0.9985352, 0.027, 0.0302734, , , , , , , , , , , , , , , , , , , , , , 
0.0015577, 0.0246738, 0.0405, -0.2485352, 0.0405, -0.9985352, 0.0405, 0.0673828, 0.0015577, -0.0085603, 0.0405, 0.2724609, 0.0405, -0.9560547, 0.0405, -0.1748047, 0.0015577, -0.0072175, 0.0405, 0.1435547, 0.0405, -1.0019531, 0.0405, -0.1064453, 0.0015577, 0.0146029, 0.0405, -0.0795898, 0.0405, -0.9975586, 0.0405, 0.0302734, , , , , , , , , , , , , , , , , , , , , , 
0.0020769, 0.0246738, 0.054, -0.25, 0.054, -0.9980469, 0.054, 0.0683594, 0.0020769, -0.0099031, 0.054, 0.2749023, 0.054, -0.9575195, 0.054, -0.1733398, 0.0020769, -0.0041962, 0.054, 0.1416016, 0.054, -1.0019531, 0.054, -0.1074219, 0.0020769, 0.01561, 0.054, -0.0844727, 0.054, -0.9970703, 0.054, 0.0327148, , , , , , , , , , , , , , , , , , , , , , 
0.0025962, 0.0276951, 0.0675, -0.2456055, 0.0675, -0.9985352, 0.0675, 0.0688477, 0.0025962, -0.0097353, 0.0675, 0.2729492, 0.0675, -0.9604492, 0.0675, -0.1694336, 0.0025962, -0.0041962, 0.0675, 0.1430664, 0.0675, -1, 0.0675, -0.1049805, 0.0025962, 0.0171206, 0.0675, -0.0844727, 0.0675, -1.0004883, 0.0675, 0.0302734, , , , , , , , , , , , , , , , , , , , , , 
0.0031154, 0.0337377, 0.081, -0.2460938, 0.081, -0.9921875, 0.081, 0.0712891, 0.0031154, -0.0083925, 0.081, 0.2783203, 0.081, -0.9541016, 0.081, -0.1674805, 0.0031154, -0.0052033, 0.081, 0.140625, 0.081, -0.9995117, 0.081, -0.0981445, 0.0031154, 0.0146029, 0.081, -0.0864258, 0.081, -0.9980469, 0.081, 0.0322266, , , , , , , , , , , , , , , , , , , , , , 
0.0036346, 0.0339055, 0.0945, -0.2475586, 0.0945, -0.9926758, 0.0945, 0.0664062, 0.0036346, -0.0082246, 0.0945, 0.2832031, 0.0945, -0.9492188, 0.0945, -0.168457, 0.0036346, -0.0048676, 0.0945, 0.1362305, 0.0945, -0.9985352, 0.0945, -0.1010742, 0.0036346, 0.0105745, 0.0945, -0.0952148, 0.0945, -0.9946289, 0.0945, 0.0302734, , , , , , , , , , , , , , , , , , , , , , 
0.0041538, 0.0307164, 0.108, -0.2470703, 0.108, -0.9975586, 0.108, 0.0678711, 0.0041538, -0.0068818, 0.108, 0.277832, 0.108, -0.9570312, 0.108, -0.1669922, 0.0041538, -0.005539, 0.108, 0.1362305, 0.108, -0.9990234, 0.108, -0.0996094, 0.0041538, 0.0092317, 0.108, -0.0952148, 0.108, -0.9980469, 0.108, 0.0288086, , , , , , , , , , , , , , , , , , , , , , 
0.0046731, 0.027863, 0.1215, -0.2485352, 0.1215, -0.9980469, 0.1215, 0.065918, 0.0046731, -0.0058747, 0.1215, 0.269043, 0.1215, -0.9638672, 0.1215, -0.168457, 0.0046731, -0.005539, 0.1215, 0.1391602, 0.1215, -1.003418, 0.1215, -0.1030273, 0.0046731, 0.0075532, 0.1215, -0.0810547, 0.1215, -1.0058594, 0.1215, 0.0283203, , , , , , , , , , , , , , , , , , , , , , 
0.0051923, 0.0229953, 0.135, -0.2553711, 0.135, -0.9990234, 0.135, 0.0683594, 0.0051923, -0.005539, 0.135, 0.2700195, 0.135, -0.9604492, 0.135, -0.1704102, 0.0051923, -0.0045319, 0.135, 0.1420898, 0.135, -1.0063477, 0.135, -0.1010742, 0.0051923, 0.0026856, 0.135, -0.0795898, 0.135, -1.0048828, 0.135, 0.0307617, , , , , , , , , , , , , , , , , , , , , , 
0.0057115, 0.0203098, 0.1485, -0.2568359, 0.1485, -1.0004883, 0.1485, 0.0644531, 0.0057115, -0.0075532, 0.1485, 0.2744141, 0.1485, -0.9589844, 0.1485, -0.1689453, 0.0057115, -0.0045319, 0.1485, 0.1430664, 0.1485, -1.0053711, 0.1485, -0.1015625, 0.0057115, 0.0011749, 0.1485, -0.0864258, 0.1485, -1.0014648, 0.1485, 0.0317383, , , , , , , , , , , , , , , , , , , , , , 
0.0062308, 0.0203098, 0.162, -0.2529297, 0.162, -1, 0.162, 0.0668945, 0.0062308, -0.0083925, 0.162, 0.2724609, 0.162, -0.9628906, 0.162, -0.1694336, 0.0062308, -0.005539, 0.162, 0.1450195, 0.162, -1.0048828, 0.162, -0.1040039, 0.0062308, 0.0038605, 0.162, -0.0898438, 0.162, -0.9995117, 0.162, 0.0302734, , , , , , , , , , , , , , , , , , , , , , 
0.00675, 0.0236667, 0.1755, -0.2475586, 0.1755, -0.9960938, 0.1755, 0.0703125, 0.00675, -0.0105745, 0.1755, 0.2719727, 0.1755, -0.9594727, 0.1755, -0.1713867, 0.00675, -0.0058747, 0.1755, 0.144043, 0.1755, -1.0048828, 0.1755, -0.1005859, 0.00675, 0.0062104, 0.1755, -0.0893555, 0.1755, -1.0043945, 0.1755, 0.0351562, , , , , , , , , , , , , , , , , , , , , , 
0.0072692, 0.0313878, 0.189, -0.2446289, 0.189, -0.9970703, 0.189, 0.0673828, 0.0072692, -0.0102388, 0.189, 0.277832, 0.189, -0.9584961, 0.189, -0.1689453, 0.0072692, -0.0077211, 0.189, 0.1396484, 0.189, -1.0009766, 0.189, -0.1005859, 0.0072692, 0.0043641, 0.189, -0.0908203, 0.189, -1.0019531, 0.189, 0.0356445, , , , , , , , , , , , , , , , , , , , , , 
0.0077885, 0.0461585, 0.2025, -0.2451172, 0.2025, -0.996582, 0.2025, 0.0673828, 0.0077885, -0.0075532, 0.2025, 0.2802734, 0.2025, -0.9560547, 0.2025, -0.1689453, 0.0077885, -0.0082246, 0.2025, 0.1391602, 0.2025, -1, 0.2025, -0.1049805, 0.0077885, 0.0011749, 0.2025, -0.0913086, 0.2025, -1.0004883, 0.2025, 0.0336914, , , , , , , , , , , , , , , , , , , , , , 
0.0083077, 0.0582437, 0.216, -0.246582, 0.216, -0.9960938, 0.216, 0.0668945, 0.0083077, -0.0068818, 0.216, 0.2734375, 0.216, -0.9584961, 0.216, -0.1694336, 0.0083077, -0.0068818, 0.216, 0.1411133, 0.216, -0.9985352, 0.216, -0.1054688, 0.0083077, -0.0011749, 0.216, -0.0834961, 0.216, -1, 0.216, 0.0307617, , , , , , , , , , , , , , , , , , , , , , 
0.0088269, 0.063447, 0.2295, -0.2470703, 0.2295, -0.9941406, 0.2295, 0.0649414, 0.0088269, -0.0075532, 0.2295, 0.2705078, 0.2295, -0.9570312, 0.2295, -0.1699219, 0.0088269, -0.0082246, 0.2295, 0.1455078, 0.2295, -1.0014648, 0.2295, -0.1064453, 0.0088269, -0.002182, 0.2295, -0.0834961, 0.2295, -0.9995117, 0.2295, 0.0322266, , , , , , , , , , , , , , , , , , , , , , 
0.0093462, 0.0669718, 0.243, -0.25, 0.243, -0.9960938, 0.243, 0.0654297, 0.0093462, -0.0095674, 0.243, 0.2700195, 0.243, -0.9555664, 0.243, -0.1689453, 0.0093462, -0.012253, 0.243, 0.1450195, 0.243, -1.0009766, 0.243, -0.1040039, 0.0093462, -0.0031891, 0.243, -0.0869141, 0.243, -1.0004883, 0.243, 0.0292969, , , , , , , , , , , , , , , , , , , , , , 
0.0098654, 0.068986, 0.2565, -0.2563477, 0.2565, -1, 0.2565, 0.0649414, 0.0098654, -0.0090639, 0.2565, 0.2749023, 0.2565, -0.9594727, 0.2565, -0.1660156, 0.0098654, -0.0135958, 0.2565, 0.1416016, 0.2565, -1.0058594, 0.2565, -0.0981445, 0.0098654, -0.0038605, 0.2565, -0.0883789, 0.2565, -1.0024414, 0.2565, 0.0297852, , , , , , , , , , , , , , , , , , , , , , 
0.0103846, 0.0632792, 0.27, -0.2539062, 0.27, -0.9970703, 0.27, 0.065918, 0.0103846, -0.0052033, 0.27, 0.2729492, 0.27, -0.9604492, 0.27, -0.168457, 0.0103846, -0.014435, 0.27, 0.1396484, 0.27, -1.0043945, 0.27, -0.0976562, 0.0103846, -0.0038605, 0.27, -0.0908203, 0.27, -0.9990234, 0.27, 0.0292969, , , , , , , , , , , , , , , , , , , , , , 
0.0109038, 0.0532082, 0.2835, -0.2475586, 0.2835, -0.9970703, 0.2835, 0.0673828, 0.0109038, -0.0031891, 0.2835, 0.2739258, 0.2835, -0.9589844, 0.2835, -0.1699219, 0.0109038, -0.0162814, 0.2835, 0.1386719, 0.2835, -1.0009766, 0.2835, -0.0986328, 0.0109038, -0.0018463, 0.2835, -0.0942383, 0.2835, -0.9975586, 0.2835, 0.03125, , , , , , , , , , , , , , , , , , , , , , 
0.0114231, 0.0417945, 0.297, -0.2416992, 0.297, -0.9970703, 0.297, 0.0717773, 0.0114231, -0.0038605, 0.297, 0.2788086, 0.297, -0.9575195, 0.297, -0.1708984, 0.0114231, -0.0172885, 0.297, 0.1386719, 0.297, -1.0029297, 0.297, -0.1010742, 0.0114231, 0.0018463, 0.297, -0.0947266, 0.297, -0.996582, 0.297, 0.0322266, , , , , , , , , , , , , , , , , , , , , , 
0.0119423, 0.0307164, 0.3105, -0.2407227, 0.3105, -0.9951172, 0.3105, 0.0673828, 0.0119423, -0.005539, 0.3105, 0.2802734, 0.3105, -0.9560547, 0.3105, -0.168457, 0.0119423, -0.0166171, 0.3105, 0.1411133, 0.3105, -1.0009766, 0.3105, -0.1083984, 0.0119423, 0.0062104, 0.3105, -0.0913086, 0.3105, -0.9960938, 0.3105, 0.0332031, , , , , , , , , , , , , , , , , , , , , , 
0.0124615, 0.0219883, 0.324, -0.2431641, 0.324, -0.9946289, 0.324, 0.0673828, 0.0124615, -0.0078889, 0.324, 0.2753906, 0.324, -0.9580078, 0.324, -0.1704102, 0.0124615, -0.0169528, 0.324, 0.1430664, 0.324, -0.9990234, 0.324, -0.1049805, 0.0124615, 0.0102388, 0.324, -0.0849609, 0.324, -0.9995117, 0.324, 0.034668, , , , , , , , , , , , , , , , , , , , , , 
0.0129808, 0.014435, 0.3375, -0.2451172, 0.3375, -0.9995117, 0.3375, 0.0654297, 0.0129808, -0.0078889, 0.3375, 0.2661133, 0.3375, -0.9570312, 0.3375, -0.1728516, 0.0129808, -0.0162814, 0.3375, 0.1459961, 0.3375, -1, 0.3375, -0.1005859, 0.0129808, 0.0129244, 0.3375, -0.081543, 0.3375, -1.0014648, 0.3375, 0.0322266, , , , , , , , , , , , , , , , , , , , , , 
0.0135, 0.0052033, 0.351, -0.2524414, 0.351, -0.9990234, 0.351, 0.0639648, 0.0135, -0.0065461, 0.351, 0.2646484, 0.351, -0.9594727, 0.351, -0.1723633, 0.0135, -0.0135958, 0.351, 0.144043, 0.351, -1.0019531, 0.351, -0.1035156, 0.0135, 0.0152743, 0.351, -0.0859375, 0.351, -1.0014648, 0.351, 0.0297852, , , , , , , , , , , , , , , , , , , , , , 
0.0140192, -0.0083925, 0.3645, -0.2543945, 0.3645, -0.9985352, 0.3645, 0.0644531, 0.0140192, -0.0068818, 0.3645, 0.2675781, 0.3645, -0.9589844, 0.3645, -0.1708984, 0.0140192, -0.0135958, 0.3645, 0.1411133, 0.3645, -1.0053711, 0.3645, -0.1049805, 0.0140192, 0.0193027, 0.3645, -0.0874023, 0.3645, -1.0019531, 0.3645, 0.0273438, , , , , , , , , , , , , , , , , , , , , , 
0.0145385, -0.0223239, 0.378, -0.2524414, 0.378, -0.9990234, 0.378, 0.0664062, 0.0145385, -0.0068818, 0.378, 0.2734375, 0.378, -0.9594727, 0.378, -0.1674805, 0.0145385, -0.0119173, 0.378, 0.1367188, 0.378, -1.0073242, 0.378, -0.1025391, 0.0145385, 0.0226596, 0.378, -0.0849609, 0.378, -1.0039062, 0.378, 0.0302734, , , , , , , , , , , , , , , , , , , , , , 
0.0150577, -0.0339055, 0.3915, -0.2475586, 0.3915, -0.9985352, 0.3915, 0.0673828, 0.0150577, -0.0062104, 0.3915, 0.2817383, 0.3915, -0.9580078, 0.3915, -0.1660156, 0.0150577, -0.0082246, 0.3915, 0.1367188, 0.3915, -1.0073242, 0.3915, -0.1020508, 0.0150577, 0.0229953, 0.3915, -0.0874023, 0.3915, -1.0019531, 0.3915, 0.0332031, , , , , , , , , , , , , , , , , , , , , , 
0.0155769, -0.0386053, 0.405, -0.2451172, 0.405, -0.996582, 0.405, 0.0717773, 0.0155769, -0.0068818, 0.405, 0.2827148, 0.405, -0.9560547, 0.405, -0.1650391, 0.0155769, -0.0072175, 0.405, 0.1411133, 0.405, -1.0039062, 0.405, -0.1025391, 0.0155769, 0.0248417, 0.405, -0.090332, 0.405, -1, 0.405, 0.0332031, , , , , , , , , , , , , , , , , , , , , , 
0.0160962, -0.0421302, 0.4185, -0.2426758, 0.4185, -0.9985352, 0.4185, 0.0703125, 0.0160962, -0.0078889, 0.4185, 0.2827148, 0.4185, -0.9580078, 0.4185, -0.1679688, 0.0160962, -0.0063783, 0.4185, 0.1435547, 0.4185, -1.0009766, 0.4185, -0.1049805, 0.0160962, 0.027863, 0.4185, -0.0913086, 0.4185, -1, 0.4185, 0.0322266, , , , , , , , , , , , , , , , , , , , , , 
0.0166154, -0.0451514, 0.432, -0.2421875, 0.432, -0.9975586, 0.432, 0.0683594, 0.0166154, -0.0068818, 0.432, 0.2768555, 0.432, -0.9580078, 0.432, -0.1689453, 0.0166154, -0.0041962, 0.432, 0.1435547, 0.432, -1.0004883, 0.432, -0.1035156, 0.0166154, 0.030045, 0.432, -0.0854492, 0.432, -0.9995117, 0.432, 0.0288086, , , , , , , , , , , , , , , , , , , , , , 
0.0171346, -0.0451514, 0.4455, -0.2460938, 0.4455, -0.9946289, 0.4455, 0.0678711, 0.0171346, -0.0062104, 0.4455, 0.2695312, 0.4455, -0.9550781, 0.4455, -0.1689453, 0.0171346, -0.0038605, 0.4455, 0.144043, 0.4455, -0.9990234, 0.4455, -0.1040039, 0.0171346, 0.0317235, 0.4455, -0.0830078, 0.4455, -0.9985352, 0.4455, 0.03125, , , , , , , , , , , , , , , , , , , , , , 
0.0176538, -0.0419623, 0.459, -0.25, 0.459, -0.9960938, 0.459, 0.0678711, 0.0176538, -0.005539, 0.459, 0.2670898, 0.459, -0.9541016, 0.459, -0.1728516, 0.0176538, -0.0050355, 0.459, 0.140625, 0.459, -1.0009766, 0.459, -0.1049805, 0.0176538, 0.030045, 0.459, -0.0805664, 0.459, -1, 0.459, 0.0327148, , , , , , , , , , , , , , , , , , , , , , 
0.0181731, -0.0313878, 0.4725, -0.2485352, 0.4725, -0.9970703, 0.4725, 0.0678711, 0.0181731, -0.005539, 0.4725, 0.265625, 0.4725, -0.9555664, 0.4725, -0.1757812, 0.0181731, -0.0057069, 0.4725, 0.1455078, 0.4725, -1.0009766, 0.4725, -0.105957, 0.0181731, 0.0260166, 0.4725, -0.081543, 0.4725, -0.9990234, 0.4725, 0.0307617, , , , , , , , , , , , , , , , , , , , , , 
0.0186923, -0.018967, 0.486, -0.25, 0.486, -0.9951172, 0.486, 0.0678711, 0.0186923, -0.0062104, 0.486, 0.2739258, 0.486, -0.956543, 0.486, -0.1733398, 0.0186923, -0.0057069, 0.486, 0.1425781, 0.486, -1.0029297, 0.486, -0.1040039, 0.0186923, 0.0231632, 0.486, -0.081543, 0.486, -1.0014648, 0.486, 0.0292969, , , , , , , , , , , , , , , , , , , , , , 
0.0192115, -0.0082246, 0.4995, -0.2509766, 0.4995, -0.9951172, 0.4995, 0.0688477, 0.0192115, -0.0072175, 0.4995, 0.2827148, 0.4995, -0.9555664, 0.4995, -0.1655273, 0.0192115, -0.0068818, 0.4995, 0.1416016, 0.4995, -1.0014648, 0.4995, -0.1040039, 0.0192115, 0.021149, 0.4995, -0.0854492, 0.4995, -0.9980469, 0.4995, 0.0292969, , , , , , , , , , , , , , , , , , , , , , 
0.0197308, 0.0011749, 0.513, -0.2451172, 0.513, -0.9946289, 0.513, 0.0693359, 0.0197308, -0.0082246, 0.513, 0.28125, 0.513, -0.9526367, 0.513, -0.1655273, 0.0197308, -0.0082246, 0.513, 0.1381836, 0.513, -0.9946289, 0.513, -0.1000977, 0.0197308, 0.0196384, 0.513, -0.0927734, 0.513, -0.9941406, 0.513, 0.03125, , , , , , , , , , , , , , , , , , , , , , 
0.02025, 0.0045319, 0.5265, -0.2368164, 0.5265, -0.996582, 0.5265, 0.0703125, 0.02025, -0.0082246, 0.5265, 0.2797852, 0.5265, -0.9541016, 0.5265, -0.1674805, 0.02025, -0.0082246, 0.5265, 0.1420898, 0.5265, -0.996582, 0.5265, -0.1044922, 0.02025, 0.0179599, 0.5265, -0.0839844, 0.5265, -0.9980469, 0.5265, 0.0292969, , , , , , , , , , , , , , , , , , , , , , 
0.0207692, 0.0078889, 0.54, -0.2416992, 0.54, -0.9951172, 0.54, 0.0703125, 0.0207692, -0.0077211, 0.54, 0.2773438, 0.54, -0.9580078, 0.54, -0.1679688, 0.0207692, -0.0065461, 0.54, 0.1469727, 0.54, -1.0039062, 0.54, -0.1030273, 0.0207692, 0.0172885, 0.54, -0.0810547, 0.54, -1.0009766, 0.54, 0.0327148, , , , , , , , , , , , , , , , , , , , , , 
0.0212885, 0.0166171, 0.5535, -0.2543945, 0.5535, -0.9956055, 0.5535, 0.0683594, 0.0212885, -0.0077211, 0.5535, 0.2773438, 0.5535, -0.9580078, 0.5535, -0.1699219, 0.0212885, -0.0041962, 0.5535, 0.1416016, 0.5535, -1.0039062, 0.5535, -0.1005859, 0.0212885, 0.0166171, 0.5535, -0.0864258, 0.5535, -0.9980469, 0.5535, 0.0302734, , , , , , , , , , , , , , , , , , , , , , 
0.0218077, 0.0193027, 0.567, -0.2578125, 0.567, -0.9970703, 0.567, 0.0664062, 0.0218077, -0.008896, 0.567, 0.2763672, 0.567, -0.9589844, 0.567, -0.1650391, 0.0218077, -0.002182, 0.567, 0.1401367, 0.567, -1.0024414, 0.567, -0.1010742, 0.0218077, 0.014435, 0.567, -0.0893555, 0.567, -1.0014648, 0.567, 0.0322266, , , , , , , , , , , , , , , , , , , , , , 
0.0223269, 0.0162814, 0.5805, -0.2485352, 0.5805, -0.996582, 0.5805, 0.0678711, 0.0223269, -0.0083925, 0.5805, 0.2719727, 0.5805, -0.9619141, 0.5805, -0.1669922, 0.0223269, -0.0038605, 0.5805, 0.1455078, 0.5805, -1.0014648, 0.5805, -0.1035156, 0.0223269, 0.0115816, 0.5805, -0.0839844, 0.5805, -0.9990234, 0.5805, 0.03125, , , , , , , , , , , , , , , , , , , , , , 
0.0228462, 0.0176242, 0.594, -0.2451172, 0.594, -0.9960938, 0.594, 0.0678711, 0.0228462, -0.0068818, 0.594, 0.2749023, 0.594, -0.9594727, 0.594, -0.1674805, 0.0228462, -0.0058747, 0.594, 0.1435547, 0.594, -1.0029297, 0.594, -0.1035156, 0.0228462, 0.0102388, 0.594, -0.0874023, 0.594, -0.9990234, 0.594, 0.03125, , , , , , , , , , , , , , , , , , , , , , 
0.0233654, 0.0206455, 0.6075, -0.2416992, 0.6075, -0.9951172, 0.6075, 0.0688477, 0.0233654, -0.0062104, 0.6075, 0.2792969, 0.6075, -0.9575195, 0.6075, -0.171875, 0.0233654, -0.005539, 0.6075, 0.1420898, 0.6075, -0.9956055, 0.6075, -0.1049805, 0.0233654, 0.0099031, 0.6075, -0.0927734, 0.6075, -0.996582, 0.6075, 0.0356445, , , , , , , , , , , , , , , , , , , , , , 
0.0238846, 0.0216526, 0.621, -0.2421875, 0.621, -0.9970703, 0.621, 0.0673828, 0.0238846, -0.0068818, 0.621, 0.2724609, 0.621, -0.9570312, 0.621, -0.1708984, 0.0238846, -0.0035248, 0.621, 0.1416016, 0.621, -0.9960938, 0.621, -0.1074219, 0.0238846, 0.0083925, 0.621, -0.0864258, 0.621, -0.9985352, 0.621, 0.0341797, , , , , , , , , , , , , , , , , , , , , , 
0.0244038, 0.0213169, 0.6345, -0.2451172, 0.6345, -0.9921875, 0.6345, 0.0668945, 0.0244038, -0.0082246, 0.6345, 0.2695312, 0.6345, -0.953125, 0.6345, -0.1704102, 0.0244038, -0.0045319, 0.6345, 0.1425781, 0.6345, -0.9975586, 0.6345, -0.1064453, 0.0244038, 0.0058747, 0.6345, -0.0776367, 0.6345, -0.996582, 0.6345, 0.03125, , , , , , , , , , , , , , , , , , , , , , 
0.0249231, 0.0246738, 0.648, -0.2485352, 0.648, -0.9916992, 0.648, 0.0639648, 0.0249231, -0.0092317, 0.648, 0.2680664, 0.648, -0.9536133, 0.648, -0.1694336, 0.0249231, -0.0048676, 0.648, 0.144043, 0.648, -0.9985352, 0.648, -0.1054688, 0.0249231, 0.0050355, 0.648, -0.0844727, 0.648, -0.9931641, 0.648, 0.03125, , , , , , , , , , , , , , , , , , , , , , 
0.0254423, 0.0313878, 0.6615, -0.2509766, 0.6615, -0.9926758, 0.6615, 0.0654297, 0.0254423, -0.0078889, 0.6615, 0.2700195, 0.6615, -0.9536133, 0.6615, -0.168457, 0.0254423, -0.0082246, 0.6615, 0.1445312, 0.6615, -0.9975586, 0.6615, -0.1054688, 0.0254423, 0.005539, 0.6615, -0.0878906, 0.6615, -0.9956055, 0.6615, 0.0317383, , , , , , , , , , , , , , , , , , , , , , 
0.0259615, 0.0318914, 0.675, -0.2509766, 0.675, -0.9956055, 0.675, 0.0649414, 0.0259615, -0.0073854, 0.675, 0.2685547, 0.675, -0.9560547, 0.675, -0.1669922, 0.0259615, -0.0095674, 0.675, 0.1435547, 0.675, -1.0009766, 0.675, -0.1030273, 0.0259615, 0.0065461, 0.675, -0.0830078, 0.675, -1.0024414, 0.675, 0.0322266, , , , , , , , , , , , , , , , , , , , , , 
0.0264808, 0.0293736, 0.6885, -0.2495117, 0.6885, -0.9926758, 0.6885, 0.0673828, 0.0264808, -0.008896, 0.6885, 0.2768555, 0.6885, -0.9580078, 0.6885, -0.1660156, 0.0264808, -0.0099031, 0.6885, 0.1396484, 0.6885, -1.0043945, 0.6885, -0.1000977, 0.0264808, 0.0078889, 0.6885, -0.0883789, 0.6885, -1.0019531, 0.6885, 0.0292969, , , , , , , , , , , , , , , , , , , , , , 
0.027, 0.033402, 0.702, -0.2514648, 0.702, -0.9936523, 0.702, 0.0654297, 0.027, -0.0109102, 0.702, 0.2817383, 0.702, -0.9594727, 0.702, -0.1630859, 0.027, -0.0095674, 0.702, 0.1376953, 0.702, -1, 0.702, -0.1000977, 0.027, 0.0078889, 0.702, -0.0991211, 0.702, -0.9960938, 0.702, 0.03125, , , , , , , , , , , , , , , , , , , , , , 
0.0275192, 0.0439765, 0.7155, -0.2456055, 0.7155, -0.9946289, 0.7155, 0.0688477, 0.0275192, -0.0102388, 0.7155, 0.2763672, 0.7155, -0.9580078, 0.7155, -0.1694336, 0.0275192, -0.0095674, 0.7155, 0.1376953, 0.7155, -0.9980469, 0.7155, -0.1035156, 0.0275192, 0.0065461, 0.7155, -0.0947266, 0.7155, -0.9946289, 0.7155, 0.0332031, , , , , , , , , , , , , , , , , , , , , , 
0.0280385, 0.054551, 0.729, -0.2421875, 0.729, -0.9926758, 0.729, 0.0673828, 0.0280385, -0.0085603, 0.729, 0.2753906, 0.729, -0.9580078, 0.729, -0.1699219, 0.0280385, -0.0097353, 0.729, 0.1450195, 0.729, -1.0019531, 0.729, -0.1040039, 0.0280385, 0.0038605, 0.729, -0.0854492, 0.729, -0.9990234, 0.729, 0.0336914, , , , , , , , , , , , , , , , , , , , , , 
0.0285577, 0.0614328, 0.7425, -0.2426758, 0.7425, -0.9956055, 0.7425, 0.065918, 0.0285577, -0.0075532, 0.7425, 0.2749023, 0.7425, -0.9599609, 0.7425, -0.1704102, 0.0285577, -0.008896, 0.7425, 0.1469727, 0.7425, -1, 0.7425, -0.1044922, 0.0285577, 0.0018463, 0.7425, -0.0825195, 0.7425, -0.9990234, 0.7425, 0.0341797, , , , , , , , , , , , , , , , , , , , , , 
0.0290769, 0.064622, 0.756, -0.2451172, 0.756, -0.9956055, 0.756, 0.0688477, 0.0290769, -0.0062104, 0.756, 0.2700195, 0.756, -0.9575195, 0.756, -0.1738281, 0.0290769, -0.0092317, 0.756, 0.1499023, 0.756, -0.9990234, 0.756, -0.1015625, 0.0290769, 0.0001678, 0.756, -0.0825195, 0.756, -1.0014648, 0.756, 0.0361328, , , , , , , , , , , , , , , , , , , , , , 
0.0295962, 0.0636149, 0.7695, -0.25, 0.7695, -0.9921875, 0.7695, 0.0683594, 0.0295962, -0.0068818, 0.7695, 0.2651367, 0.7695, -0.9560547, 0.7695, -0.1728516, 0.0295962, -0.0102388, 0.7695, 0.1489258, 0.7695, -1.0009766, 0.7695, -0.1005859, 0.0295962, -0.0025177, 0.7695, -0.0874023, 0.7695, -1.0009766, 0.7695, 0.0327148, , , , , , , , , , , , , , , , , , , , , , 
0.0301154, 0.0595865, 0.783, -0.2548828, 0.783, -0.9926758, 0.783, 0.0683594, 0.0301154, -0.0072175, 0.783, 0.2651367, 0.783, -0.9550781, 0.783, -0.1767578, 0.0301154, -0.0102388, 0.783, 0.1445312, 0.783, -1.0014648, 0.783, -0.0981445, 0.0301154, -0.0041962, 0.783, -0.09375, 0.783, -0.9995117, 0.783, 0.0336914, , , , , , , , , , , , , , , , , , , , , , 
0.0306346, 0.0501869, 0.7965, -0.2509766, 0.7965, -0.9951172, 0.7965, 0.0712891, 0.0306346, -0.0058747, 0.7965, 0.2758789, 0.7965, -0.9594727, 0.7965, -0.1704102, 0.0306346, -0.0115816, 0.7965, 0.140625, 0.7965, -1.0004883, 0.7965, -0.0991211, 0.0306346, -0.0041962, 0.7965, -0.0952148, 0.7965, -0.9980469, 0.7965, 0.0332031, , , , , , , , , , , , , , , , , , , , , , 
0.0311538, 0.0424659, 0.81, -0.2504883, 0.81, -0.9951172, 0.81, 0.0732422, 0.0311538, -0.005539, 0.81, 0.2817383, 0.81, -0.9594727, 0.81, -0.168457, 0.0311538, -0.0109102, 0.81, 0.1391602, 0.81, -1.0024414, 0.81, -0.0996094, 0.0311538, -0.0023499, 0.81, -0.0927734, 0.81, -1.0024414, 0.81, 0.0366211, , , , , , , , , , , , , , , , , , , , , , 
0.0316731, 0.0347448, 0.8235, -0.246582, 0.8235, -0.9975586, 0.8235, 0.0712891, 0.0316731, -0.005539, 0.8235, 0.2822266, 0.8235, -0.9570312, 0.8235, -0.168457, 0.0316731, -0.0112459, 0.8235, 0.1416016, 0.8235, -1.0043945, 0.8235, -0.0996094, 0.0316731, 0.0015106, 0.8235, -0.0917969, 0.8235, -1.0048828, 0.8235, 0.034668, , , , , , , , , , , , , , , , , , , , , , 
0.0321923, 0.0260166, 0.837, -0.2460938, 0.837, -0.9975586, 0.837, 0.0708008, 0.0321923, -0.0046998, 0.837, 0.2807617, 0.837, -0.9609375, 0.837, -0.1723633, 0.0321923, -0.012253, 0.837, 0.1469727, 0.837, -1.0063477, 0.837, -0.0986328, 0.0321923, 0.005539, 0.837, -0.09375, 0.837, -1.0024414, 0.837, 0.034668, , , , , , , , , , , , , , , , , , , , , , 
0.0327115, 0.01561, 0.8505, -0.2490234, 0.8505, -0.9995117, 0.8505, 0.0722656, 0.0327115, -0.005539, 0.8505, 0.2792969, 0.8505, -0.9604492, 0.8505, -0.1704102, 0.0327115, -0.0102388, 0.8505, 0.1474609, 0.8505, -1.0048828, 0.8505, -0.0966797, 0.0327115, 0.0085603, 0.8505, -0.0932617, 0.8505, -1.0004883, 0.8505, 0.0375977, , , , , , , , , , , , , , , , , , , , , , 
0.0332308, 0.0065461, 0.864, -0.2509766, 0.864, -0.996582, 0.864, 0.0737305, 0.0332308, -0.0065461, 0.864, 0.2783203, 0.864, -0.9580078, 0.864, -0.1699219, 0.0332308, -0.0083925, 0.864, 0.1416016, 0.864, -1.0029297, 0.864, -0.097168, 0.0332308, 0.0109102, 0.864, -0.0917969, 0.864, -0.9990234, 0.864, 0.0366211, , , , , , , , , , , , , , , , , , , , , , 
0.03375, -0.0008392, 0.8775, -0.253418, 0.8775, -0.9926758, 0.8775, 0.0742188, 0.03375, -0.0068818, 0.8775, 0.2788086, 0.8775, -0.953125, 0.8775, -0.1733398, 0.03375, -0.0102388, 0.8775, 0.140625, 0.8775, -1.0039062, 0.8775, -0.0947266, 0.03375, 0.0142672, 0.8775, -0.0947266, 0.8775, -0.9975586, 0.8775, 0.0356445, , , , , , , , , , , , , , , , , , , , , , 
0.0342692, -0.0109102, 0.891, -0.2553711, 0.891, -0.9921875, 0.891, 0.0732422, 0.0342692, -0.0063783, 0.891, 0.2792969, 0.891, -0.9526367, 0.891, -0.1723633, 0.0342692, -0.0115816, 0.891, 0.137207, 0.891, -1.0019531, 0.891, -0.0908203, 0.0342692, 0.0193027, 0.891, -0.097168, 0.891, -0.9951172, 0.891, 0.0356445, , , , , , , , , , , , , , , , , , , , , , 
0.0347885, -0.0216526, 0.9045, -0.253418, 0.9045, -0.9916992, 0.9045, 0.0727539, 0.0347885, -0.0065461, 0.9045, 0.2836914, 0.9045, -0.9526367, 0.9045, -0.1704102, 0.0347885, -0.0109102, 0.9045, 0.1362305, 0.9045, -1.0004883, 0.9045, -0.0913086, 0.0347885, 0.0226596, 0.9045, -0.1035156, 0.9045, -0.9936523, 0.9045, 0.0336914, , , , , , , , , , , , , , , , , , , , , , 
0.0353077, -0.0354162, 0.918, -0.2480469, 0.918, -0.9951172, 0.918, 0.0756836, 0.0353077, -0.0065461, 0.918, 0.2792969, 0.918, -0.9560547, 0.918, -0.1733398, 0.0353077, -0.0075532, 0.918, 0.1376953, 0.918, -1.0004883, 0.918, -0.0898438, 0.0353077, 0.0226596, 0.918, -0.1020508, 0.918, -1.0053711, 0.918, 0.0356445, , , , , , , , , , , , , , , , , , , , , , 
0.0358269, -0.0451514, 0.9315, -0.2475586, 0.9315, -0.9907227, 0.9315, 0.0766602, 0.0358269, -0.0062104, 0.9315, 0.2807617, 0.9315, -0.956543, 0.9315, -0.1733398, 0.0358269, -0.005539, 0.9315, 0.1455078, 0.9315, -0.9980469, 0.9315, -0.0908203, 0.0358269, 0.0231632, 0.9315, -0.0981445, 0.9315, -1.0004883, 0.9315, 0.0385742, , , , , , , , , , , , , , , , , , , , , , 
0.0363462, -0.0469978, 0.945, -0.2485352, 0.945, -0.987793, 0.945, 0.0776367, 0.0363462, -0.0062104, 0.945, 0.2783203, 0.945, -0.9506836, 0.945, -0.1762695, 0.0363462, -0.0041962, 0.945, 0.1499023, 0.945, -0.9956055, 0.945, -0.0913086, 0.0363462, 0.0240024, 0.945, -0.1025391, 0.945, -0.9946289, 0.945, 0.0395508, , , , , , , , , , , , , , , , , , , , , , 
0.0368654, -0.0466621, 0.9585, -0.2504883, 0.9585, -0.9902344, 0.9585, 0.0771484, 0.0368654, -0.0062104, 0.9585, 0.2788086, 0.9585, -0.949707, 0.9585, -0.1748047, 0.0368654, -0.0041962, 0.9585, 0.1499023, 0.9585, -0.9985352, 0.9585, -0.0898438, 0.0368654, 0.0280308, 0.9585, -0.1054688, 0.9585, -0.9980469, 0.9585, 0.034668, , , , , , , , , , , , , , , , , , , , , , 
0.0373846, -0.0421302, 0.972, -0.2578125, 0.972, -0.9916992, 0.972, 0.0761719, 0.0373846, -0.0068818, 0.972, 0.2783203, 0.972, -0.9575195, 0.972, -0.1733398, 0.0373846, -0.0045319, 0.972, 0.1420898, 0.972, -1.003418, 0.972, -0.0874023, 0.0373846, 0.0292058, 0.972, -0.1044922, 0.972, -0.9985352, 0.972, 0.0351562, , , , , , , , , , , , , , , , , , , , , , 
0.0379038, -0.0318914, 0.9855, -0.2602539, 0.9855, -0.9912109, 0.9855, 0.078125, 0.0379038, -0.0058747, 0.9855, 0.2827148, 0.9855, -0.9550781, 0.9855, -0.1694336, 0.0379038, -0.0045319, 0.9855, 0.1308594, 0.9855, -1.0024414, 0.9855, -0.0878906, 0.0379038, 0.0250095, 0.9855, -0.1044922, 0.9855, -0.9980469, 0.9855, 0.0366211, , , , , , , , , , , , , , , , , , , , , , 
0.0384231, -0.0203098, 0.999, -0.2607422, 0.999, -0.987793, 0.999, 0.0786133, 0.0384231, -0.005539, 0.999, 0.2856445, 0.999, -0.9521484, 0.999, -0.1708984, 0.0384231, -0.0057069, 0.999, 0.1333008, 0.999, -0.9970703, 0.999, -0.0830078, 0.0384231, 0.0203098, 0.999, -0.105957, 0.999, -0.9936523, 0.999, 0.0366211, , , , , , , , , , , , , , , , , , , , , , 
0.0389423, -0.0075532, 1.0125, -0.2553711, 1.0125, -0.9848633, 1.0125, 0.0839844, 0.0389423, -0.0065461, 1.0125, 0.2875977, 1.0125, -0.9477539, 1.0125, -0.1708984, 0.0389423, -0.0062104, 1.0125, 0.1469727, 1.0125, -0.9912109, 1.0125, -0.0839844, 0.0389423, 0.0172885, 1.0125, -0.1069336, 1.0125, -0.9897461, 1.0125, 0.0380859, , , , , , , , , , , , , , , , , , , , , , 
0.0394615, 0.0015106, 1.026, -0.2529297, 1.026, -0.9775391, 1.026, 0.0874023, 0.0394615, -0.0082246, 1.026, 0.2880859, 1.026, -0.9448242, 1.026, -0.1772461, 0.0394615, -0.005539, 1.026, 0.1484375, 1.026, -0.9863281, 1.026, -0.0844727, 0.0394615, 0.0161135, 1.026, -0.1088867, 1.026, -0.9848633, 1.026, 0.043457, , , , , , , , , , , , , , , , , , , , , , 
0.0399808, 0.0092317, 1.0395, -0.2578125, 1.0395, -0.96875, 1.0395, 0.0991211, 0.0399808, -0.0097353, 1.0395, 0.2871094, 1.0395, -0.9379883, 1.0395, -0.1806641, 0.0399808, -0.0072175, 1.0395, 0.152832, 1.0395, -0.980957, 1.0395, -0.0761719, 0.0399808, 0.0159457, 1.0395, -0.1079102, 1.0395, -0.9819336, 1.0395, 0.0454102, , , , , , , , , , , , , , , , , , , , , , 
0.0405, 0.0172885, 1.053, -0.2705078, 1.053, -0.9541016, 1.053, 0.1030273, 0.0405, -0.0099031, 1.053, 0.2885742, 1.053, -0.9208984, 1.053, -0.1801758, 0.0405, -0.0082246, 1.053, 0.1445312, 1.053, -0.9814453, 1.053, -0.0649414, 0.0405, 0.0166171, 1.053, -0.1191406, 1.053, -0.9741211, 1.053, 0.0507812, , , , , , , , , , , , , , , , , , , , , , 
0.0410192, 0.0219883, 1.0665, -0.2905273, 1.0665, -0.9501953, 1.0665, 0.1025391, 0.0410192, -0.0095674, 1.0665, 0.2993164, 1.0665, -0.9135742, 1.0665, -0.1777344, 0.0410192, -0.0082246, 1.0665, 0.1357422, 1.0665, -0.9858398, 1.0665, -0.0512695, 0.0410192, 0.0172885, 1.0665, -0.1459961, 1.0665, -0.9711914, 1.0665, 0.0537109, , , , , , , , , , , , , , , , , , , , , , 
0.0415385, 0.0216526, 1.08, -0.293457, 1.08, -0.9584961, 1.08, 0.1049805, 0.0415385, -0.0105745, 1.08, 0.3046875, 1.08, -0.9233398, 1.08, -0.175293, 0.0415385, -0.0065461, 1.08, 0.1289062, 1.08, -0.9829102, 1.08, -0.0463867, 0.0415385, 0.0152743, 1.08, -0.1665039, 1.08, -0.9677734, 1.08, 0.0576172, , , , , , , , , , , , , , , , , , , , , , 
0.0420577, 0.0209812, 1.0935, -0.2788086, 1.0935, -0.965332, 1.0935, 0.1069336, 0.0420577, -0.0109102, 1.0935, 0.309082, 1.0935, -0.9321289, 1.0935, -0.1743164, 0.0420577, -0.0075532, 1.0935, 0.1240234, 1.0935, -0.9858398, 1.0935, -0.0493164, 0.0420577, 0.0127565, 1.0935, -0.1689453, 1.0935, -0.9765625, 1.0935, 0.0541992, , , , , , , , , , , , , , , , , , , , , , 
0.0425769, 0.0193027, 1.107, -0.2719727, 1.107, -0.9692383, 1.107, 0.1079102, 0.0425769, -0.0099031, 1.107, 0.3198242, 1.107, -0.9370117, 1.107, -0.1748047, 0.0425769, -0.0102388, 1.107, 0.1259766, 1.107, -0.987793, 1.107, -0.0493164, 0.0425769, 0.0127565, 1.107, -0.1582031, 1.107, -0.9785156, 1.107, 0.0517578, , , , , , , , , , , , , , , , , , , , , , 
0.0430962, 0.0213169, 1.1205, -0.2753906, 1.1205, -0.965332, 1.1205, 0.109375, 0.0430962, -0.0095674, 1.1205, 0.3178711, 1.1205, -0.9306641, 1.1205, -0.1738281, 0.0430962, -0.0095674, 1.1205, 0.1293945, 1.1205, -0.984375, 1.1205, -0.0498047, 0.0430962, 0.0132601, 1.1205, -0.1469727, 1.1205, -0.9770508, 1.1205, 0.050293, , , , , , , , , , , , , , , , , , , , , , 
0.0436154, 0.0273594, 1.134, -0.28125, 1.134, -0.9560547, 1.134, 0.1118164, 0.0436154, -0.0090639, 1.134, 0.3076172, 1.134, -0.9213867, 1.134, -0.1811523, 0.0436154, -0.0075532, 1.134, 0.1489258, 1.134, -0.9755859, 1.134, -0.050293, 0.0436154, 0.0146029, 1.134, -0.144043, 1.134, -0.9692383, 1.134, 0.0517578, , , , , , , , , , , , , , , , , , , , , , 
0.0441346, 0.027863, 1.1475, -0.28125, 1.1475, -0.9521484, 1.1475, 0.1113281, 0.0441346, -0.0082246, 1.1475, 0.3071289, 1.1475, -0.9165039, 1.1475, -0.1826172, 0.0441346, -0.0068818, 1.1475, 0.1577148, 1.1475, -0.9667969, 1.1475, -0.0517578, 0.0441346, 0.0169528, 1.1475, -0.1362305, 1.1475, -0.9658203, 1.1475, 0.0507812, , , , , , , , , , , , , , , , , , , , , , 
0.0446538, 0.0253452, 1.161, -0.2768555, 1.161, -0.9511719, 1.161, 0.112793, 0.0446538, -0.0063783, 1.161, 0.3071289, 1.161, -0.9145508, 1.161, -0.184082, 0.0446538, -0.0085603, 1.161, 0.1586914, 1.161, -0.9677734, 1.161, -0.0458984, 0.0446538, 0.0146029, 1.161, -0.1386719, 1.161, -0.9682617, 1.161, 0.0483398, , , , , , , , , , , , , , , , , , , , , , 
0.0451731, 0.0258488, 1.1745, -0.2792969, 1.1745, -0.9492188, 1.1745, 0.1118164, 0.0451731, -0.0063783, 1.1745, 0.3115234, 1.1745, -0.9165039, 1.1745, -0.175293, 0.0451731, -0.0119173, 1.1745, 0.1459961, 1.1745, -0.9746094, 1.1745, -0.0424805, 0.0451731, 0.0115816, 1.1745, -0.1518555, 1.1745, -0.9658203, 1.1745, 0.0478516, , , , , , , , , , , , , , , , , , , , , , 
0.0456923, 0.030045, 1.188, -0.2856445, 1.188, -0.9462891, 1.188, 0.1069336, 0.0456923, -0.0068818, 1.188, 0.3227539, 1.188, -0.9125977, 1.188, -0.1645508, 0.0456923, -0.012253, 1.188, 0.128418, 1.188, -0.9794922, 1.188, -0.0356445, 0.0456923, 0.0092317, 1.188, -0.1582031, 1.188, -0.9682617, 1.188, 0.0429688, , , , , , , , , , , , , , , , , , , , , , 
0.0462115, 0.030045, 1.2015, -0.2797852, 1.2015, -0.9482422, 1.2015, 0.1010742, 0.0462115, -0.0062104, 1.2015, 0.3310547, 1.2015, -0.9101562, 1.2015, -0.159668, 0.0462115, -0.0095674, 1.2015, 0.1240234, 1.2015, -0.9775391, 1.2015, -0.03125, 0.0462115, 0.0082246, 1.2015, -0.1640625, 1.2015, -0.9682617, 1.2015, 0.0419922, , , , , , , , , , , , , , , , , , , , , , 
0.0467308, 0.0270237, 1.215, -0.2709961, 1.215, -0.9667969, 1.215, 0.0917969, 0.0467308, -0.0045319, 1.215, 0.3325195, 1.215, -0.925293, 1.215, -0.1533203, 0.0467308, -0.0078889, 1.215, 0.1181641, 1.215, -0.980957, 1.215, -0.0322266, 0.0467308, 0.0072175, 1.215, -0.1733398, 1.215, -0.9804688, 1.215, 0.0395508, , , , , , , , , , , , , , , , , , , , , , 
0.04725, 0.0280308, 1.2285, -0.2456055, 1.2285, -0.9799805, 1.2285, 0.0849609, 0.04725, -0.0063783, 1.2285, 0.3203125, 1.2285, -0.9448242, 1.2285, -0.1582031, 0.04725, -0.0082246, 1.2285, 0.1142578, 1.2285, -0.980957, 1.2285, -0.0405273, 0.04725, 0.0052033, 1.2285, -0.159668, 1.2285, -0.9848633, 1.2285, 0.0351562, , , , , , , , , , , , , , , , , , , , , , 
0.0477692, 0.0340734, 1.242, -0.2353516, 1.242, -0.9755859, 1.242, 0.0947266, 0.0477692, -0.0078889, 1.242, 0.2993164, 1.242, -0.9394531, 1.242, -0.1669922, 0.0477692, -0.008896, 1.242, 0.1381836, 1.242, -0.9770508, 1.242, -0.0478516, 0.0477692, 0.0008392, 1.242, -0.1323242, 1.242, -0.9790039, 1.242, 0.0263672, , , , , , , , , , , , , , , , , , , , , , 
0.0482885, 0.0454871, 1.2555, -0.2543945, 1.2555, -0.9628906, 1.2555, 0.0878906, 0.0482885, -0.0068818, 1.2555, 0.2856445, 1.2555, -0.9208984, 1.2555, -0.1733398, 0.0482885, -0.010071, 1.2555, 0.1513672, 1.2555, -0.9814453, 1.2555, -0.0488281, 0.0482885, -0.005539, 1.2555, -0.1171875, 1.2555, -0.9692383, 1.2555, 0.0336914, , , , , , , , , , , , , , , , , , , , , , 
0.0488077, 0.0560616, 1.269, -0.2607422, 1.269, -0.9492188, 1.269, 0.0854492, 0.0488077, -0.0070497, 1.269, 0.2841797, 1.269, -0.9140625, 1.269, -0.1738281, 0.0488077, -0.012253, 1.269, 0.1616211, 1.269, -0.9765625, 1.269, -0.0517578, 0.0488077, -0.008896, 1.269, -0.1108398, 1.269, -0.9658203, 1.269, 0.043457, , , , , , , , , , , , , , , , , , , , , , 
0.0493269, 0.0621042, 1.2825, -0.2602539, 1.2825, -0.9399414, 1.2825, 0.0854492, 0.0493269, -0.0078889, 1.2825, 0.2836914, 1.2825, -0.9082031, 1.2825, -0.1699219, 0.0493269, -0.0129244, 1.2825, 0.1645508, 1.2825, -0.9633789, 1.2825, -0.0537109, 0.0493269, -0.0097353, 1.2825, -0.1147461, 1.2825, -0.9526367, 1.2825, 0.050293, , , , , , , , , , , , , , , , , , , , , , 
0.0498462, 0.0602579, 1.296, -0.2524414, 1.296, -0.9282227, 1.296, 0.0810547, 0.0498462, -0.0083925, 1.296, 0.2900391, 1.296, -0.8989258, 1.296, -0.1577148, 0.0498462, -0.012253, 1.296, 0.1591797, 1.296, -0.9584961, 1.296, -0.0541992, 0.0498462, -0.008896, 1.296, -0.1264648, 1.296, -0.9394531, 1.296, 0.0546875, , , , , , , , , , , , , , , , , , , , , , 
0.0503654, 0.0522011, 1.3095, -0.2368164, 1.3095, -0.9174805, 1.3095, 0.0737305, 0.0503654, -0.0073854, 1.3095, 0.2978516, 1.3095, -0.8891602, 1.3095, -0.1523438, 0.0503654, -0.0117494, 1.3095, 0.1391602, 1.3095, -0.9438477, 1.3095, -0.0478516, 0.0503654, -0.0060426, 1.3095, -0.1337891, 1.3095, -0.9306641, 1.3095, 0.0546875, , , , , , , , , , , , , , , , , , , , , , 
0.0508846, 0.0454871, 1.323, -0.2246094, 1.323, -0.9189453, 1.323, 0.0615234, 0.0508846, -0.0078889, 1.323, 0.2836914, 1.323, -0.8847656, 1.323, -0.1508789, 0.0508846, -0.0117494, 1.323, 0.1254883, 1.323, -0.9365234, 1.323, -0.0488281, 0.0508846, -0.002182, 1.323, -0.1376953, 1.323, -0.9345703, 1.323, 0.0537109, , , , , , , , , , , , , , , , , , , , , , 
0.0514038, 0.0387732, 1.3365, -0.2192383, 1.3365, -0.9257812, 1.3365, 0.0556641, 0.0514038, -0.0087282, 1.3365, 0.2670898, 1.3365, -0.894043, 1.3365, -0.1552734, 0.0514038, -0.0095674, 1.3365, 0.1318359, 1.3365, -0.9272461, 1.3365, -0.0561523, 0.0514038, 0.0008392, 1.3365, -0.125, 1.3365, -0.9301758, 1.3365, 0.0478516, , , , , , , , , , , , , , , , , , , , , , 
0.0519231, 0.0310521, 1.35, -0.2197266, 1.35, -0.9243164, 1.35, 0.0615234, 0.0519231, -0.0092317, 1.35, 0.2514648, 1.35, -0.8911133, 1.35, -0.1557617, 0.0519231, -0.0075532, 1.35, 0.1313477, 1.35, -0.9204102, 1.35, -0.0620117, 0.0519231, 0.0038605, 1.35, -0.1157227, 1.35, -0.9194336, 1.35, 0.0424805, , , , , , , , , , , , , , , , , , , , , , 
0.0524423, 0.0226596, 1.3635, -0.2368164, 1.3635, -0.9067383, 1.3635, 0.0561523, 0.0524423, -0.0095674, 1.3635, 0.2402344, 1.3635, -0.8740234, 1.3635, -0.1542969, 0.0524423, -0.0082246, 1.3635, 0.144043, 1.3635, -0.9121094, 1.3635, -0.0649414, 0.0524423, 0.0072175, 1.3635, -0.1025391, 1.3635, -0.9077148, 1.3635, 0.0449219, , , , , , , , , , , , , , , , , , , , , , 
0.0529615, 0.0102388, 1.377, -0.2402344, 1.377, -0.8896484, 1.377, 0.0512695, 0.0529615, -0.0099031, 1.377, 0.2324219, 1.377, -0.8554688, 1.377, -0.1601562, 0.0529615, -0.0112459, 1.377, 0.1416016, 1.377, -0.9057617, 1.377, -0.0737305, 0.0529615, 0.0099031, 1.377, -0.0854492, 1.377, -0.8984375, 1.377, 0.0424805, , , , , , , , , , , , , , , , , , , , , , 
0.0534808, -0.0010071, 1.3905, -0.2236328, 1.3905, -0.8818359, 1.3905, 0.050293, 0.0534808, -0.0099031, 1.3905, 0.2319336, 1.3905, -0.8500977, 1.3905, -0.1601562, 0.0534808, -0.0115816, 1.3905, 0.1469727, 1.3905, -0.8857422, 1.3905, -0.0830078, 0.0534808, 0.0129244, 1.3905, -0.0693359, 1.3905, -0.8891602, 1.3905, 0.0415039, , , , , , , , , , , , , , , , , , , , , , 
0.054, -0.0095674, 1.404, -0.206543, 1.404, -0.878418, 1.404, 0.0478516, 0.054, -0.0095674, 1.404, 0.237793, 1.404, -0.8452148, 1.404, -0.1582031, 0.054, -0.0092317, 1.404, 0.1494141, 1.404, -0.8745117, 1.404, -0.0834961, 0.054, 0.0162814, 1.404, -0.0698242, 1.404, -0.8833008, 1.404, 0.046875, , , , , , , , , , , , , , , , , , , , , , 
0.0545192, -0.0198062, 1.4175, -0.2041016, 1.4175, -0.8769531, 1.4175, 0.0439453, 0.0545192, -0.0102388, 1.4175, 0.2446289, 1.4175, -0.8452148, 1.4175, -0.1464844, 0.0545192, -0.0085603, 1.4175, 0.1416016, 1.4175, -0.8691406, 1.4175, -0.0878906, 0.0545192, 0.0198062, 1.4175, -0.0678711, 1.4175, -0.8759766, 1.4175, 0.0483398, , , , , , , , , , , , , , , , , , , , , , 
0.0550385, -0.0332341, 1.431, -0.1967773, 1.431, -0.878418, 1.431, 0.0332031, 0.0550385, -0.0125887, 1.431, 0.2353516, 1.431, -0.8457031, 1.431, -0.1411133, 0.0550385, -0.0068818, 1.431, 0.1362305, 1.431, -0.8676758, 1.431, -0.0893555, 0.0550385, 0.0219883, 1.431, -0.0634766, 1.431, -0.8676758, 1.431, 0.0395508, , , , , , , , , , , , , , , , , , , , , , 
0.0555577, -0.0424659, 1.4445, -0.1801758, 1.4445, -0.875, 1.4445, 0.0307617, 0.0555577, -0.0142672, 1.4445, 0.2246094, 1.4445, -0.8417969, 1.4445, -0.1416016, 0.0555577, -0.0048676, 1.4445, 0.128418, 1.4445, -0.8574219, 1.4445, -0.090332, 0.0555577, 0.0226596, 1.4445, -0.0463867, 1.4445, -0.8549805, 1.4445, 0.0336914, , , , , , , , , , , , , , , , , , , , , , 
0.0560769, -0.0461585, 1.458, -0.1655273, 1.458, -0.8530273, 1.458, 0.0288086, 0.0560769, -0.0129244, 1.458, 0.2138672, 1.458, -0.8237305, 1.458, -0.1445312, 0.0560769, -0.005539, 1.458, 0.1298828, 1.458, -0.8364258, 1.458, -0.09375, 0.0560769, 0.024506, 1.458, -0.0273438, 1.458, -0.8393555, 1.458, 0.0322266, , , , , , , , , , , , , , , , , , , , , , 
0.0565962, -0.0486763, 1.4715, -0.1694336, 1.4715, -0.828125, 1.4715, 0.0283203, 0.0565962, -0.0112459, 1.4715, 0.199707, 1.4715, -0.7939453, 1.4715, -0.1547852, 0.0565962, -0.0063783, 1.4715, 0.1484375, 1.4715, -0.8120117, 1.4715, -0.1069336, 0.0565962, 0.0263523, 1.4715, -0.0214844, 1.4715, -0.8198242, 1.4715, 0.0361328, , , , , , , , , , , , , , , , , , , , , , 
0.0571154, -0.0451514, 1.485, -0.1855469, 1.485, -0.8120117, 1.485, 0.0229492, 0.0571154, -0.0115816, 1.485, 0.1821289, 1.485, -0.7753906, 1.485, -0.1547852, 0.0571154, -0.0057069, 1.485, 0.1567383, 1.485, -0.7978516, 1.485, -0.109375, 0.0571154, 0.026688, 1.485, -0.0263672, 1.485, -0.8085938, 1.485, 0.0375977, , , , , , , , , , , , , , , , , , , , , , 
0.0576346, -0.03122, 1.4985, -0.1938477, 1.4985, -0.815918, 1.4985, 0.0131836, 0.0576346, -0.0109102, 1.4985, 0.1713867, 1.4985, -0.7773438, 1.4985, -0.1489258, 0.0576346, -0.0023499, 1.4985, 0.1430664, 1.4985, -0.7895508, 1.4985, -0.1176758, 0.0576346, 0.0260166, 1.4985, -0.0297852, 1.4985, -0.8071289, 1.4985, 0.0366211, , , , , , , , , , , , , , , , , , , , , , 
0.0581538, -0.0169528, 1.512, -0.1894531, 1.512, -0.8237305, 1.512, 0.0043945, 0.0581538, -0.0115816, 1.512, 0.1767578, 1.512, -0.7832031, 1.512, -0.144043, 0.0581538, 0.0005035, 1.512, 0.1259766, 1.512, -0.7919922, 1.512, -0.1225586, 0.0581538, 0.0240024, 1.512, -0.0371094, 1.512, -0.8056641, 1.512, 0.0332031, , , , , , , , , , , , , , , , , , , , , , 
0.0586731, -0.0090639, 1.5255, -0.1738281, 1.5255, -0.8212891, 1.5255, 0.0092773, 0.0586731, -0.011078, 1.5255, 0.1855469, 1.5255, -0.7866211, 1.5255, -0.1318359, 0.0586731, 0.0001678, 1.5255, 0.1137695, 1.5255, -0.7954102, 1.5255, -0.1289062, 0.0586731, 0.0213169, 1.5255, -0.0161133, 1.5255, -0.7993164, 1.5255, 0.0209961, , , , , , , , , , , , , , , , , , , , , , 
0.0591923, -0.0043641, 1.539, -0.1655273, 1.539, -0.8017578, 1.539, 0.0107422, 0.0591923, -0.0083925, 1.539, 0.190918, 1.539, -0.7729492, 1.539, -0.1303711, 0.0591923, 0.0011749, 1.539, 0.1083984, 1.539, -0.796875, 1.539, -0.1323242, 0.0591923, 0.0169528, 1.539, 0.0112305, 1.539, -0.7949219, 1.539, 0.0185547, , , , , , , , , , , , , , , , , , , , , , 
0.0597115, 0.0005035, 1.5525, -0.1738281, 1.5525, -0.7973633, 1.5525, 0.0087891, 0.0597115, -0.0072175, 1.5525, 0.190918, 1.5525, -0.7607422, 1.5525, -0.1318359, 0.0597115, 0.0025177, 1.5525, 0.1005859, 1.5525, -0.7993164, 1.5525, -0.1323242, 0.0597115, 0.01561, 1.5525, 0.0195312, 1.5525, -0.7958984, 1.5525, 0.0131836, , , , , , , , , , , , , , , , , , , , , , 
0.0602308, 0.0078889, 1.566, -0.1918945, 1.566, -0.793457, 1.566, 0, 0.0602308, -0.0082246, 1.566, 0.1816406, 1.566, -0.7651367, 1.566, -0.1269531, 0.0602308, 0.0025177, 1.566, 0.1030273, 1.566, -0.7973633, 1.566, -0.1347656, 0.0602308, 0.0159457, 1.566, 0.0063477, 1.566, -0.7890625, 1.566, 0.0078125, , , , , , , , , , , , , , , , , , , , , , 
0.06075, 0.01561, 1.5795, -0.1914062, 1.5795, -0.8129883, 1.5795, -0.0097656, 0.06075, -0.0095674, 1.5795, 0.1738281, 1.5795, -0.7744141, 1.5795, -0.1210938, 0.06075, 0.0011749, 1.5795, 0.1181641, 1.5795, -0.7836914, 1.5795, -0.1455078, 0.06075, 0.0137636, 1.5795, 0.0097656, 1.5795, -0.7958984, 1.5795, 0.0097656, , , , , , , , , , , , , , , , , , , , , , 
0.0612692, 0.0204776, 1.593, -0.1733398, 1.593, -0.8237305, 1.593, -0.0175781, 0.0612692, -0.0104067, 1.593, 0.171875, 1.593, -0.784668, 1.593, -0.1191406, 0.0612692, 0.0005035, 1.593, 0.1323242, 1.593, -0.7832031, 1.593, -0.1572266, 0.0612692, 0.0105745, 1.593, 0.0273438, 1.593, -0.7978516, 1.593, 0.0068359, , , , , , , , , , , , , , , , , , , , , , 
0.0617885, 0.0256809, 1.6065, -0.159668, 1.6065, -0.8154297, 1.6065, -0.0161133, 0.0617885, -0.0099031, 1.6065, 0.1665039, 1.6065, -0.7827148, 1.6065, -0.112793, 0.0617885, -0.0020142, 1.6065, 0.1030273, 1.6065, -0.7978516, 1.6065, -0.1772461, 0.0617885, 0.0099031, 1.6065, 0.0512695, 1.6065, -0.7978516, 1.6065, 0.0097656, , , , , , , , , , , , , , , , , , , , , , 
0.0623077, 0.0256809, 1.62, -0.1699219, 1.62, -0.8125, 1.62, -0.0200195, 0.0623077, -0.0078889, 1.62, 0.1572266, 1.62, -0.7763672, 1.62, -0.1235352, 0.0623077, -0.0058747, 1.62, 0.074707, 1.62, -0.8139648, 1.62, -0.1879883, 0.0623077, 0.0119173, 1.62, 0.0581055, 1.62, -0.8032227, 1.62, 0.0053711, , , , , , , , , , , , , , , , , , , , , , 
0.0628269, 0.0206455, 1.6335, -0.1953125, 1.6335, -0.8320312, 1.6335, -0.0141602, 0.0628269, -0.0068818, 1.6335, 0.1533203, 1.6335, -0.7802734, 1.6335, -0.1293945, 0.0628269, -0.0082246, 1.6335, 0.1147461, 1.6335, -0.8261719, 1.6335, -0.1918945, 0.0628269, 0.0139315, 1.6335, 0.074707, 1.6335, -0.8125, 1.6335, -0.0058594, , , , , , , , , , , , , , , , , , , , , , 
0.0633462, 0.0203098, 1.647, -0.2001953, 1.647, -0.855957, 1.647, -0.0327148, 0.0633462, -0.008896, 1.647, 0.1518555, 1.647, -0.7988281, 1.647, -0.1254883, 0.0633462, -0.0082246, 1.647, 0.1176758, 1.647, -0.8256836, 1.647, -0.2075195, 0.0633462, 0.0109102, 1.647, 0.0849609, 1.647, -0.8164062, 1.647, -0.012207, , , , , , , , , , , , , , , , , , , , , , 
0.0638654, 0.023331, 1.6605, -0.1713867, 1.6605, -0.8730469, 1.6605, -0.0429688, 0.0638654, -0.008896, 1.6605, 0.1640625, 1.6605, -0.8178711, 1.6605, -0.1108398, 0.0638654, -0.0099031, 1.6605, 0.0986328, 1.6605, -0.8422852, 1.6605, -0.2226562, 0.0638654, 0.0078889, 1.6605, 0.1040039, 1.6605, -0.8276367, 1.6605, -0.0224609, , , , , , , , , , , , , , , , , , , , , , 
0.0643846, 0.0287022, 1.674, -0.1572266, 1.674, -0.8779297, 1.674, -0.0415039, 0.0643846, -0.0078889, 1.674, 0.1660156, 1.674, -0.8300781, 1.674, -0.112793, 0.0643846, -0.0109102, 1.674, 0.0883789, 1.674, -0.8354492, 1.674, -0.2485352, 0.0643846, 0.0085603, 1.674, 0.1362305, 1.674, -0.8325195, 1.674, -0.0166016, , , , , , , , , , , , , , , , , , , , , , 
0.0649038, 0.0313878, 1.6875, -0.1435547, 1.6875, -0.8720703, 1.6875, -0.0356445, 0.0649038, -0.0075532, 1.6875, 0.1508789, 1.6875, -0.8359375, 1.6875, -0.1142578, 0.0649038, -0.0102388, 1.6875, 0.0859375, 1.6875, -0.8266602, 1.6875, -0.2539062, 0.0649038, 0.0099031, 1.6875, 0.1557617, 1.6875, -0.8325195, 1.6875, -0.0126953, , , , , , , , , , , , , , , , , , , , , , 
0.0654231, 0.0260166, 1.701, -0.1333008, 1.701, -0.8569336, 1.701, -0.0419922, 0.0654231, -0.0062104, 1.701, 0.1376953, 1.701, -0.8208008, 1.701, -0.1259766, 0.0654231, -0.0099031, 1.701, 0.0942383, 1.701, -0.8154297, 1.701, -0.2509766, 0.0654231, 0.0104067, 1.701, 0.1650391, 1.701, -0.8242188, 1.701, -0.0087891, , , , , , , , , , , , , , , , , , , , , , 
0.0659423, 0.0213169, 1.7145, -0.1293945, 1.7145, -0.8642578, 1.7145, -0.0463867, 0.0659423, -0.0045319, 1.7145, 0.1162109, 1.7145, -0.8129883, 1.7145, -0.1479492, 0.0659423, -0.0099031, 1.7145, 0.1411133, 1.7145, -0.8056641, 1.7145, -0.2460938, 0.0659423, 0.0105745, 1.7145, 0.1396484, 1.7145, -0.8266602, 1.7145, 0, , , , , , , , , , , , , , , , , , , , , , 
0.0664615, 0.0203098, 1.728, -0.1411133, 1.728, -0.890625, 1.728, -0.0405273, 0.0664615, -0.005539, 1.728, 0.1123047, 1.728, -0.8383789, 1.728, -0.1469727, 0.0664615, -0.0092317, 1.728, 0.140625, 1.728, -0.8276367, 1.728, -0.2490234, 0.0664615, 0.0112459, 1.728, 0.1367188, 1.728, -0.8364258, 1.728, 0.0068359, , , , , , , , , , , , , , , , , , , , , , 
0.0669808, 0.0250095, 1.7415, -0.1704102, 1.7415, -0.90625, 1.7415, -0.0488281, 0.0669808, -0.0075532, 1.7415, 0.1337891, 1.7415, -0.8710938, 1.7415, -0.1186523, 0.0669808, -0.008896, 1.7415, 0.1362305, 1.7415, -0.8623047, 1.7415, -0.2514648, 0.0669808, 0.012253, 1.7415, 0.1411133, 1.7415, -0.8579102, 1.7415, 0.0136719, , , , , , , , , , , , , , , , , , , , , , 
0.0675, 0.0330663, 1.755, -0.175293, 1.755, -0.9018555, 1.755, -0.0576172, 0.0675, -0.0070497, 1.755, 0.1376953, 1.755, -0.878418, 1.755, -0.1108398, 0.0675, -0.0102388, 1.755, 0.1123047, 1.755, -0.878418, 1.755, -0.2524414, 0.0675, 0.0105745, 1.755, 0.1337891, 1.755, -0.8740234, 1.755, 0.0112305, , , , , , , , , , , , , , , , , , , , , , 
0.0680192, 0.0436408, 1.7685, -0.1552734, 1.7685, -0.9023438, 1.7685, -0.0595703, 0.0680192, -0.0041962, 1.7685, 0.1337891, 1.7685, -0.871582, 1.7685, -0.112793, 0.0680192, -0.012253, 1.7685, 0.109375, 1.7685, -0.8676758, 1.7685, -0.2700195, 0.0680192, 0.0077211, 1.7685, 0.1660156, 1.7685, -0.8618164, 1.7685, -0.0019531, , , , , , , , , , , , , , , , , , , , , , 
0.0685385, 0.0532082, 1.782, -0.125, 1.782, -0.9140625, 1.782, -0.0551758, 0.0685385, -0.0038605, 1.782, 0.1220703, 1.782, -0.8666992, 1.782, -0.1274414, 0.0685385, -0.012253, 1.782, 0.1064453, 1.782, -0.8569336, 1.782, -0.2836914, 0.0685385, 0.0048676, 1.782, 0.199707, 1.782, -0.8657227, 1.782, 0.003418, , , , , , , , , , , , , , , , , , , , , , 
0.0690577, 0.0592508, 1.7955, -0.1264648, 1.7955, -0.9287109, 1.7955, -0.0473633, 0.0690577, -0.0063783, 1.7955, 0.125, 1.7955, -0.871582, 1.7955, -0.137207, 0.0690577, -0.0117494, 1.7955, 0.1469727, 1.7955, -0.8569336, 1.7955, -0.2954102, 0.0690577, 0.0018463, 1.7955, 0.1972656, 1.7955, -0.8803711, 1.7955, -0.0107422, , , , , , , , , , , , , , , , , , , , , , 
0.0695769, 0.0629435, 1.809, -0.1489258, 1.809, -0.9365234, 1.809, -0.0566406, 0.0695769, -0.0065461, 1.809, 0.1274414, 1.809, -0.8803711, 1.809, -0.1376953, 0.0695769, -0.0135958, 1.809, 0.1254883, 1.809, -0.8808594, 1.809, -0.3017578, 0.0695769, -0.0001678, 1.809, 0.2104492, 1.809, -0.8793945, 1.809, -0.0195312, , , , , , , , , , , , , , , , , , , , , , 
0.0700962, 0.0602579, 1.8225, -0.1640625, 1.8225, -0.9423828, 1.8225, -0.0620117, 0.0700962, -0.005539, 1.8225, 0.1166992, 1.8225, -0.894043, 1.8225, -0.1337891, 0.0700962, -0.0149386, 1.8225, 0.1235352, 1.8225, -0.8823242, 1.8225, -0.300293, 0.0700962, 0.0005035, 1.8225, 0.2250977, 1.8225, -0.8808594, 1.8225, -0.0209961, , , , , , , , , , , , , , , , , , , , , , 
0.0706154, 0.0548867, 1.836, -0.1601562, 1.836, -0.9541016, 1.836, -0.0585938, 0.0706154, -0.0062104, 1.836, 0.1064453, 1.836, -0.9086914, 1.836, -0.1308594, 0.0706154, -0.0166171, 1.836, 0.1230469, 1.836, -0.8955078, 1.836, -0.2880859, 0.0706154, 0.0028534, 1.836, 0.2192383, 1.836, -0.8994141, 1.836, -0.0185547, , , , , , , , , , , , , , , , , , , , , , 
0.0711346, 0.0475013, 1.8495, -0.1538086, 1.8495, -0.9672852, 1.8495, -0.0595703, 0.0711346, -0.0072175, 1.8495, 0.1220703, 1.8495, -0.9238281, 1.8495, -0.1323242, 0.0711346, -0.0162814, 1.8495, 0.1083984, 1.8495, -0.9130859, 1.8495, -0.2910156, 0.0711346, 0.003357, 1.8495, 0.2231445, 1.8495, -0.9199219, 1.8495, -0.0283203, , , , , , , , , , , , , , , , , , , , , , 
0.0716538, 0.0381018, 1.863, -0.1411133, 1.863, -0.9887695, 1.863, -0.0615234, 0.0716538, -0.0068818, 1.863, 0.144043, 1.863, -0.9370117, 1.863, -0.1318359, 0.0716538, -0.0135958, 1.863, 0.121582, 1.863, -0.9140625, 1.863, -0.296875, 0.0716538, 0.0062104, 1.863, 0.2280273, 1.863, -0.9291992, 1.863, -0.0258789, , , , , , , , , , , , , , , , , , , , , , 
0.0721731, 0.026688, 1.8765, -0.1347656, 1.8765, -0.9824219, 1.8765, -0.0556641, 0.0721731, -0.0068818, 1.8765, 0.1455078, 1.8765, -0.9370117, 1.8765, -0.1323242, 0.0721731, -0.0109102, 1.8765, 0.1323242, 1.8765, -0.9189453, 1.8765, -0.2988281, 0.0721731, 0.0112459, 1.8765, 0.2290039, 1.8765, -0.925293, 1.8765, -0.0224609, , , , , , , , , , , , , , , , , , , , , , 
0.0726923, 0.0182956, 1.89, -0.1367188, 1.89, -0.9770508, 1.89, -0.043457, 0.0726923, -0.0075532, 1.89, 0.1430664, 1.89, -0.9287109, 1.89, -0.1367188, 0.0726923, -0.0083925, 1.89, 0.1459961, 1.89, -0.9140625, 1.89, -0.2910156, 0.0726923, 0.0135958, 1.89, 0.2216797, 1.89, -0.9208984, 1.89, -0.0161133, , , , , , , , , , , , , , , , , , , , , , 
0.0732115, 0.0115816, 1.9035, -0.1401367, 1.9035, -0.9677734, 1.9035, -0.0537109, 0.0732115, -0.0082246, 1.9035, 0.1416016, 1.9035, -0.9228516, 1.9035, -0.1401367, 0.0732115, -0.0068818, 1.9035, 0.1650391, 1.9035, -0.9101562, 1.9035, -0.2856445, 0.0732115, 0.0154421, 1.9035, 0.2294922, 1.9035, -0.9169922, 1.9035, -0.0063477, , , , , , , , , , , , , , , , , , , , , , 
0.0737308, -0.0003357, 1.917, -0.1303711, 1.917, -0.9746094, 1.917, -0.0512695, 0.0737308, -0.0077211, 1.917, 0.1357422, 1.917, -0.9228516, 1.917, -0.1459961, 0.0737308, -0.0052033, 1.917, 0.1606445, 1.917, -0.9042969, 1.917, -0.2924805, 0.0737308, 0.0194705, 1.917, 0.2280273, 1.917, -0.9169922, 1.917, 0.0014648, , , , , , , , , , , , , , , , , , , , , , 
0.07425, -0.01561, 1.9305, -0.1069336, 1.9305, -0.9912109, 1.9305, -0.0429688, 0.07425, -0.0082246, 1.9305, 0.1367188, 1.9305, -0.9306641, 1.9305, -0.1547852, 0.07425, -0.002182, 1.9305, 0.1708984, 1.9305, -0.8964844, 1.9305, -0.3027344, 0.07425, 0.024506, 1.9305, 0.2373047, 1.9305, -0.9111328, 1.9305, 0.0053711, , , , , , , , , , , , , , , , , , , , , , 
0.0747692, -0.0280308, 1.944, -0.1186523, 1.944, -0.9931641, 1.944, -0.0146484, 0.0747692, -0.0082246, 1.944, 0.1337891, 1.944, -0.9414062, 1.944, -0.1694336, 0.0747692, 0.0008392, 1.944, 0.1298828, 1.944, -0.9125977, 1.944, -0.3139648, 0.0747692, 0.027863, 1.944, 0.2294922, 1.944, -0.9140625, 1.944, 0.0102539, , , , , , , , , , , , , , , , , , , , , , 
0.0752885, -0.0344091, 1.9575, -0.1450195, 1.9575, -0.9760742, 1.9575, -0.0180664, 0.0752885, -0.0075532, 1.9575, 0.1313477, 1.9575, -0.9467773, 1.9575, -0.1762695, 0.0752885, 0.0008392, 1.9575, 0.1123047, 1.9575, -0.9135742, 1.9575, -0.3066406, 0.0752885, 0.0280308, 1.9575, 0.2216797, 1.9575, -0.921875, 1.9575, 0.0117188, , , , , , , , , , , , , , , , , , , , , , 
0.0758077, -0.0404517, 1.971, -0.1621094, 1.971, -0.9853516, 1.971, -0.019043, 0.0758077, -0.0068818, 1.971, 0.1293945, 1.971, -0.9433594, 1.971, -0.171875, 0.0758077, -0.0001678, 1.971, 0.1416016, 1.971, -0.9150391, 1.971, -0.2963867, 0.0758077, 0.030045, 1.971, 0.215332, 1.971, -0.9428711, 1.971, 0.0151367, , , , , , , , , , , , , , , , , , , , , , 
0.0763269, -0.0461585, 1.9845, -0.1669922, 1.9845, -1.0024414, 1.9845, -0.0209961, 0.0763269, -0.0068818, 1.9845, 0.1342773, 1.9845, -0.940918, 1.9845, -0.1704102, 0.0763269, -0.0011749, 1.9845, 0.2050781, 1.9845, -0.9321289, 1.9845, -0.2988281, 0.0763269, 0.0310521, 1.9845, 0.2290039, 1.9845, -0.9555664, 1.9845, 0.0263672, , , , , , , , , , , , , , , , , , , , , , 
0.0768462, -0.0518654, 1.998, -0.1655273, 1.998, -1.0273438, 1.998, -0.015625, 0.0768462, -0.0078889, 1.998, 0.1411133, 1.998, -0.9453125, 1.998, -0.1674805, 0.0768462, -0.0018463, 1.998, 0.1123047, 1.998, -0.9853516, 1.998, -0.3022461, 0.0768462, 0.030045, 1.998, 0.2163086, 1.998, -0.9604492, 1.998, 0.0205078, , , , , , , , , , , , , , , , , , , , , , 
0.0773654, -0.0515297, 2.0115, -0.1689453, 2.0115, -1.0400391, 2.0115, -0.0078125, 0.0773654, -0.0087282, 2.0115, 0.1542969, 2.0115, -0.9716797, 2.0115, -0.1577148, 0.0773654, -0.0018463, 2.0115, 0.097168, 2.0115, -0.9936523, 2.0115, -0.3330078, 0.0773654, 0.0290379, 2.0115, 0.2456055, 2.0115, -0.9711914, 2.0115, -0.0009766, , , , , , , , , , , , , , , , , , , , , , 
0.0778846, -0.0397803, 2.025, -0.1674805, 2.025, -1.0449219, 2.025, -0.0043945, 0.0778846, -0.005539, 2.025, 0.1767578, 2.025, -0.9926758, 2.025, -0.1669922, 0.0778846, -0.002182, 2.025, 0.1210938, 2.025, -0.9692383, 2.025, -0.3266602, 0.0778846, 0.0260166, 2.025, 0.2568359, 2.025, -0.965332, 2.025, -0.0214844, , , , , , , , , , , , , , , , , , , , , , 
0.0784038, -0.0226596, 2.0385, -0.1630859, 2.0385, -1.0429688, 2.0385, 0.0102539, 0.0784038, -0.0028534, 2.0385, 0.1987305, 2.0385, -1.0039062, 2.0385, -0.1625977, 0.0784038, -0.0028534, 2.0385, 0.128418, 2.0385, -0.9804688, 2.0385, -0.3325195, 0.0784038, 0.021149, 2.0385, 0.2436523, 2.0385, -0.9882812, 2.0385, -0.0014648, , , , , , , , , , , , , , , , , , , , , , 
0.0789231, -0.0097353, 2.052, -0.1826172, 2.052, -1.0522461, 2.052, -0.003418, 0.0789231, -0.0036927, 2.052, 0.1992188, 2.052, -1.0166016, 2.052, -0.1499023, 0.0789231, -0.0035248, 2.052, 0.1401367, 2.052, -1.03125, 2.052, -0.3164062, 0.0789231, 0.0176242, 2.052, 0.2363281, 2.052, -1.0302734, 2.052, 0.0014648, , , , , , , , , , , , , , , , , , , , , , 
0.0794423, -0.0030213, 2.0655, -0.2094727, 2.0655, -1.0795898, 2.0655, -0.0039062, 0.0794423, -0.0036927, 2.0655, 0.1796875, 2.0655, -1.0297852, 2.0655, -0.1499023, 0.0794423, -0.0048676, 2.0655, 0.1728516, 2.0655, -1.0327148, 2.0655, -0.3271484, 0.0794423, 0.0176242, 2.0655, 0.2539062, 2.0655, -1.0375977, 2.0655, 0.0063477, , , , , , , , , , , , , , , , , , , , , , 
0.0799615, 0.0015106, 2.079, -0.2011719, 2.079, -1.1025391, 2.079, 0.0014648, 0.0799615, -0.0045319, 2.079, 0.1669922, 2.079, -1.043457, 2.079, -0.171875, 0.0799615, -0.005539, 2.079, 0.1928711, 2.079, -1.0332031, 2.079, -0.328125, 0.0799615, 0.0193027, 2.079, 0.2729492, 2.079, -1.0458984, 2.079, 0.0092773, , , , , , , , , , , , , , , , , , , , , , 
0.0804808, 0.0078889, 2.0925, -0.1870117, 2.0925, -1.1254883, 2.0925, 0.0141602, 0.0804808, -0.0068818, 2.0925, 0.1762695, 2.0925, -1.0615234, 2.0925, -0.1831055, 0.0804808, -0.0065461, 2.0925, 0.2055664, 2.0925, -1.0507812, 2.0925, -0.3388672, 0.0804808, 0.0166171, 2.0925, 0.2988281, 2.0925, -1.0634766, 2.0925, 0.0083008, , , , , , , , , , , , , , , , , , , , , , 
0.081, 0.0132601, 2.106, -0.1811523, 2.106, -1.1435547, 2.106, 0.0185547, 0.081, -0.0078889, 2.106, 0.2050781, 2.106, -1.0849609, 2.106, -0.1723633, 0.081, -0.0082246, 2.106, 0.1918945, 2.106, -1.065918, 2.106, -0.3481445, 0.081, 0.0142672, 2.106, 0.3115234, 2.106, -1.078125, 2.106, -0.0004883, , , , , , , , , , , , , , , , , , , , , , 
0.0815192, 0.0166171, 2.1195, -0.1884766, 2.1195, -1.15625, 2.1195, 0.0288086, 0.0815192, -0.0078889, 2.1195, 0.2226562, 2.1195, -1.0942383, 2.1195, -0.168457, 0.0815192, -0.0109102, 2.1195, 0.1772461, 2.1195, -1.0825195, 2.1195, -0.347168, 0.0815192, 0.0132601, 2.1195, 0.328125, 2.1195, -1.1005859, 2.1195, -0.0146484, , , , , , , , , , , , , , , , , , , , , , 
0.0820385, 0.0182956, 2.133, -0.1987305, 2.133, -1.1679688, 2.133, 0.027832, 0.0820385, -0.0065461, 2.133, 0.2333984, 2.133, -1.1240234, 2.133, -0.1577148, 0.0820385, -0.0104067, 2.133, 0.1655273, 2.133, -1.1064453, 2.133, -0.3486328, 0.0820385, 0.0119173, 2.133, 0.3300781, 2.133, -1.1083984, 2.133, -0.0112305, , , , , , , , , , , , , , , , , , , , , , 
0.0825577, 0.0186313, 2.1465, -0.1826172, 2.1465, -1.1713867, 2.1465, 0.0239258, 0.0825577, -0.0062104, 2.1465, 0.230957, 2.1465, -1.1435547, 2.1465, -0.1503906, 0.0825577, -0.0087282, 2.1465, 0.1879883, 2.1465, -1.0932617, 2.1465, -0.3422852, 0.0825577, 0.0125887, 2.1465, 0.2900391, 2.1465, -1.1118164, 2.1465, 0.0107422, , , , , , , , , , , , , , , , , , , , , , 
0.0830769, 0.021149, 2.16, -0.1635742, 2.16, -1.1767578, 2.16, 0.0180664, 0.0830769, -0.0068818, 2.16, 0.2236328, 2.16, -1.1391602, 2.16, -0.1484375, 0.0830769, -0.0082246, 2.16, 0.2353516, 2.16, -1.1000977, 2.16, -0.3339844, 0.0830769, 0.0129244, 2.16, 0.2773438, 2.16, -1.1152344, 2.16, 0.0351562, , , , , , , , , , , , , , , , , , , , , , 
0.0835962, 0.0240024, 2.1735, -0.1743164, 2.1735, -1.1967773, 2.1735, 0.0258789, 0.0835962, -0.0082246, 2.1735, 0.2280273, 2.1735, -1.140625, 2.1735, -0.1542969, 0.0835962, -0.010071, 2.1735, 0.2490234, 2.1735, -1.1166992, 2.1735, -0.3334961, 0.0835962, 0.0119173, 2.1735, 0.2719727, 2.1735, -1.1279297, 2.1735, 0.0419922, , , , , , , , , , , , , , , , , , , , , , 
0.0841154, 0.0273594, 2.187, -0.1894531, 2.187, -1.2060547, 2.187, 0.0317383, 0.0841154, -0.0078889, 2.187, 0.2441406, 2.187, -1.1508789, 2.187, -0.1513672, 0.0841154, -0.0102388, 2.187, 0.2246094, 2.187, -1.1220703, 2.187, -0.3427734, 0.0841154, 0.0119173, 2.187, 0.2856445, 2.187, -1.1298828, 2.187, 0.0263672, , , , , , , , , , , , , , , , , , , , , , 
0.0846346, 0.026688, 2.2005, -0.2070312, 2.2005, -1.2163086, 2.2005, 0.0571289, 0.0846346, -0.0068818, 2.2005, 0.2573242, 2.2005, -1.1640625, 2.2005, -0.1523438, 0.0846346, -0.0099031, 2.2005, 0.1889648, 2.2005, -1.125, 2.2005, -0.3461914, 0.0846346, 0.0117494, 2.2005, 0.300293, 2.2005, -1.125, 2.2005, 0.0258789, , , , , , , , , , , , , , , , , , , , , , 
0.0851538, 0.0292058, 2.214, -0.2089844, 2.214, -1.1879883, 2.214, 0.0473633, 0.0851538, -0.0062104, 2.214, 0.2680664, 2.214, -1.1669922, 2.214, -0.1459961, 0.0851538, -0.0092317, 2.214, 0.1816406, 2.214, -1.1357422, 2.214, -0.34375, 0.0851538, 0.0099031, 2.214, 0.3154297, 2.214, -1.1425781, 2.214, 0.0268555, , , , , , , , , , , , , , , , , , , , , , 
0.0856731, 0.0320592, 2.2275, -0.2412109, 2.2275, -1.1845703, 2.2275, 0.0439453, 0.0856731, -0.0052033, 2.2275, 0.2617188, 2.2275, -1.1689453, 2.2275, -0.1376953, 0.0856731, -0.0082246, 2.2275, 0.2119141, 2.2275, -1.1552734, 2.2275, -0.3427734, 0.0856731, 0.0070497, 2.2275, 0.3144531, 2.2275, -1.1733398, 2.2275, 0.0297852, , , , , , , , , , , , , , , , , , , , , , 
0.0861923, 0.0320592, 2.241, -0.2617188, 2.241, -1.2294922, 2.241, 0.0717773, 0.0861923, -0.005539, 2.241, 0.2612305, 2.241, -1.1738281, 2.241, -0.1445312, 0.0861923, -0.0075532, 2.241, 0.2504883, 2.241, -1.1640625, 2.241, -0.3320312, 0.0861923, 0.0072175, 2.241, 0.2758789, 2.241, -1.1953125, 2.241, 0.0341797, , , , , , , , , , , , , , , , , , , , , , 
0.0867115, 0.0298772, 2.2545, -0.230957, 2.2545, -1.2529297, 2.2545, 0.0957031, 0.0867115, -0.0070497, 2.2545, 0.2758789, 2.2545, -1.1923828, 2.2545, -0.1586914, 0.0867115, -0.0082246, 2.2545, 0.2612305, 2.2545, -1.1821289, 2.2545, -0.3251953, 0.0867115, 0.008896, 2.2545, 0.2631836, 2.2545, -1.1958008, 2.2545, 0.0351562, , , , , , , , , , , , , , , , , , , , , , 
0.0872308, 0.0327306, 2.268, -0.1928711, 2.268, -1.2583008, 2.268, 0.0986328, 0.0872308, -0.0082246, 2.268, 0.3125, 2.268, -1.1987305, 2.268, -0.1557617, 0.0872308, -0.0082246, 2.268, 0.2597656, 2.268, -1.1977539, 2.268, -0.3334961, 0.0872308, 0.008896, 2.268, 0.2856445, 2.268, -1.1879883, 2.268, 0.0444336, , , , , , , , , , , , , , , , , , , , , , 
0.08775, 0.0451514, 2.2815, -0.2045898, 2.2815, -1.2543945, 2.2815, 0.1254883, 0.08775, -0.0082246, 2.2815, 0.3476562, 2.2815, -1.2080078, 2.2815, -0.1572266, 0.08775, -0.0085603, 2.2815, 0.2602539, 2.2815, -1.1826172, 2.2815, -0.3369141, 0.08775, 0.0065461, 2.2815, 0.3095703, 2.2815, -1.1879883, 2.2815, 0.0405273, , , , , , , , , , , , , , , , , , , , , , 
0.0882692, 0.0610971, 2.295, -0.2675781, 2.295, -1.2397461, 2.295, 0.112793, 0.0882692, -0.0075532, 2.295, 0.3662109, 2.295, -1.2148438, 2.295, -0.1303711, 0.0882692, -0.0082246, 2.295, 0.2651367, 2.295, -1.1958008, 2.295, -0.3422852, 0.0882692, 0.0031891, 2.295, 0.3227539, 2.295, -1.2099609, 2.295, 0.043457, , , , , , , , , , , , , , , , , , , , , , 
0.0887885, 0.0716716, 2.3085, -0.3032227, 2.3085, -1.2324219, 2.3085, 0.1152344, 0.0887885, -0.0083925, 2.3085, 0.3681641, 2.3085, -1.2124023, 2.3085, -0.1069336, 0.0887885, -0.0073854, 2.3085, 0.2475586, 2.3085, -1.2070312, 2.3085, -0.3354492, 0.0887885, -0.0008392, 2.3085, 0.2988281, 2.3085, -1.2177734, 2.3085, 0.0620117, , , , , , , , , , , , , , , , , , , , , , 
0.0893077, 0.0726787, 2.322, -0.2695312, 2.322, -1.2441406, 2.322, 0.1435547, 0.0893077, -0.0095674, 2.322, 0.3706055, 2.322, -1.2036133, 2.322, -0.1137695, 0.0893077, -0.0105745, 2.322, 0.2783203, 2.322, -1.1977539, 2.322, -0.3242188, 0.0893077, -0.0031891, 2.322, 0.2612305, 2.322, -1.2114258, 2.322, 0.0693359, , , , , , , , , , , , , , , , , , , , , , 
0.0898269, 0.0693217, 2.3355, -0.2094727, 2.3355, -1.2514648, 2.3355, 0.1381836, 0.0898269, -0.0092317, 2.3355, 0.3813477, 2.3355, -1.2011719, 2.3355, -0.1313477, 0.0898269, -0.0135958, 2.3355, 0.300293, 2.3355, -1.1992188, 2.3355, -0.3085938, 0.0898269, -0.0028534, 2.3355, 0.2675781, 2.3355, -1.2011719, 2.3355, 0.0595703, , , , , , , , , , , , , , , , , , , , , , 
0.0903462, 0.0669718, 2.349, -0.215332, 2.349, -1.2553711, 2.349, 0.1362305, 0.0903462, -0.008896, 2.349, 0.4042969, 2.349, -1.2089844, 2.349, -0.1269531, 0.0903462, -0.0127565, 2.349, 0.2949219, 2.349, -1.1982422, 2.349, -0.315918, 0.0903462, -0.0005035, 2.349, 0.296875, 2.349, -1.2011719, 2.349, 0.0605469, , , , , , , , , , , , , , , , , , , , , , 
0.0908654, 0.0602579, 2.3625, -0.2973633, 2.3625, -1.2436523, 2.3625, 0.1362305, 0.0908654, -0.0085603, 2.3625, 0.4106445, 2.3625, -1.2045898, 2.3625, -0.125, 0.0908654, -0.012253, 2.3625, 0.2739258, 2.3625, -1.2006836, 2.3625, -0.3266602, 0.0908654, 0.0028534, 2.3625, 0.3007812, 2.3625, -1.2041016, 2.3625, 0.0595703, , , , , , , , , , , , , , , , , , , , , , 
0.0913846, 0.0468299, 2.376, -0.3496094, 2.376, -1.2109375, 2.376, 0.1479492, 0.0913846, -0.0082246, 2.376, 0.3989258, 2.376, -1.1870117, 2.376, -0.0986328, 0.0913846, -0.0125887, 2.376, 0.269043, 2.376, -1.2016602, 2.376, -0.3120117, 0.0913846, 0.0048676, 2.376, 0.2807617, 2.376, -1.1943359, 2.376, 0.0722656, , , , , , , , , , , , , , , , , , , , , , 
0.0919038, 0.033402, 2.3895, -0.3671875, 2.3895, -1.1806641, 2.3895, 0.1479492, 0.0919038, -0.0085603, 2.3895, 0.390625, 2.3895, -1.1777344, 2.3895, -0.074707, 0.0919038, -0.0109102, 2.3895, 0.3110352, 2.3895, -1.2021484, 2.3895, -0.2866211, 0.0919038, 0.0052033, 2.3895, 0.2392578, 2.3895, -1.1982422, 2.3895, 0.0878906, , , , , , , , , , , , , , , , , , , , , , 
0.0924231, 0.026688, 2.403, -0.3925781, 2.403, -1.1586914, 2.403, 0.15625, 0.0924231, -0.0092317, 2.403, 0.4169922, 2.403, -1.1479492, 2.403, -0.0791016, 0.0924231, -0.0085603, 2.403, 0.3173828, 2.403, -1.2094727, 2.403, -0.2646484, 0.0924231, 0.0085603, 2.403, 0.2202148, 2.403, -1.206543, 2.403, 0.0942383, , , , , , , , , , , , , , , , , , , , , , 
0.0929423, 0.0206455, 2.4165, -0.3876953, 2.4165, -1.1464844, 2.4165, 0.1621094, 0.0929423, -0.0082246, 2.4165, 0.4438477, 2.4165, -1.1328125, 2.4165, -0.065918, 0.0929423, -0.0099031, 2.4165, 0.3339844, 2.4165, -1.1855469, 2.4165, -0.2294922, 0.0929423, 0.0124208, 2.4165, 0.2001953, 2.4165, -1.2050781, 2.4165, 0.1020508, , , , , , , , , , , , , , , , , , , , , , 
0.0934615, 0.0115816, 2.43, -0.3466797, 2.43, -1.1450195, 2.43, 0.1606445, 0.0934615, -0.0072175, 2.43, 0.434082, 2.43, -1.125, 2.43, -0.0634766, 0.0934615, -0.0104067, 2.43, 0.3354492, 2.43, -1.168457, 2.43, -0.2128906, 0.0934615, 0.01561, 2.43, 0.1665039, 2.43, -1.1816406, 2.43, 0.1035156, , , , , , , , , , , , , , , , , , , , , , 
0.0939808, -0.0005035, 2.4435, -0.3364258, 2.4435, -1.1293945, 2.4435, 0.1791992, 0.0939808, -0.0068818, 2.4435, 0.4389648, 2.4435, -1.1137695, 2.4435, -0.0527344, 0.0939808, -0.0085603, 2.4435, 0.3242188, 2.4435, -1.1455078, 2.4435, -0.2329102, 0.0939808, 0.0199741, 2.4435, 0.140625, 2.4435, -1.159668, 2.4435, 0.0966797, , , , , , , , , , , , , , , , , , , , , , 
0.0945, -0.0146029, 2.457, -0.3881836, 2.457, -1.1079102, 2.457, 0.1835938, 0.0945, -0.0062104, 2.457, 0.4697266, 2.457, -1.0859375, 2.457, -0.0410156, 0.0945, -0.0082246, 2.457, 0.2636719, 2.457, -1.1435547, 2.457, -0.2387695, 0.0945, 0.0240024, 2.457, 0.1455078, 2.457, -1.144043, 2.457, 0.0942383, , , , , , , , , , , , , , , , , , , , , , 
0.0950192, -0.027863, 2.4705, -0.4238281, 2.4705, -1.0810547, 2.4705, 0.1738281, 0.0950192, -0.0041962, 2.4705, 0.487793, 2.4705, -1.0561523, 2.4705, -0.0429688, 0.0950192, -0.0083925, 2.4705, 0.2446289, 2.4705, -1.1401367, 2.4705, -0.2324219, 0.0950192, 0.0256809, 2.4705, 0.1640625, 2.4705, -1.1342773, 2.4705, 0.0883789, , , , , , , , , , , , , , , , , , , , , , 
0.0955385, -0.0350805, 2.484, -0.4199219, 2.484, -1.0830078, 2.484, 0.1704102, 0.0955385, -0.0025177, 2.484, 0.4780273, 2.484, -1.0429688, 2.484, -0.0488281, 0.0955385, -0.0090639, 2.484, 0.2475586, 2.484, -1.1420898, 2.484, -0.2236328, 0.0955385, 0.0276951, 2.484, 0.1572266, 2.484, -1.1435547, 2.484, 0.0751953, , , , , , , , , , , , , , , , , , , , , , 
0.0960577, -0.0431373, 2.4975, -0.402832, 2.4975, -1.0981445, 2.4975, 0.1865234, 0.0960577, -0.0036927, 2.4975, 0.4648438, 2.4975, -1.046875, 2.4975, -0.0463867, 0.0960577, -0.008896, 2.4975, 0.2666016, 2.4975, -1.1499023, 2.4975, -0.1958008, 0.0960577, 0.0280308, 2.4975, 0.1396484, 2.4975, -1.1552734, 2.4975, 0.0649414, , , , , , , , , , , , , , , , , , , , , , 
0.0965769, -0.0488441, 2.511, -0.3930664, 2.511, -1.0917969, 2.511, 0.1938477, 0.0965769, -0.0050355, 2.511, 0.4228516, 2.511, -1.0551758, 2.511, -0.065918, 0.0965769, -0.0072175, 2.511, 0.2827148, 2.511, -1.1635742, 2.511, -0.1777344, 0.0965769, 0.0276951, 2.511, 0.1435547, 2.511, -1.1621094, 2.511, 0.0581055, , , , , , , , , , , , , , , , , , , , , , 
0.0970962, -0.0475013, 2.5245, -0.3901367, 2.5245, -1.0864258, 2.5245, 0.1889648, 0.0970962, -0.0058747, 2.5245, 0.4140625, 2.5245, -1.0649414, 2.5245, -0.0805664, 0.0970962, -0.0075532, 2.5245, 0.2954102, 2.5245, -1.1450195, 2.5245, -0.175293, 0.0970962, 0.0273594, 2.5245, 0.1489258, 2.5245, -1.1450195, 2.5245, 0.0615234, , , , , , , , , , , , , , , , , , , , , , 
0.0976154, -0.0362554, 2.538, -0.3828125, 2.538, -1.0917969, 2.538, 0.2001953, 0.0976154, -0.0068818, 2.538, 0.4418945, 2.538, -1.0766602, 2.538, -0.0732422, 0.0976154, -0.0063783, 2.538, 0.3256836, 2.538, -1.1264648, 2.538, -0.2001953, 0.0976154, 0.026688, 2.538, 0.1489258, 2.538, -1.1386719, 2.538, 0.0854492, , , , , , , , , , , , , , , , , , , , , , 
0.0981346, -0.0206455, 2.5515, -0.3657227, 2.5515, -1.0888672, 2.5515, 0.2314453, 0.0981346, -0.0082246, 2.5515, 0.4697266, 2.5515, -1.0708008, 2.5515, -0.0439453, 0.0981346, -0.0045319, 2.5515, 0.3540039, 2.5515, -1.1235352, 2.5515, -0.2182617, 0.0981346, 0.024506, 2.5515, 0.1567383, 2.5515, -1.1484375, 2.5515, 0.1098633, , , , , , , , , , , , , , , , , , , , , , 
0.0986538, -0.008896, 2.565, -0.328125, 2.565, -1.1015625, 2.565, 0.2192383, 0.0986538, -0.0095674, 2.565, 0.503418, 2.565, -1.0864258, 2.565, -0.0170898, 0.0986538, -0.0048676, 2.565, 0.3500977, 2.565, -1.1386719, 2.565, -0.2241211, 0.0986538, 0.0213169, 2.565, 0.1640625, 2.565, -1.1621094, 2.565, 0.121582, , , , , , , , , , , , , , , , , , , , , , 
0.0991731, -0.0018463, 2.5785, -0.3461914, 2.5785, -1.121582, 2.5785, 0.1513672, 0.0991731, -0.0095674, 2.5785, 0.5166016, 2.5785, -1.1914062, 2.5785, 0.0166016, 0.0991731, -0.0082246, 2.5785, 0.3652344, 2.5785, -1.1625977, 2.5785, -0.2182617, 0.0991731, 0.0172885, 2.5785, 0.1787109, 2.5785, -1.1928711, 2.5785, 0.1323242, , , , , , , , , , , , , , , , , , , , , , 
0.0996923, 0.0011749, 2.592, -0.4233398, 2.592, -1.1713867, 2.592, 0.1088867, 0.0996923, -0.011078, 2.592, 0.4121094, 2.592, -1.2709961, 2.592, -0.0126953, 0.0996923, -0.0105745, 2.592, 0.3813477, 2.592, -1.2094727, 2.592, -0.2246094, 0.0996923, 0.0146029, 2.592, 0.1899414, 2.592, -1.2416992, 2.592, 0.125, , , , , , , , , , , , , , , , , , , , , , 
0.1002115, 0.0035248, 2.6055, -0.503418, 2.6055, -1.246582, 2.6055, 0.0512695, 0.1002115, -0.0119173, 2.6055, 0.246582, 2.6055, -1.3120117, 2.6055, -0.0664062, 0.1002115, -0.0112459, 2.6055, 0.3847656, 2.6055, -1.2197266, 2.6055, -0.2431641, 0.1002115, 0.0109102, 2.6055, 0.1962891, 2.6055, -1.2783203, 2.6055, 0.1337891, , , , , , , , , , , , , , , , , , , , , , 
0.1007308, 0.0075532, 2.619, -0.5898438, 2.619, -1.3149414, 2.619, 0.1342773, 0.1007308, -0.0115816, 2.619, 0.1958008, 2.619, -1.3408203, 2.619, -0.0571289, 0.1007308, -0.0125887, 2.619, 0.3383789, 2.619, -1.2407227, 2.619, -0.2983398, 0.1007308, 0.0077211, 2.619, 0.2026367, 2.619, -1.2973633, 2.619, 0.1494141, , , , , , , , , , , , , , , , , , , , , , 
0.10125, 0.01561, 2.6325, -0.6274414, 2.6325, -1.284668, 2.6325, 0.1455078, 0.10125, -0.0105745, 2.6325, 0.2661133, 2.6325, -1.359375, 2.6325, -0.0219727, 0.10125, -0.0139315, 2.6325, 0.2758789, 2.6325, -1.2602539, 2.6325, -0.3256836, 0.10125, 0.0036927, 2.6325, 0.2280273, 2.6325, -1.3217773, 2.6325, 0.1518555, , , , , , , , , , , , , , , , , , , , , , 
0.1017692, 0.0213169, 2.646, -0.215332, 2.646, -1.078125, 2.646, -0.0634766, 0.1017692, -0.0102388, 2.646, 0.5371094, 2.646, -1.2954102, 2.646, 0.1176758, 0.1017692, -0.0125887, 2.646, 0.2719727, 2.646, -1.2866211, 2.646, -0.1904297, 0.1017692, 0.0011749, 2.646, 0.1674805, 2.646, -1.3500977, 2.646, 0.0727539, , , , , , , , , , , , , , , , , , , , , , 
0.1022885, 0.0240024, 2.6595, 0.2011719, 2.6595, -1.2275391, 2.6595, 0.1811523, 0.1022885, -0.008896, 2.6595, 0.7958984, 2.6595, -1.059082, 2.6595, -0.2080078, 0.1022885, -0.0115816, 2.6595, 0.3271484, 2.6595, -1.293457, 2.6595, -0.0004883, 0.1022885, 0.0005035, 2.6595, -0.0249023, 2.6595, -1.3056641, 2.6595, -0.0195312, , , , , , , , , , , , , , , , , , , , , , 
0.1028077, 0.0193027, 2.673, 0.2612305, 2.673, -1.4536133, 2.673, 0.2695312, 0.1028077, -0.008896, 2.673, 0.3012695, 2.673, -0.8535156, 2.673, -0.7250977, 0.1028077, -0.0129244, 2.673, 0.3632812, 2.673, -1.2817383, 2.673, 0.0532227, 0.1028077, 0.0025177, 2.673, -0.1831055, 2.673, -1.2089844, 2.673, -0.0112305, , , , , , , , , , , , , , , , , , , , , , 
0.1033269, 0.0182956, 2.6865, 0.0595703, 2.6865, -1.4233398, 2.6865, 0.015625, 0.1033269, -0.0099031, 2.6865, -0.2016602, 2.6865, -1.2041016, 2.6865, -0.1367188, 0.1033269, -0.0142672, 2.6865, 0.2426758, 2.6865, -1.1894531, 2.6865, -0.277832, 0.1033269, 0.0038605, 2.6865, 0.0048828, 2.6865, -1.2182617, 2.6865, 0.0947266, , , , , , , , , , , , , , , , , , , , , , 
0.1038462, 0.0216526, 2.7, -0.4267578, 2.7, -1.3720703, 2.7, -0.1401367, 0.1038462, -0.0095674, 2.7, 0.0385742, 2.7, -1.7348633, 2.7, 0.1459961, 0.1038462, -0.0135958, 2.7, 0.3046875, 2.7, -1.0913086, 2.7, -0.6210938, 0.1038462, 0.0045319, 2.7, 0.4873047, 2.7, -1.3505859, 2.7, 0.1899414, , , , , , , , , , , , , , , , , , , , , , 
0.1043654, 0.024506, 2.7135, -0.421875, 2.7135, -1.4375, 2.7135, 0.0424805, 0.1043654, -0.0085603, 2.7135, 0.4829102, 2.7135, -1.6767578, 2.7135, -0.1660156, 0.1043654, -0.0125887, 2.7135, 0.5361328, 2.7135, -1.1533203, 2.7135, -0.6176758, 0.1043654, 0.0050355, 2.7135, 0.6992188, 2.7135, -1.3828125, 2.7135, 0.1689453, , , , , , , , , , , , , , , , , , , , , , 
0.1048846, 0.024506, 2.727, -0.1049805, 2.727, -1.5566406, 2.727, -0.0166016, 0.1048846, -0.0075532, 2.727, 0.4985352, 2.727, -1.4204102, 2.727, -0.2612305, 0.1048846, -0.0112459, 2.727, 0.425293, 2.727, -1.2861328, 2.727, -0.4633789, 0.1048846, 0.0048676, 2.727, 0.7705078, 2.727, -1.3481445, 2.727, 0.0292969, , , , , , , , , , , , , , , , , , , , , , 
0.1054038, 0.0199741, 2.7405, 0.0224609, 2.7405, -1.6147461, 2.7405, 0.3120117, 0.1054038, -0.0080568, 2.7405, 0.4350586, 2.7405, -1.2895508, 2.7405, -0.2109375, 0.1054038, -0.0109102, 2.7405, 0.2822266, 2.7405, -1.3032227, 2.7405, -0.4106445, 0.1054038, 0.0031891, 2.7405, 0.5175781, 2.7405, -1.3208008, 2.7405, -0.03125, , , , , , , , , , , , , , , , , , , , , , 
0.1059231, 0.0206455, 2.754, -0.0957031, 2.754, -1.4194336, 2.754, 0.1513672, 0.1059231, -0.0082246, 2.754, 0.6616211, 2.754, -1.2788086, 2.754, -0.0791016, 0.1059231, -0.0092317, 2.754, 0.125, 2.754, -1.2905273, 2.754, -0.3510742, 0.1059231, 0.0038605, 2.754, 0.3046875, 2.754, -1.3120117, 2.754, -0.0024414, , , , , , , , , , , , , , , , , , , , , , 
0.1064423, 0.0236667, 2.7675, -0.2709961, 2.7675, -1.2412109, 2.7675, 0.0454102, 0.1064423, -0.0063783, 2.7675, 0.6699219, 2.7675, -1.3369141, 2.7675, -0.2055664, 0.1064423, -0.0072175, 2.7675, 0.2695312, 2.7675, -1.2875977, 2.7675, -0.2700195, 0.1064423, 0.0082246, 2.7675, 0.1982422, 2.7675, -1.328125, 2.7675, 0.0249023, , , , , , , , , , , , , , , , , , , , , , 
0.1069615, 0.0240024, 2.781, -0.4609375, 2.781, -1.2910156, 2.781, 0.0561523, 0.1069615, -0.0058747, 2.781, 0.2773438, 2.781, -1.2802734, 2.781, -0.0708008, 0.1069615, -0.008896, 2.781, 0.5117188, 2.781, -1.277832, 2.781, -0.2402344, 0.1069615, 0.0105745, 2.781, 0.175293, 2.781, -1.3544922, 2.781, 0.0834961, , , , , , , , , , , , , , , , , , , , , , 
0.1074808, 0.0275273, 2.7945, -0.5986328, 2.7945, -1.3227539, 2.7945, 0.0039062, 0.1074808, -0.0065461, 2.7945, 0.0966797, 2.7945, -1.2797852, 2.7945, 0.0126953, 0.1074808, -0.012253, 2.7945, 0.4418945, 2.7945, -1.2651367, 2.7945, -0.2890625, 0.1074808, 0.008896, 2.7945, 0.1704102, 2.7945, -1.3574219, 2.7945, 0.1220703, , , , , , , , , , , , , , , , , , , , , , 
0.108, 0.0394446, 2.808, -0.6162109, 2.808, -1.309082, 2.808, 0.0585938, 0.108, -0.0060426, 2.808, 0.2705078, 2.808, -1.3330078, 2.808, 0.0419922, 0.108, -0.0142672, 2.808, 0.2138672, 2.808, -1.2587891, 2.808, -0.347168, 0.108, 0.0045319, 2.808, 0.1308594, 2.808, -1.3476562, 2.808, 0.1455078, , , , , , , , , , , , , , , , , , , , , , 
0.1085192, 0.0515297, 2.8215, -0.5683594, 2.8215, -1.2651367, 2.8215, 0.1186523, 0.1085192, -0.0058747, 2.8215, 0.6015625, 2.8215, -1.3237305, 2.8215, 0.065918, 0.1085192, -0.012253, 2.8215, 0.1181641, 2.8215, -1.269043, 2.8215, -0.3222656, 0.1085192, 0.0011749, 2.8215, 0.0683594, 2.8215, -1.3320312, 2.8215, 0.1479492, , , , , , , , , , , , , , , , , , , , , , 
0.1090385, 0.0558938, 2.835, -0.5092773, 2.835, -1.2314453, 2.835, 0.0874023, 0.1090385, -0.0068818, 2.835, 0.6982422, 2.835, -1.2480469, 2.835, 0.0795898, 0.1090385, -0.0087282, 2.835, 0.1425781, 2.835, -1.2822266, 2.835, -0.296875, 0.1090385, 0.0015106, 2.835, 0.0498047, 2.835, -1.3208008, 2.835, 0.1210938, , , , , , , , , , , , , , , , , , , , , , 
0.1095577, 0.0552224, 2.8485, -0.4848633, 2.8485, -1.2226562, 2.8485, 0.1015625, 0.1095577, -0.005539, 2.8485, 0.671875, 2.8485, -1.2001953, 2.8485, 0.0888672, 0.1095577, -0.0075532, 2.8485, 0.1831055, 2.8485, -1.2666016, 2.8485, -0.2675781, 0.1095577, 0.0030213, 2.8485, 0.1196289, 2.8485, -1.2880859, 2.8485, 0.0688477, , , , , , , , , , , , , , , , , , , , , , 
0.1100769, 0.0569009, 2.862, -0.4711914, 2.862, -1.2001953, 2.862, 0.0917969, 0.1100769, -0.0038605, 2.862, 0.6352539, 2.862, -1.1679688, 2.862, 0.059082, 0.1100769, -0.0082246, 2.862, 0.2260742, 2.862, -1.2216797, 2.862, -0.253418, 0.1100769, 0.0031891, 2.862, 0.1655273, 2.862, -1.2597656, 2.862, 0.0454102, , , , , , , , , , , , , , , , , , , , , , 
0.1105962, 0.0535439, 2.8755, -0.4863281, 2.8755, -1.1645508, 2.8755, 0.0820312, 0.1105962, -0.0025177, 2.8755, 0.5024414, 2.8755, -1.1044922, 2.8755, 0.0532227, 0.1105962, -0.0099031, 2.8755, 0.2392578, 2.8755, -1.1972656, 2.8755, -0.253418, 0.1105962, 0.0028534, 2.8755, 0.2241211, 2.8755, -1.2050781, 2.8755, 0.0087891, , , , , , , , , , , , , , , , , , , , , , 
0.1111154, 0.0448157, 2.889, -0.550293, 2.889, -1.159668, 2.889, 0.074707, 0.1111154, -0.0035248, 2.889, 0.4570312, 2.889, -1.0869141, 2.889, 0.1088867, 0.1111154, -0.0085603, 2.889, 0.2456055, 2.889, -1.1572266, 2.889, -0.2875977, 0.1111154, 0.0025177, 2.889, 0.2421875, 2.889, -1.1479492, 2.889, 0.015625, , , , , , , , , , , , , , , , , , , , , , 
0.1116346, 0.0323949, 2.9025, -0.6035156, 2.9025, -1.1323242, 2.9025, 0.0874023, 0.1116346, -0.0052033, 2.9025, 0.5288086, 2.9025, -1.0922852, 2.9025, 0.1040039, 0.1116346, -0.0078889, 2.9025, 0.2314453, 2.9025, -1.1264648, 2.9025, -0.3276367, 0.1116346, 0.0058747, 2.9025, 0.2612305, 2.9025, -1.1245117, 2.9025, 0.0493164, , , , , , , , , , , , , , , , , , , , , , 
0.1121538, 0.0219883, 2.916, -0.6323242, 2.916, -1.0952148, 2.916, 0.1074219, 0.1121538, -0.005539, 2.916, 0.5771484, 2.916, -1.0874023, 2.916, 0.0913086, 0.1121538, -0.0083925, 2.916, 0.2158203, 2.916, -1.1040039, 2.916, -0.3535156, 0.1121538, 0.0099031, 2.916, 0.2631836, 2.916, -1.1269531, 2.916, 0.0878906, , , , , , , , , , , , , , , , , , , , , , 
0.1126731, 0.0164492, 2.9295, -0.6000977, 2.9295, -1.0756836, 2.9295, 0.0947266, 0.1126731, -0.005539, 2.9295, 0.5483398, 2.9295, -1.0673828, 2.9295, 0.0820312, 0.1126731, -0.0075532, 2.9295, 0.2299805, 2.9295, -1.090332, 2.9295, -0.3725586, 0.1126731, 0.0119173, 2.9295, 0.2495117, 2.9295, -1.1352539, 2.9295, 0.0991211, , , , , , , , , , , , , , , , , , , , , , 
0.1131923, 0.0112459, 2.943, -0.5419922, 2.943, -1.0932617, 2.943, 0.0922852, 0.1131923, -0.0058747, 2.943, 0.4907227, 2.943, -1.0595703, 2.943, 0.0727539, 0.1131923, -0.0052033, 2.943, 0.246582, 2.943, -1.0786133, 2.943, -0.3774414, 0.1131923, 0.0135958, 2.943, 0.2504883, 2.943, -1.1342773, 2.943, 0.0966797, , , , , , , , , , , , , , , , , , , , , , 
0.1137115, 0.0025177, 2.9565, -0.5307617, 2.9565, -1.1040039, 2.9565, 0.1035156, 0.1137115, -0.0075532, 2.9565, 0.5029297, 2.9565, -1.0673828, 2.9565, 0.1162109, 0.1137115, -0.0057069, 2.9565, 0.2675781, 2.9565, -1.0859375, 2.9565, -0.3759766, 0.1137115, 0.0172885, 2.9565, 0.2758789, 2.9565, -1.121582, 2.9565, 0.0839844, , , , , , , , , , , , , , , , , , , , , , 
0.1142308, -0.0142672, 2.97, -0.5678711, 2.97, -1.0644531, 2.97, 0.0893555, 0.1142308, -0.0082246, 2.97, 0.5668945, 2.97, -1.0649414, 2.97, 0.1191406, 0.1142308, -0.005539, 2.97, 0.2797852, 2.97, -1.0834961, 2.97, -0.3793945, 0.1142308, 0.0213169, 2.97, 0.3212891, 2.97, -1.0966797, 2.97, 0.0805664, , , , , , , , , , , , , , , , , , , , , , 
0.11475, -0.0310521, 2.9835, -0.5878906, 2.9835, -1.0126953, 2.9835, 0.0761719, 0.11475, -0.0075532, 2.9835, 0.5800781, 2.9835, -1.0449219, 2.9835, 0.1030273, 0.11475, -0.0035248, 2.9835, 0.2744141, 2.9835, -1.0610352, 2.9835, -0.3920898, 0.11475, 0.0231632, 2.9835, 0.3295898, 2.9835, -1.0908203, 2.9835, 0.0957031, , , , , , , , , , , , , , , , , , , , , , 
0.1152692, -0.0364233, 2.997, -0.5849609, 2.997, -1.0019531, 2.997, 0.0737305, 0.1152692, -0.0078889, 2.997, 0.5517578, 2.997, -1.0039062, 2.997, 0.1113281, 0.1152692, -0.0048676, 2.997, 0.2514648, 2.997, -1.0327148, 2.997, -0.4321289, 0.1152692, 0.0240024, 2.997, 0.3085938, 2.997, -1.0664062, 2.997, 0.105957, , , , , , , , , , , , , , , , , , , , , , 
0.1157885, -0.0372625, 3.0105, -0.578125, 3.0105, -0.9931641, 3.0105, 0.0634766, 0.1157885, -0.0072175, 3.0105, 0.5068359, 3.0105, -0.9790039, 3.0105, 0.1308594, 0.1157885, -0.0065461, 3.0105, 0.2314453, 3.0105, -1.0224609, 3.0105, -0.4541016, 0.1157885, 0.0240024, 3.0105, 0.2998047, 3.0105, -1.0463867, 3.0105, 0.1040039, , , , , , , , , , , , , , , , , , , , , , 
0.1163077, -0.04448, 3.024, -0.5908203, 3.024, -0.9868164, 3.024, 0.0600586, 0.1163077, -0.0078889, 3.024, 0.4658203, 3.024, -0.965332, 3.024, 0.1357422, 0.1163077, -0.0065461, 3.024, 0.2026367, 3.024, -1.0092773, 3.024, -0.4833984, 0.1163077, 0.0250095, 3.024, 0.3022461, 3.024, -1.0258789, 3.024, 0.1132812, , , , , , , , , , , , , , , , , , , , , , 
0.1168269, -0.0508583, 3.0375, -0.6030273, 3.0375, -0.9750977, 3.0375, 0.0395508, 0.1168269, -0.0085603, 3.0375, 0.4760742, 3.0375, -0.9604492, 3.0375, 0.1621094, 0.1168269, -0.0057069, 3.0375, 0.1953125, 3.0375, -1.0102539, 3.0375, -0.4858398, 0.1168269, 0.0265202, 3.0375, 0.3291016, 3.0375, -1.0166016, 3.0375, 0.1210938, , , , , , , , , , , , , , , , , , , , , , 
0.1173462, -0.0468299, 3.051, -0.5917969, 3.051, -0.9467773, 3.051, 0.0131836, 0.1173462, -0.0072175, 3.051, 0.5141602, 3.051, -0.9360352, 3.051, 0.1694336, 0.1173462, -0.0058747, 3.051, 0.199707, 3.051, -0.9882812, 3.051, -0.4829102, 0.1173462, 0.026688, 3.051, 0.359375, 3.051, -0.9897461, 3.051, 0.1142578, , , , , , , , , , , , , , , , , , , , , , 
0.1178654, -0.0350805, 3.0645, -0.5786133, 3.0645, -0.9125977, 3.0645, 0.0229492, 0.1178654, -0.0072175, 3.0645, 0.4682617, 3.0645, -0.8959961, 3.0645, 0.1748047, 0.1178654, -0.0050355, 3.0645, 0.1923828, 3.0645, -0.9570312, 3.0645, -0.4960938, 0.1178654, 0.024506, 3.0645, 0.3618164, 3.0645, -0.9487305, 3.0645, 0.0834961, , , , , , , , , , , , , , , , , , , , , , 
0.1183846, -0.023331, 3.078, -0.6079102, 3.078, -0.909668, 3.078, 0.0244141, 0.1183846, -0.0065461, 3.078, 0.4975586, 3.078, -0.8579102, 3.078, 0.1933594, 0.1183846, -0.0025177, 3.078, 0.1772461, 3.078, -0.9248047, 3.078, -0.5170898, 0.1183846, 0.0226596, 3.078, 0.371582, 3.078, -0.9165039, 3.078, 0.0585938, , , , , , , , , , , , , , , , , , , , , , 
0.1189038, -0.0129244, 3.0915, -0.5913086, 3.0915, -0.9033203, 3.0915, -0.0039062, 0.1189038, -0.0052033, 3.0915, 0.5371094, 3.0915, -0.8266602, 3.0915, 0.1557617, 0.1189038, -0.0015106, 3.0915, 0.1679688, 3.0915, -0.8896484, 3.0915, -0.5224609, 0.1189038, 0.0196384, 3.0915, 0.3974609, 3.0915, -0.9199219, 3.0915, 0.0483398, , , , , , , , , , , , , , , , , , , , , , 
0.1194231, -0.0025177, 3.105, -0.5444336, 3.105, -0.8754883, 3.105, 0.0078125, 0.1194231, -0.005539, 3.105, 0.5302734, 3.105, -0.8115234, 3.105, 0.15625, 0.1194231, -0.0036927, 3.105, 0.1757812, 3.105, -0.8671875, 3.105, -0.519043, 0.1194231, 0.0159457, 3.105, 0.4204102, 3.105, -0.9008789, 3.105, 0.034668, , , , , , , , , , , , , , , , , , , , , , 
0.1199423, 0.008896, 3.1185, -0.5668945, 3.1185, -0.8256836, 3.1185, 0, 0.1199423, -0.0075532, 3.1185, 0.5092773, 3.1185, -0.7993164, 3.1185, 0.2148438, 0.1199423, -0.0068818, 3.1185, 0.1772461, 3.1185, -0.8549805, 3.1185, -0.5209961, 0.1199423, 0.0132601, 3.1185, 0.434082, 3.1185, -0.8608398, 3.1185, 0.0361328, , , , , , , , , , , , , , , , , , , , , , 
0.1204615, 0.0152743, 3.132, -0.6396484, 3.132, -0.8027344, 3.132, -0.0058594, 0.1204615, -0.0099031, 3.132, 0.4902344, 3.132, -0.8085938, 3.132, 0.2792969, 0.1204615, -0.0072175, 3.132, 0.1821289, 3.132, -0.8491211, 3.132, -0.5297852, 0.1204615, 0.0119173, 3.132, 0.4560547, 3.132, -0.8496094, 3.132, 0.0375977, , , , , , , , , , , , , , , , , , , , , , 
0.1209808, 0.0171206, 3.1455, -0.7270508, 3.1455, -0.8251953, 3.1455, 0.0092773, 0.1209808, -0.0102388, 3.1455, 0.5561523, 3.1455, -0.8300781, 3.1455, 0.2607422, 0.1209808, -0.0060426, 3.1455, 0.222168, 3.1455, -0.8413086, 3.1455, -0.5400391, 0.1209808, 0.0115816, 3.1455, 0.4863281, 3.1455, -0.8500977, 3.1455, 0.0385742, , , , , , , , , , , , , , , , , , , , , , 
0.1215, 0.017792, 3.159, -0.6728516, 3.159, -0.8203125, 3.159, -0.0161133, 0.1215, -0.010071, 3.159, 0.6523438, 3.159, -0.7944336, 3.159, 0.1943359, 0.1215, -0.0043641, 3.159, 0.2583008, 3.159, -0.8212891, 3.159, -0.5273438, 0.1215, 0.0105745, 3.159, 0.4848633, 3.159, -0.8588867, 3.159, 0.0498047, , , , , , , , , , , , , , , , , , , , , , 
0.1220192, 0.0229953, 3.1725, -0.5273438, 3.1725, -0.7749023, 3.1725, 0.0102539, 0.1220192, -0.0105745, 3.1725, 0.5454102, 3.1725, -0.7260742, 3.1725, 0.1289062, 0.1220192, -0.0041962, 3.1725, 0.2666016, 3.1725, -0.8027344, 3.1725, -0.5117188, 0.1220192, 0.0099031, 3.1725, 0.4438477, 3.1725, -0.8510742, 3.1725, 0.0595703, , , , , , , , , , , , , , , , , , , , , , 
0.1225385, 0.0297093, 3.186, -0.4970703, 3.186, -0.7431641, 3.186, 0.0512695, 0.1225385, -0.0099031, 3.186, 0.3935547, 3.186, -0.6772461, 3.186, 0.1762695, 0.1225385, -0.0048676, 3.186, 0.2524414, 3.186, -0.7773438, 3.186, -0.4960938, 0.1225385, 0.0092317, 3.186, 0.4179688, 3.186, -0.7944336, 3.186, 0.0576172, , , , , , , , , , , , , , , , , , , , , , 
0.1230577, 0.03122, 3.1995, -0.515625, 3.1995, -0.7250977, 3.1995, 0.0302734, 0.1230577, -0.0087282, 3.1995, 0.4306641, 3.1995, -0.6513672, 3.1995, 0.1796875, 0.1230577, -0.0048676, 3.1995, 0.2363281, 3.1995, -0.71875, 3.1995, -0.5048828, 0.1230577, 0.0102388, 3.1995, 0.4282227, 3.1995, -0.7490234, 3.1995, 0.0600586, , , , , , , , , , , , , , , , , , , , , , 
0.1235769, 0.0290379, 3.213, -0.5517578, 3.213, -0.6870117, 3.213, 0.0063477, 0.1235769, -0.0075532, 3.213, 0.5244141, 3.213, -0.6201172, 3.213, 0.1347656, 0.1235769, -0.0050355, 3.213, 0.2319336, 3.213, -0.6630859, 3.213, -0.5214844, 0.1235769, 0.0112459, 3.213, 0.4365234, 3.213, -0.7382812, 3.213, 0.0639648, , , , , , , , , , , , , , , , , , , , , , 
0.1240962, 0.0263523, 3.2265, -0.565918, 3.2265, -0.6811523, 3.2265, 0.0039062, 0.1240962, -0.0092317, 3.2265, 0.5297852, 3.2265, -0.612793, 3.2265, 0.1323242, 0.1240962, -0.0048676, 3.2265, 0.2397461, 3.2265, -0.6577148, 3.2265, -0.5112305, 0.1240962, 0.0112459, 3.2265, 0.4487305, 3.2265, -0.7358398, 3.2265, 0.0703125, , , , , , , , , , , , , , , , , , , , , , 
0.1246154, 0.0240024, 3.24, -0.5913086, 3.24, -0.6796875, 3.24, 0.015625, 0.1246154, -0.0105745, 3.24, 0.5058594, 3.24, -0.6220703, 3.24, 0.2001953, 0.1246154, -0.0050355, 3.24, 0.2573242, 3.24, -0.675293, 3.24, -0.4995117, 0.1246154, 0.0090639, 3.24, 0.4360352, 3.24, -0.7211914, 3.24, 0.0693359, , , , , , , , , , , , , , , , , , , , , , 
0.1251346, 0.0199741, 3.2535, -0.6323242, 3.2535, -0.6147461, 3.2535, 0.0024414, 0.1251346, -0.0078889, 3.2535, 0.5449219, 3.2535, -0.6054688, 3.2535, 0.2294922, 0.1251346, -0.0062104, 3.2535, 0.2626953, 3.2535, -0.6943359, 3.2535, -0.4829102, 0.1251346, 0.008896, 3.2535, 0.3955078, 3.2535, -0.7172852, 3.2535, 0.0820312, , , , , , , , , , , , , , , , , , , , , , 
0.1256538, 0.0186313, 3.267, -0.6235352, 3.267, -0.5561523, 3.267, -0.0336914, 0.1256538, -0.0077211, 3.267, 0.5654297, 3.267, -0.5673828, 3.267, 0.2075195, 0.1256538, -0.0068818, 3.267, 0.2612305, 3.267, -0.7050781, 3.267, -0.46875, 0.1256538, 0.0104067, 3.267, 0.3422852, 3.267, -0.7084961, 3.267, 0.0986328, , , , , , , , , , , , , , , , , , , , , , 
0.1261731, 0.0253452, 3.2805, -0.612793, 3.2805, -0.5473633, 3.2805, -0.003418, 0.1261731, -0.0095674, 3.2805, 0.5185547, 3.2805, -0.5483398, 3.2805, 0.2084961, 0.1261731, -0.0063783, 3.2805, 0.2426758, 3.2805, -0.7104492, 3.2805, -0.449707, 0.1261731, 0.0105745, 3.2805, 0.2998047, 3.2805, -0.7016602, 3.2805, 0.1064453, , , , , , , , , , , , , , , , , , , , , , 
0.1266923, 0.0350805, 3.294, -0.6220703, 3.294, -0.550293, 3.294, 0.0019531, 0.1266923, -0.0092317, 3.294, 0.4750977, 3.294, -0.5146484, 3.294, 0.2094727, 0.1266923, -0.005539, 3.294, 0.2167969, 3.294, -0.6953125, 3.294, -0.4482422, 0.1266923, 0.0090639, 3.294, 0.2841797, 3.294, -0.7143555, 3.294, 0.1303711, , , , , , , , , , , , , , , , , , , , , , 
0.1272115, 0.0399481, 3.3075, -0.6357422, 3.3075, -0.5439453, 3.3075, -0.0214844, 0.1272115, -0.0075532, 3.3075, 0.5092773, 3.3075, -0.4819336, 3.3075, 0.206543, 0.1272115, -0.0058747, 3.3075, 0.2016602, 3.3075, -0.6767578, 3.3075, -0.4472656, 0.1272115, 0.0065461, 3.3075, 0.2861328, 3.3075, -0.7075195, 3.3075, 0.1088867, , , , , , , , , , , , , , , , , , , , , , 
0.1277308, 0.0468299, 3.321, -0.6469727, 3.321, -0.5512695, 3.321, -0.0102539, 0.1277308, -0.0095674, 3.321, 0.5644531, 3.321, -0.4780273, 3.321, 0.1933594, 0.1277308, -0.0068818, 3.321, 0.1875, 3.321, -0.6635742, 3.321, -0.4448242, 0.1277308, 0.003357, 3.321, 0.2919922, 3.321, -0.6923828, 3.321, 0.0986328, , , , , , , , , , , , , , , , , , , , , , 
0.12825, 0.0562295, 3.3345, -0.6328125, 3.3345, -0.5419922, 3.3345, -0.0166016, 0.12825, -0.0104067, 3.3345, 0.5791016, 3.3345, -0.4858398, 3.3345, 0.2050781, 0.12825, -0.0099031, 3.3345, 0.1879883, 3.3345, -0.6503906, 3.3345, -0.4448242, 0.12825, 0.0016785, 3.3345, 0.3027344, 3.3345, -0.659668, 3.3345, 0.1064453, , , , , , , , , , , , , , , , , , , , , , 
0.1287692, 0.0641184, 3.348, -0.5791016, 3.348, -0.4858398, 3.348, -0.0097656, 0.1287692, -0.0102388, 3.348, 0.5576172, 3.348, -0.4760742, 3.348, 0.2060547, 0.1287692, -0.0115816, 3.348, 0.2070312, 3.348, -0.6279297, 3.348, -0.4399414, 0.1287692, 0.0018463, 3.348, 0.3051758, 3.348, -0.6337891, 3.348, 0.1240234, , , , , , , , , , , , , , , , , , , , , , 
0.1292885, 0.0696574, 3.3615, -0.5693359, 3.3615, -0.4638672, 3.3615, 0.0014648, 0.1292885, -0.0092317, 3.3615, 0.4980469, 3.3615, -0.4428711, 3.3615, 0.199707, 0.1292885, -0.012253, 3.3615, 0.2568359, 3.3615, -0.6005859, 3.3615, -0.4213867, 0.1292885, -0.0005035, 3.3615, 0.3037109, 3.3615, -0.6264648, 3.3615, 0.1352539, , , , , , , , , , , , , , , , , , , , , , 
0.1298077, 0.0669718, 3.375, -0.5854492, 3.375, -0.4501953, 3.375, -0.0131836, 0.1298077, -0.0082246, 3.375, 0.5048828, 3.375, -0.4101562, 3.375, 0.1953125, 0.1298077, -0.0117494, 3.375, 0.2880859, 3.375, -0.5742188, 3.375, -0.3935547, 0.1298077, -0.0038605, 3.375, 0.296875, 3.375, -0.6181641, 3.375, 0.1386719, , , , , , , , , , , , , , , , , , , , , , 
0.1303269, 0.0602579, 3.3885, -0.6113281, 3.3885, -0.4428711, 3.3885, -0.0371094, 0.1303269, -0.0085603, 3.3885, 0.5463867, 3.3885, -0.3833008, 3.3885, 0.1933594, 0.1303269, -0.0109102, 3.3885, 0.2988281, 3.3885, -0.574707, 3.3885, -0.3725586, 0.1303269, -0.0052033, 3.3885, 0.2651367, 3.3885, -0.6274414, 3.3885, 0.1411133, , , , , , , , , , , , , , , , , , , , , , 
0.1308462, 0.0535439, 3.402, -0.65625, 3.402, -0.4243164, 3.402, -0.015625, 0.1308462, -0.0075532, 3.402, 0.5512695, 3.402, -0.3671875, 3.402, 0.1958008, 0.1308462, -0.0097353, 3.402, 0.2993164, 3.402, -0.5878906, 3.402, -0.3730469, 0.1308462, -0.0028534, 3.402, 0.2456055, 3.402, -0.640625, 3.402, 0.1513672, , , , , , , , , , , , , , , , , , , , , , 
0.1313654, 0.043473, 3.4155, -0.6635742, 3.4155, -0.4111328, 3.4155, -0.0092773, 0.1313654, -0.0075532, 3.4155, 0.5444336, 3.4155, -0.3652344, 3.4155, 0.2241211, 0.1313654, -0.0092317, 3.4155, 0.2910156, 3.4155, -0.6254883, 3.4155, -0.3774414, 0.1313654, 0.0025177, 3.4155, 0.234375, 3.4155, -0.637207, 3.4155, 0.168457, , , , , , , , , , , , , , , , , , , , , , 
0.1318846, 0.0280308, 3.429, -0.640625, 3.429, -0.3881836, 3.429, -0.0317383, 0.1318846, -0.0062104, 3.429, 0.5693359, 3.429, -0.3417969, 3.429, 0.2172852, 0.1318846, -0.008896, 3.429, 0.269043, 3.429, -0.6445312, 3.429, -0.3823242, 0.1318846, 0.0078889, 3.429, 0.2270508, 3.429, -0.6347656, 3.429, 0.1713867, , , , , , , , , , , , , , , , , , , , , , 
0.1324038, 0.0139315, 3.4425, -0.6508789, 3.4425, -0.3808594, 3.4425, -0.0083008, 0.1324038, -0.0048676, 3.4425, 0.5957031, 3.4425, -0.3208008, 3.4425, 0.2182617, 0.1324038, -0.0075532, 3.4425, 0.2539062, 3.4425, -0.6430664, 3.4425, -0.3808594, 0.1324038, 0.0102388, 3.4425, 0.2192383, 3.4425, -0.6474609, 3.4425, 0.1723633, , , , , , , , , , , , , , , , , , , , , , 
0.1329231, 0.0075532, 3.456, -0.6801758, 3.456, -0.3701172, 3.456, -0.0004883, 0.1329231, -0.0063783, 3.456, 0.6162109, 3.456, -0.3066406, 3.456, 0.2109375, 0.1329231, -0.0068818, 3.456, 0.265625, 3.456, -0.6474609, 3.456, -0.3657227, 0.1329231, 0.0124208, 3.456, 0.1923828, 3.456, -0.6601562, 3.456, 0.1943359, , , , , , , , , , , , , , , , , , , , , , 
0.1334423, 0.0005035, 3.4695, -0.6791992, 3.4695, -0.3608398, 3.4695, 0.0166016, 0.1334423, -0.0078889, 3.4695, 0.6254883, 3.4695, -0.3061523, 3.4695, 0.2089844, 0.1334423, -0.0075532, 3.4695, 0.2880859, 3.4695, -0.6469727, 3.4695, -0.3657227, 0.1334423, 0.0162814, 3.4695, 0.175293, 3.4695, -0.6630859, 3.4695, 0.2011719, , , , , , , , , , , , , , , , , , , , , , 
0.1339615, -0.0129244, 3.483, -0.6713867, 3.483, -0.347168, 3.483, 0.0131836, 0.1339615, -0.008896, 3.483, 0.6464844, 3.483, -0.3144531, 3.483, 0.2119141, 0.1339615, -0.0078889, 3.483, 0.2963867, 3.483, -0.6489258, 3.483, -0.359375, 0.1339615, 0.0176242, 3.483, 0.1567383, 3.483, -0.6621094, 3.483, 0.2143555, , , , , , , , , , , , , , , , , , , , , , 
0.1344808, -0.024506, 3.4965, -0.684082, 3.4965, -0.328125, 3.4965, 0.0454102, 0.1344808, -0.0104067, 3.4965, 0.6645508, 3.4965, -0.3105469, 3.4965, 0.2285156, 0.1344808, -0.0072175, 3.4965, 0.3100586, 3.4965, -0.6459961, 3.4965, -0.3569336, 0.1344808, 0.0179599, 3.4965, 0.144043, 3.4965, -0.6738281, 3.4965, 0.2431641, , , , , , , , , , , , , , , , , , , , , , 
0.135, -0.0327306, 3.51, -0.6889648, 3.51, -0.328125, 3.51, 0.050293, 0.135, -0.0105745, 3.51, 0.6679688, 3.51, -0.2817383, 3.51, 0.215332, 0.135, -0.0068818, 3.51, 0.3349609, 3.51, -0.6577148, 3.51, -0.3486328, 0.135, 0.0218204, 3.51, 0.1367188, 3.51, -0.6777344, 3.51, 0.2539062, , , , , , , , , , , , , , , , , , , , , , 
0.1355192, -0.0397803, 3.5235, -0.6914062, 3.5235, -0.3173828, 3.5235, 0.0625, 0.1355192, -0.0092317, 3.5235, 0.6601562, 3.5235, -0.2597656, 3.5235, 0.1743164, 0.1355192, -0.005539, 3.5235, 0.3554688, 3.5235, -0.6704102, 3.5235, -0.340332, 0.1355192, 0.0271916, 3.5235, 0.1230469, 3.5235, -0.6787109, 3.5235, 0.2612305, , , , , , , , , , , , , , , , , , , , , , 
0.1360385, -0.0451514, 3.537, -0.6928711, 3.537, -0.3012695, 3.537, 0.0654297, 0.1360385, -0.0083925, 3.537, 0.6796875, 3.537, -0.2446289, 3.537, 0.1552734, 0.1360385, -0.0041962, 3.537, 0.3540039, 3.537, -0.6762695, 3.537, -0.3295898, 0.1360385, 0.0288701, 3.537, 0.1015625, 3.537, -0.7026367, 3.537, 0.2763672, , , , , , , , , , , , , , , , , , , , , , 
0.1365577, -0.0451514, 3.5505, -0.7280273, 3.5505, -0.2529297, 3.5505, 0.0834961, 0.1365577, -0.0085603, 3.5505, 0.7211914, 3.5505, -0.237793, 3.5505, 0.2075195, 0.1365577, -0.0028534, 3.5505, 0.3383789, 3.5505, -0.6992188, 3.5505, -0.3217773, 0.1365577, 0.0287022, 3.5505, 0.0786133, 3.5505, -0.7338867, 3.5505, 0.2861328, , , , , , , , , , , , , , , , , , , , , , 
0.1370769, -0.0399481, 3.564, -0.7490234, 3.564, -0.230957, 3.564, 0.0976562, 0.1370769, -0.0085603, 3.564, 0.7509766, 3.564, -0.234375, 3.564, 0.2050781, 0.1370769, -0.0035248, 3.564, 0.3398438, 3.564, -0.7241211, 3.564, -0.3095703, 0.1370769, 0.0260166, 3.564, 0.0561523, 3.564, -0.7485352, 3.564, 0.3085938, , , , , , , , , , , , , , , , , , , , , , 
0.1375962, -0.0344091, 3.5775, -0.7607422, 3.5775, -0.2651367, 3.5775, 0.1064453, 0.1375962, -0.0099031, 3.5775, 0.762207, 3.5775, -0.2485352, 3.5775, 0.175293, 0.1375962, -0.0068818, 3.5775, 0.3789062, 3.5775, -0.7172852, 3.5775, -0.3056641, 0.1375962, 0.0229953, 3.5775, 0.0463867, 3.5775, -0.7436523, 3.5775, 0.3276367, , , , , , , , , , , , , , , , , , , , , , 
0.1381154, -0.0229953, 3.591, -0.7675781, 3.591, -0.2749023, 3.591, 0.1416016, 0.1381154, -0.0104067, 3.591, 0.7695312, 3.591, -0.2441406, 3.591, 0.1645508, 0.1381154, -0.0102388, 3.591, 0.4140625, 3.591, -0.7011719, 3.591, -0.3261719, 0.1381154, 0.0213169, 3.591, 0.0512695, 3.591, -0.7587891, 3.591, 0.3276367, , , , , , , , , , , , , , , , , , , , , , 
0.1386346, -0.0104067, 3.6045, -0.7802734, 3.6045, -0.246582, 3.6045, 0.1357422, 0.1386346, -0.0102388, 3.6045, 0.8051758, 3.6045, -0.2070312, 3.6045, 0.1547852, 0.1386346, -0.0095674, 3.6045, 0.4194336, 3.6045, -0.7304688, 3.6045, -0.3349609, 0.1386346, 0.0206455, 3.6045, 0.0532227, 3.6045, -0.7978516, 3.6045, 0.3276367, , , , , , , , , , , , , , , , , , , , , , 
0.1391538, -0.0011749, 3.618, -0.8217773, 3.618, -0.206543, 3.618, 0.1376953, 0.1391538, -0.0102388, 3.618, 0.8310547, 3.618, -0.1791992, 3.618, 0.1762695, 0.1391538, -0.0068818, 3.618, 0.4121094, 3.618, -0.7924805, 3.618, -0.3242188, 0.1391538, 0.0213169, 3.618, 0.0532227, 3.618, -0.8188477, 3.618, 0.3354492, , , , , , , , , , , , , , , , , , , , , , 
0.1396731, 0.0072175, 3.6315, -0.8339844, 3.6315, -0.1923828, 3.6315, 0.152832, 0.1396731, -0.0082246, 3.6315, 0.8413086, 3.6315, -0.1635742, 3.6315, 0.1855469, 0.1396731, -0.005539, 3.6315, 0.4121094, 3.6315, -0.8320312, 3.6315, -0.3085938, 0.1396731, 0.0206455, 3.6315, 0.0532227, 3.6315, -0.831543, 3.6315, 0.347168, , , , , , , , , , , , , , , , , , , , , , 
0.1401923, 0.01561, 3.645, -0.8129883, 3.645, -0.1982422, 3.645, 0.1728516, 0.1401923, -0.0058747, 3.645, 0.8461914, 3.645, -0.1645508, 3.645, 0.1625977, 0.1401923, -0.0057069, 3.645, 0.421875, 3.645, -0.8066406, 3.645, -0.3061523, 0.1401923, 0.0172885, 3.645, 0.0405273, 3.645, -0.8168945, 3.645, 0.3530273, , , , , , , , , , , , , , , , , , , , , , 
0.1407115, 0.0206455, 3.6585, -0.7827148, 3.6585, -0.1943359, 3.6585, 0.1850586, 0.1407115, -0.0058747, 3.6585, 0.8500977, 3.6585, -0.1689453, 3.6585, 0.144043, 0.1407115, -0.0068818, 3.6585, 0.4311523, 3.6585, -0.7758789, 3.6585, -0.3046875, 0.1407115, 0.0159457, 3.6585, 0.0102539, 3.6585, -0.7993164, 3.6585, 0.3583984, , , , , , , , , , , , , , , , , , , , , , 
0.1412308, 0.0186313, 3.672, -0.7841797, 3.672, -0.1660156, 3.672, 0.1943359, 0.1412308, -0.0060426, 3.672, 0.8525391, 3.672, -0.1625977, 3.672, 0.1420898, 0.1412308, -0.0083925, 3.672, 0.4360352, 3.672, -0.7294922, 3.672, -0.2988281, 0.1412308, 0.0166171, 3.672, -0.0239258, 3.672, -0.8125, 3.672, 0.3710938, , , , , , , , , , , , , , , , , , , , , , 
0.14175, 0.0166171, 3.6855, -0.809082, 3.6855, -0.1464844, 3.6855, 0.1977539, 0.14175, -0.0062104, 3.6855, 0.8579102, 3.6855, -0.1533203, 3.6855, 0.168457, 0.14175, -0.0102388, 3.6855, 0.4404297, 3.6855, -0.7382812, 3.6855, -0.3046875, 0.14175, 0.0164492, 3.6855, -0.0415039, 3.6855, -0.8408203, 3.6855, 0.3876953, , , , , , , , , , , , , , , , , , , , , , 
0.1422692, 0.0206455, 3.699, -0.831543, 3.699, -0.1416016, 3.699, 0.2016602, 0.1422692, -0.0038605, 3.699, 0.8813477, 3.699, -0.1123047, 3.699, 0.1347656, 0.1422692, -0.0102388, 3.699, 0.4462891, 3.699, -0.7963867, 3.699, -0.2905273, 0.1422692, 0.0132601, 3.699, -0.0283203, 3.699, -0.840332, 3.699, 0.3862305, , , , , , , , , , , , , , , , , , , , , , 
0.1427885, 0.0285344, 3.7125, -0.8393555, 3.7125, -0.1401367, 3.7125, 0.1875, 0.1427885, -0.0025177, 3.7125, 0.8852539, 3.7125, -0.1069336, 3.7125, 0.1484375, 0.1427885, -0.0075532, 3.7125, 0.4458008, 3.7125, -0.8237305, 3.7125, -0.2792969, 0.1427885, 0.011078, 3.7125, -0.0141602, 3.7125, -0.8398438, 3.7125, 0.3754883, , , , , , , , , , , , , , , , , , , , , , 
0.1433077, 0.030045, 3.726, -0.8330078, 3.726, -0.1293945, 3.726, 0.2084961, 0.1433077, -0.0045319, 3.726, 0.8837891, 3.726, -0.1025391, 3.726, 0.1328125, 0.1433077, -0.0057069, 3.726, 0.4487305, 3.726, -0.8168945, 3.726, -0.2724609, 0.1433077, 0.0117494, 3.726, -0.0175781, 3.726, -0.8486328, 3.726, 0.3701172, , , , , , , , , , , , , , , , , , , , , , 
0.1438269, 0.0271916, 3.7395, -0.8305664, 3.7395, -0.1035156, 3.7395, 0.2128906, 0.1438269, -0.0078889, 3.7395, 0.8652344, 3.7395, -0.0961914, 3.7395, 0.1333008, 0.1438269, -0.0075532, 3.7395, 0.4570312, 3.7395, -0.8120117, 3.7395, -0.2651367, 0.1438269, 0.0112459, 3.7395, -0.0371094, 3.7395, -0.855957, 3.7395, 0.3789062, , , , , , , , , , , , , , , , , , , , , , 
0.1443462, 0.0263523, 3.753, -0.8354492, 3.753, -0.0786133, 3.753, 0.2207031, 0.1443462, -0.0085603, 3.753, 0.8818359, 3.753, -0.0791016, 3.753, 0.1386719, 0.1443462, -0.008896, 3.753, 0.4521484, 3.753, -0.7983398, 3.753, -0.284668, 0.1443462, 0.0125887, 3.753, -0.0556641, 3.753, -0.8544922, 3.753, 0.390625, , , , , , , , , , , , , , , , , , , , , , 
0.1448654, 0.0280308, 3.7665, -0.8310547, 3.7665, -0.0893555, 3.7665, 0.2490234, 0.1448654, -0.0083925, 3.7665, 0.9052734, 3.7665, -0.0673828, 3.7665, 0.1333008, 0.1448654, -0.0085603, 3.7665, 0.449707, 3.7665, -0.7802734, 3.7665, -0.2929688, 0.1448654, 0.0132601, 3.7665, -0.0576172, 3.7665, -0.8520508, 3.7665, 0.3945312, , , , , , , , , , , , , , , , , , , , , , 
0.1453846, 0.0307164, 3.78, -0.8291016, 3.78, -0.1030273, 3.78, 0.2705078, 0.1453846, -0.0090639, 3.78, 0.9072266, 3.78, -0.0473633, 3.78, 0.1147461, 0.1453846, -0.0085603, 3.78, 0.4599609, 3.78, -0.7949219, 3.78, -0.262207, 0.1453846, 0.012253, 3.78, -0.0600586, 3.78, -0.8505859, 3.78, 0.3867188, , , , , , , , , , , , , , , , , , , , , , 
0.1459038, 0.0325628, 3.7935, -0.8500977, 3.7935, -0.074707, 3.7935, 0.2524414, 0.1459038, -0.0092317, 3.7935, 0.9536133, 3.7935, -0.0283203, 3.7935, 0.1293945, 0.1459038, -0.0082246, 3.7935, 0.4672852, 3.7935, -0.8081055, 3.7935, -0.2524414, 0.1459038, 0.0095674, 3.7935, -0.0649414, 3.7935, -0.8564453, 3.7935, 0.3745117, , , , , , , , , , , , , , , , , , , , , , 
0.1464231, 0.03122, 3.807, -0.8452148, 3.807, -0.0146484, 3.807, 0.2670898, 0.1464231, -0.0080568, 3.807, 0.9541016, 3.807, 0.0092773, 3.807, 0.1201172, 0.1464231, -0.0068818, 3.807, 0.4633789, 3.807, -0.8452148, 3.807, -0.237793, 0.1464231, 0.0099031, 3.807, -0.0854492, 3.807, -0.875, 3.807, 0.375, , , , , , , , , , , , , , , , , , , , , , 
0.1469423, 0.0320592, 3.8205, -0.8251953, 3.8205, 0.0092773, 3.8205, 0.2875977, 0.1469423, -0.0085603, 3.8205, 0.9067383, 3.8205, 0.0351562, 3.8205, 0.09375, 0.1469423, -0.0075532, 3.8205, 0.4516602, 3.8205, -0.8608398, 3.8205, -0.2119141, 0.1469423, 0.0105745, 3.8205, -0.1010742, 3.8205, -0.8676758, 3.8205, 0.3798828, , , , , , , , , , , , , , , , , , , , , , 
0.1474615, 0.0387732, 3.834, -0.8164062, 3.834, -0.003418, 3.834, 0.3061523, 0.1474615, -0.0095674, 3.834, 0.887207, 3.834, 0.0395508, 3.834, 0.0898438, 0.1474615, -0.011078, 3.834, 0.4511719, 3.834, -0.8261719, 3.834, -0.2172852, 0.1474615, 0.0068818, 3.834, -0.1162109, 3.834, -0.8540039, 3.834, 0.3862305, , , , , , , , , , , , , , , , , , , , , , 
0.1479808, 0.0515297, 3.8475, -0.8359375, 3.8475, -0.0063477, 3.8475, 0.3076172, 0.1479808, -0.008896, 3.8475, 0.8994141, 3.8475, 0.0527344, 3.8475, 0.0805664, 0.1479808, -0.0139315, 3.8475, 0.465332, 3.8475, -0.796875, 3.8475, -0.2265625, 0.1479808, 0.0011749, 3.8475, -0.1303711, 3.8475, -0.8666992, 3.8475, 0.3837891, , , , , , , , , , , , , , , , , , , , , , 
0.1485, 0.0602579, 3.861, -0.8647461, 3.861, 0.0205078, 3.861, 0.3168945, 0.1485, -0.0077211, 3.861, 0.9511719, 3.861, 0.0668945, 3.861, 0.097168, 0.1485, -0.0132601, 3.861, 0.4746094, 3.861, -0.8334961, 3.861, -0.2231445, 0.1485, -0.0015106, 3.861, -0.1328125, 3.861, -0.8818359, 3.861, 0.3837891, , , , , , , , , , , , , , , , , , , , , , 
0.1490192, 0.0595865, 3.8745, -0.8696289, 3.8745, 0.0405273, 3.8745, 0.3188477, 0.1490192, -0.0078889, 3.8745, 0.9672852, 3.8745, 0.0966797, 3.8745, 0.0708008, 0.1490192, -0.0117494, 3.8745, 0.4594727, 3.8745, -0.8955078, 3.8745, -0.2143555, 0.1490192, -0.0015106, 3.8745, -0.1269531, 3.8745, -0.8979492, 3.8745, 0.3876953, , , , , , , , , , , , , , , , , , , , , , 
0.1495385, 0.0555581, 3.888, -0.8520508, 3.888, 0.0625, 3.888, 0.3305664, 0.1495385, -0.0068818, 3.888, 0.9238281, 3.888, 0.1196289, 3.888, 0.0742188, 0.1495385, -0.0112459, 3.888, 0.4516602, 3.888, -0.9213867, 3.888, -0.2001953, 0.1495385, -0.0008392, 3.888, -0.1235352, 3.888, -0.9042969, 3.888, 0.3808594, , , , , , , , , , , , , , , , , , , , , , 
0.1500577, 0.0552224, 3.9015, -0.8295898, 3.9015, 0.0380859, 3.9015, 0.3413086, 0.1500577, -0.0045319, 3.9015, 0.9008789, 3.9015, 0.112793, 3.9015, 0.0473633, 0.1500577, -0.0105745, 3.9015, 0.4672852, 3.9015, -0.8837891, 3.9015, -0.203125, 0.1500577, -0.002182, 3.9015, -0.1308594, 3.9015, -0.8813477, 3.9015, 0.3857422, , , , , , , , , , , , , , , , , , , , , , 
0.1505769, 0.0535439, 3.915, -0.8330078, 3.915, 0.0180664, 3.915, 0.34375, 0.1505769, -0.0057069, 3.915, 0.9145508, 3.915, 0.0849609, 3.915, 0.0483398, 0.1505769, -0.008896, 3.915, 0.484375, 3.915, -0.8168945, 3.915, -0.2075195, 0.1505769, -0.0045319, 3.915, -0.1328125, 3.915, -0.8632812, 3.915, 0.3862305, , , , , , , , , , , , , , , , , , , , , , 
0.1510962, 0.0451514, 3.9285, -0.8129883, 3.9285, 0.012207, 3.9285, 0.3378906, 0.1510962, -0.0075532, 3.9285, 0.9189453, 3.9285, 0.0859375, 3.9285, 0.0483398, 0.1510962, -0.0075532, 3.9285, 0.4833984, 3.9285, -0.7890625, 3.9285, -0.2143555, 0.1510962, -0.0035248, 3.9285, -0.1328125, 3.9285, -0.8398438, 3.9285, 0.3828125, , , , , , , , , , , , , , , , , , , , , , 
0.1516154, 0.0310521, 3.942, -0.7954102, 3.942, 0.0195312, 3.942, 0.3383789, 0.1516154, -0.0072175, 3.942, 0.9023438, 3.942, 0.1098633, 3.942, 0.0366211, 0.1516154, -0.0072175, 3.942, 0.4516602, 3.942, -0.7792969, 3.942, -0.2138672, 0.1516154, 0.0015106, 3.942, -0.1264648, 3.942, -0.8334961, 3.942, 0.3657227, , , , , , , , , , , , , , , , , , , , , , 
0.1521346, 0.0176242, 3.9555, -0.7978516, 3.9555, 0.0385742, 3.9555, 0.3334961, 0.1521346, -0.005539, 3.9555, 0.8554688, 3.9555, 0.1464844, 3.9555, 0.0126953, 0.1521346, -0.008896, 3.9555, 0.4272461, 3.9555, -0.8232422, 3.9555, -0.1860352, 0.1521346, 0.0052033, 3.9555, -0.1103516, 3.9555, -0.8364258, 3.9555, 0.3496094, , , , , , , , , , , , , , , , , , , , , , 
0.1526538, 0.0078889, 3.969, -0.7958984, 3.969, 0.0473633, 3.969, 0.3139648, 0.1526538, -0.0041962, 3.969, 0.8388672, 3.969, 0.1518555, 3.969, 0.0327148, 0.1526538, -0.0109102, 3.969, 0.4389648, 3.969, -0.8393555, 3.969, -0.1601562, 0.1526538, 0.0075532, 3.969, -0.0961914, 3.969, -0.8208008, 3.969, 0.3393555, , , , , , , , , , , , , , , , , , , , , , 
0.1531731, 0.0015106, 3.9825, -0.7734375, 3.9825, 0.0356445, 3.9825, 0.3193359, 0.1531731, -0.0041962, 3.9825, 0.8378906, 3.9825, 0.1376953, 3.9825, 0.0600586, 0.1531731, -0.0104067, 3.9825, 0.465332, 3.9825, -0.7875977, 3.9825, -0.1713867, 0.1531731, 0.0099031, 3.9825, -0.0991211, 3.9825, -0.8129883, 3.9825, 0.3310547, , , , , , , , , , , , , , , , , , , , , , 
0.1536923, -0.0058747, 3.996, -0.7714844, 3.996, 0.059082, 3.996, 0.3149414, 0.1536923, -0.0041962, 3.996, 0.8896484, 3.996, 0.1279297, 3.996, 0.0883789, 0.1536923, -0.0068818, 3.996, 0.4736328, 3.996, -0.7578125, 3.996, -0.206543, 0.1536923, 0.0132601, 3.996, -0.1132812, 3.996, -0.8349609, 3.996, 0.3251953, , , , , , , , , , , , , , , , , , , , , , 
0.1542115, -0.0176242, 4.0095, -0.8061523, 4.0095, 0.1235352, 4.0095, 0.3134766, 0.1542115, -0.0060426, 4.0095, 0.9702148, 4.0095, 0.159668, 4.0095, 0.1191406, 0.1542115, -0.0041962, 4.0095, 0.4428711, 4.0095, -0.8417969, 4.0095, -0.2016602, 0.1542115, 0.0186313, 4.0095, -0.1416016, 4.0095, -0.8896484, 4.0095, 0.3193359, , , , , , , , , , , , , , , , , , , , , , 
0.1547308, -0.030045, 4.023, -0.8261719, 4.023, 0.1767578, 4.023, 0.3193359, 0.1547308, -0.0082246, 4.023, 0.9853516, 4.023, 0.2099609, 4.023, 0.109375, 0.1547308, -0.003357, 4.023, 0.3979492, 4.023, -0.9609375, 4.023, -0.1606445, 0.1547308, 0.0258488, 4.023, -0.1469727, 4.023, -0.9155273, 4.023, 0.3212891, , , , , , , , , , , , , , , , , , , , , , 
0.15525, -0.0377661, 4.0365, -0.8203125, 4.0365, 0.1835938, 4.0365, 0.3339844, 0.15525, -0.0075532, 4.0365, 0.9228516, 4.0365, 0.2285156, 4.0365, 0.0732422, 0.15525, -0.0038605, 4.0365, 0.394043, 4.0365, -0.9677734, 4.0365, -0.1464844, 0.15525, 0.0302129, 4.0365, -0.1499023, 4.0365, -0.9013672, 4.0365, 0.3369141, , , , , , , , , , , , , , , , , , , , , , 
0.1557692, -0.0421302, 4.05, -0.809082, 4.05, 0.1621094, 4.05, 0.3632812, 0.1557692, -0.0048676, 4.05, 0.8950195, 4.05, 0.2109375, 4.05, 0.0561523, 0.1557692, -0.0043641, 4.05, 0.4443359, 4.05, -0.8876953, 4.05, -0.1645508, 0.1557692, 0.0317235, 4.05, -0.1723633, 4.05, -0.8945312, 4.05, 0.3452148, , , , , , , , , , , , , , , , , , , , , , 
0.1562885, -0.043473, 4.0635, -0.840332, 4.0635, 0.1416016, 4.0635, 0.3676758, 0.1562885, -0.0028534, 4.0635, 0.9243164, 4.0635, 0.1835938, 4.0635, 0.050293, 0.1562885, -0.0036927, 4.0635, 0.4711914, 4.0635, -0.8603516, 4.0635, -0.1616211, 0.1562885, 0.033402, 4.0635, -0.1894531, 4.0635, -0.8818359, 4.0635, 0.3647461, , , , , , , , , , , , , , , , , , , , , , 
0.1568077, -0.0488441, 4.077, -0.855957, 4.077, 0.1337891, 4.077, 0.3818359, 0.1568077, -0.0045319, 4.077, 0.9326172, 4.077, 0.1665039, 4.077, 0.0405273, 0.1568077, -0.0038605, 4.077, 0.487793, 4.077, -0.8588867, 4.077, -0.137207, 0.1568077, 0.0340734, 4.077, -0.1987305, 4.077, -0.8793945, 4.077, 0.3764648, , , , , , , , , , , , , , , , , , , , , , 
0.1573269, -0.0500191, 4.0905, -0.8300781, 4.0905, 0.1376953, 4.0905, 0.3881836, 0.1573269, -0.0072175, 4.0905, 0.9462891, 4.0905, 0.1616211, 4.0905, 0.0507812, 0.1573269, -0.0035248, 4.0905, 0.4584961, 4.0905, -0.8911133, 4.0905, -0.1386719, 0.1573269, 0.0303807, 4.0905, -0.2163086, 4.0905, -0.8881836, 4.0905, 0.3842773, , , , , , , , , , , , , , , , , , , , , , 
0.1578462, -0.0374304, 4.104, -0.8222656, 4.104, 0.140625, 4.104, 0.3935547, 0.1578462, -0.008896, 4.104, 0.9775391, 4.104, 0.1591797, 4.104, 0.0458984, 0.1578462, -0.0045319, 4.104, 0.4370117, 4.104, -0.9042969, 4.104, -0.1547852, 0.1578462, 0.026688, 4.104, -0.2070312, 4.104, -0.9077148, 4.104, 0.3823242, , , , , , , , , , , , , , , , , , , , , , 
0.1583654, -0.0196384, 4.1175, -0.8413086, 4.1175, 0.1206055, 4.1175, 0.3984375, 0.1583654, -0.0082246, 4.1175, 0.9946289, 4.1175, 0.15625, 4.1175, 0.0351562, 0.1583654, -0.0052033, 4.1175, 0.4570312, 4.1175, -0.90625, 4.1175, -0.1494141, 0.1583654, 0.0238346, 4.1175, -0.1835938, 4.1175, -0.9243164, 4.1175, 0.3735352, , , , , , , , , , , , , , , , , , , , , , 
0.1588846, -0.0082246, 4.131, -0.8583984, 4.131, 0.105957, 4.131, 0.3964844, 0.1588846, -0.0065461, 4.131, 0.9829102, 4.131, 0.1557617, 4.131, 0.027832, 0.1588846, -0.0045319, 4.131, 0.4863281, 4.131, -0.9165039, 4.131, -0.1479492, 0.1588846, 0.0226596, 4.131, -0.1552734, 4.131, -0.9296875, 4.131, 0.3623047, , , , , , , , , , , , , , , , , , , , , , 
0.1594038, -0.0015106, 4.1445, -0.8564453, 4.1445, 0.0952148, 4.1445, 0.4013672, 0.1594038, -0.0075532, 4.1445, 0.9765625, 4.1445, 0.1479492, 4.1445, 0.0463867, 0.1594038, -0.0060426, 4.1445, 0.5053711, 4.1445, -0.9121094, 4.1445, -0.1494141, 0.1594038, 0.0206455, 4.1445, -0.144043, 4.1445, -0.9296875, 4.1445, 0.359375, , , , , , , , , , , , , , , , , , , , , , 
0.1599231, 0.0036927, 4.158, -0.8481445, 4.158, 0.0849609, 4.158, 0.3945312, 0.1599231, -0.0085603, 4.158, 0.9897461, 4.158, 0.1391602, 4.158, 0.0415039, 0.1599231, -0.0083925, 4.158, 0.5058594, 4.158, -0.8837891, 4.158, -0.1601562, 0.1599231, 0.0186313, 4.158, -0.1499023, 4.158, -0.9306641, 4.158, 0.3642578, , , , , , , , , , , , , , , , , , , , , , 
0.1604423, 0.0065461, 4.1715, -0.8574219, 4.1715, 0.0917969, 4.1715, 0.4042969, 0.1604423, -0.008896, 4.1715, 0.9985352, 4.1715, 0.1318359, 4.1715, 0.0366211, 0.1604423, -0.0085603, 4.1715, 0.4873047, 4.1715, -0.8818359, 4.1715, -0.1630859, 0.1604423, 0.0159457, 4.1715, -0.1665039, 4.1715, -0.9243164, 4.1715, 0.3608398, , , , , , , , , , , , , , , , , , , , , , 
0.1609615, 0.0083925, 4.185, -0.8657227, 4.185, 0.0927734, 4.185, 0.4003906, 0.1609615, -0.0082246, 4.185, 0.996582, 4.185, 0.1352539, 4.185, 0.0458984, 0.1609615, -0.0085603, 4.185, 0.4692383, 4.185, -0.887207, 4.185, -0.1625977, 0.1609615, 0.0139315, 4.185, -0.1713867, 4.185, -0.9169922, 4.185, 0.359375, , , , , , , , , , , , , , , , , , , , , , 
0.1614808, 0.0104067, 4.1985, -0.8583984, 4.1985, 0.0917969, 4.1985, 0.3959961, 0.1614808, -0.0062104, 4.1985, 1.0053711, 4.1985, 0.137207, 4.1985, 0.0571289, 0.1614808, -0.0095674, 4.1985, 0.4296875, 4.1985, -0.9003906, 4.1985, -0.1611328, 0.1614808, 0.0139315, 4.1985, -0.1665039, 4.1985, -0.918457, 4.1985, 0.3515625, , , , , , , , , , , , , , , , , , , , , , 
0.162, 0.0146029, 4.212, -0.8505859, 4.212, 0.1044922, 4.212, 0.3955078, 0.162, -0.0072175, 4.212, 1.0053711, 4.212, 0.140625, 4.212, 0.050293, 0.162, -0.008896, 4.212, 0.4267578, 4.212, -0.9018555, 4.212, -0.1430664, 0.162, 0.0152743, 4.212, -0.1787109, 4.212, -0.9145508, 4.212, 0.3422852, , , , , , , , , , , , , , , , , , , , , , 
0.1625192, 0.0186313, 4.2255, -0.8540039, 4.2255, 0.1230469, 4.2255, 0.3974609, 0.1625192, -0.0090639, 4.2255, 0.9946289, 4.2255, 0.1572266, 4.2255, 0.0478516, 0.1625192, -0.0068818, 4.2255, 0.4443359, 4.2255, -0.8955078, 4.2255, -0.1333008, 0.1625192, 0.014435, 4.2255, -0.1884766, 4.2255, -0.9052734, 4.2255, 0.3422852, , , , , , , , , , , , , , , , , , , , , , 
0.1630385, 0.0209812, 4.239, -0.8413086, 4.239, 0.1279297, 4.239, 0.3955078, 0.1630385, -0.0095674, 4.239, 0.9702148, 4.239, 0.1865234, 4.239, 0.0361328, 0.1630385, -0.0065461, 4.239, 0.4443359, 4.239, -0.8862305, 4.239, -0.1308594, 0.1630385, 0.0125887, 4.239, -0.2006836, 4.239, -0.8964844, 4.239, 0.3383789, , , , , , , , , , , , , , , , , , , , , , 
0.1635577, 0.0224918, 4.2525, -0.8374023, 4.2525, 0.1352539, 4.2525, 0.3969727, 0.1635577, -0.0095674, 4.2525, 0.9755859, 4.2525, 0.2021484, 4.2525, 0.027832, 0.1635577, -0.005539, 4.2525, 0.425293, 4.2525, -0.902832, 4.2525, -0.1235352, 0.1635577, 0.0119173, 4.2525, -0.1918945, 4.2525, -0.8994141, 4.2525, 0.3227539, , , , , , , , , , , , , , , , , , , , , , 
0.1640769, 0.0226596, 4.266, -0.8500977, 4.266, 0.1411133, 4.266, 0.409668, 0.1640769, -0.008896, 4.266, 0.9873047, 4.266, 0.2011719, 4.266, 0.0258789, 0.1640769, -0.0065461, 4.266, 0.4223633, 4.266, -0.9130859, 4.266, -0.1098633, 0.1640769, 0.0092317, 4.266, -0.1831055, 4.266, -0.8974609, 4.266, 0.3217773, , , , , , , , , , , , , , , , , , , , , , 
0.1645962, 0.0276951, 4.2795, -0.8193359, 4.2795, 0.1357422, 4.2795, 0.4072266, 0.1645962, -0.0082246, 4.2795, 0.9765625, 4.2795, 0.2016602, 4.2795, 0.0166016, 0.1645962, -0.0109102, 4.2795, 0.4350586, 4.2795, -0.9013672, 4.2795, -0.1157227, 0.1645962, 0.008896, 4.2795, -0.1899414, 4.2795, -0.9023438, 4.2795, 0.3251953, , , , , , , , , , , , , , , , , , , , , , 
0.1651154, 0.0293736, 4.293, -0.7958984, 4.293, 0.1513672, 4.293, 0.4057617, 0.1651154, -0.0075532, 4.293, 0.9628906, 4.293, 0.2075195, 4.293, 0.0219727, 0.1651154, -0.0135958, 4.293, 0.4453125, 4.293, -0.9003906, 4.293, -0.1201172, 0.1651154, 0.0112459, 4.293, -0.1918945, 4.293, -0.9057617, 4.293, 0.3232422, , , , , , , , , , , , , , , , , , , , , , 
0.1656346, 0.0276951, 4.3065, -0.8271484, 4.3065, 0.1513672, 4.3065, 0.4204102, 0.1656346, -0.0070497, 4.3065, 0.9628906, 4.3065, 0.2119141, 4.3065, 0.0029297, 0.1656346, -0.0129244, 4.3065, 0.4404297, 4.3065, -0.9072266, 4.3065, -0.1166992, 0.1656346, 0.0102388, 4.3065, -0.1884766, 4.3065, -0.8984375, 4.3065, 0.3295898, , , , , , , , , , , , , , , , , , , , , , 
0.1661538, 0.0263523, 4.32, -0.8505859, 4.32, 0.1386719, 4.32, 0.418457, 0.1661538, -0.0062104, 4.32, 0.9648438, 4.32, 0.2001953, 4.32, 0.0053711, 0.1661538, -0.012253, 4.32, 0.4379883, 4.32, -0.9086914, 4.32, -0.1118164, 0.1661538, 0.0092317, 4.32, -0.1914062, 4.32, -0.9003906, 4.32, 0.3349609, , , , , , , , , , , , , , , , , , , , , , 
0.1666731, 0.0265202, 4.3335, -0.8354492, 4.3335, 0.137207, 4.3335, 0.421875, 0.1666731, -0.005539, 4.3335, 0.9624023, 4.3335, 0.1953125, 4.3335, -0.0029297, 0.1666731, -0.012253, 4.3335, 0.4414062, 4.3335, -0.9116211, 4.3335, -0.1191406, 0.1666731, 0.0092317, 4.3335, -0.1904297, 4.3335, -0.9125977, 4.3335, 0.3427734, , , , , , , , , , , , , , , , , , , , , , 
0.1671923, 0.0303807, 4.347, -0.8276367, 4.347, 0.1328125, 4.347, 0.4169922, 0.1671923, -0.0053712, 4.347, 0.9584961, 4.347, 0.1894531, 4.347, 0.0073242, 0.1671923, -0.0129244, 4.347, 0.4555664, 4.347, -0.9116211, 4.347, -0.1225586, 0.1671923, 0.008896, 4.347, -0.1860352, 4.347, -0.9189453, 4.347, 0.3417969, , , , , , , , , , , , , , , , , , , , , , 
0.1677115, 0.0411231, 4.3605, -0.8354492, 4.3605, 0.1401367, 4.3605, 0.4135742, 0.1677115, -0.0057069, 4.3605, 0.9936523, 4.3605, 0.1772461, 4.3605, 0.0283203, 0.1677115, -0.0119173, 4.3605, 0.4648438, 4.3605, -0.9160156, 4.3605, -0.1206055, 0.1677115, 0.0065461, 4.3605, -0.1943359, 4.3605, -0.9208984, 4.3605, 0.3408203, , , , , , , , , , , , , , , , , , , , , , 
0.1682308, 0.0508583, 4.374, -0.8276367, 4.374, 0.1479492, 4.374, 0.4101562, 0.1682308, -0.0068818, 4.374, 0.9882812, 4.374, 0.1850586, 4.374, 0.0161133, 0.1682308, -0.0092317, 4.374, 0.4511719, 4.374, -0.9194336, 4.374, -0.1240234, 0.1682308, 0.0041962, 4.374, -0.1977539, 4.374, -0.9213867, 4.374, 0.34375, , , , , , , , , , , , , , , , , , , , , , 
0.16875, 0.0575723, 4.3875, -0.8076172, 4.3875, 0.1469727, 4.3875, 0.4077148, 0.16875, -0.0082246, 4.3875, 0.9555664, 4.3875, 0.190918, 4.3875, 0.0102539, 0.16875, -0.0097353, 4.3875, 0.4350586, 4.3875, -0.918457, 4.3875, -0.1323242, 0.16875, 0.0025177, 4.3875, -0.1943359, 4.3875, -0.921875, 4.3875, 0.3457031, , , , , , , , , , , , , , , , , , , , , , 
0.1692692, 0.0659648, 4.401, -0.8417969, 4.401, 0.1333008, 4.401, 0.4086914, 0.1692692, -0.0092317, 4.401, 0.9628906, 4.401, 0.1811523, 4.401, 0.0219727, 0.1692692, -0.0120851, 4.401, 0.4399414, 4.401, -0.9121094, 4.401, -0.1323242, 0.1692692, 0.0011749, 4.401, -0.1870117, 4.401, -0.9257812, 4.401, 0.3378906, , , , , , , , , , , , , , , , , , , , , , 
0.1697885, 0.0740215, 4.4145, -0.8725586, 4.4145, 0.1191406, 4.4145, 0.4003906, 0.1697885, -0.0097353, 4.4145, 0.984375, 4.4145, 0.171875, 4.4145, 0.0366211, 0.1697885, -0.0109102, 4.4145, 0.4516602, 4.4145, -0.9121094, 4.4145, -0.1293945, 0.1697885, -0.0011749, 4.4145, -0.1767578, 4.4145, -0.9262695, 4.4145, 0.3334961, , , , , , , , , , , , , , , , , , , , , , 
0.1703077, 0.068986, 4.428, -0.8530273, 4.428, 0.1235352, 4.428, 0.3920898, 0.1703077, -0.0097353, 4.428, 0.9780273, 4.428, 0.1738281, 4.428, 0.0327148, 0.1703077, -0.0092317, 4.428, 0.4506836, 4.428, -0.9125977, 4.428, -0.1333008, 0.1703077, -0.0028534, 4.428, -0.1860352, 4.428, -0.9243164, 4.428, 0.3359375, , , , , , , , , , , , , , , , , , , , , , 
0.1708269, 0.054551, 4.4415, -0.8242188, 4.4415, 0.1464844, 4.4415, 0.3959961, 0.1708269, -0.0083925, 4.4415, 0.9833984, 4.4415, 0.1835938, 4.4415, 0.0341797, 0.1708269, -0.0109102, 4.4415, 0.4462891, 4.4415, -0.9179688, 4.4415, -0.1303711, 0.1708269, -0.0045319, 4.4415, -0.1923828, 4.4415, -0.9277344, 4.4415, 0.3393555, , , , , , , , , , , , , , , , , , , , , , 
