Application:, Trigno Discover (2.0.1.2)
Date/Time:, 5/14/2025 12:39:25 PM
Collection Length (seconds):, 31.482
Forearm 2 (83169), , , , , , , , Forearm 1 (82633), , , , , , , , Biceps (83254), , , , , , , , Triceps (83087)
sensor mode: 45, , , , , , , , sensor mode: 45, , , , , , , , sensor mode: 45, , , , , , , , sensor mode: 45
EMG 1 Time Series (s), EMG 1 (mV), ACC X Time Series (s), ACC X (G), ACC Y Time Series (s), ACC Y (G), ACC Z Time Series (s), ACC Z (G), EMG 1 Time Series (s), EMG 1 (mV), ACC X Time Series (s), ACC X (G), ACC Y Time Series (s), ACC Y (G), ACC Z Time Series (s), ACC Z (G), EMG 1 Time Series (s), EMG 1 (mV), ACC X Time Series (s), ACC X (G), ACC Y Time Series (s), ACC Y (G), ACC Z Time Series (s), ACC Z (G), EMG 1 Time Series (s), EMG 1 (mV), ACC X Time Series (s), ACC X (G), ACC Y Time Series (s), ACC Y (G), ACC Z Time Series (s), ACC Z (G)
, 1925.9259 Hz, , 74.0741 Hz, , 74.0741 Hz, , 74.0741 Hz, , 1925.9259 Hz, , 74.0741 Hz, , 74.0741 Hz, , 74.0741 Hz, , 1925.9259 Hz, , 74.0741 Hz, , 74.0741 Hz, , 74.0741 Hz, , 1925.9259 Hz, , 74.0741 Hz, , 74.0741 Hz, , 74.0741 Hz
, 0.0005192307692307692 s, , 0.0135 s, , 0.0135 s, , 0.0135 s, , 0.0005192307692307692 s, , 0.0135 s, , 0.0135 s, , 0.0135 s, , 0.0005192307692307692 s, , 0.0135 s, , 0.0135 s, , 0.0135 s, , 0.0005192307692307692 s, , 0.0135 s, , 0.0135 s, , 0.0135 s, , Type, Name, Label, Time (s), , Pair, E1, E2, T1, T2, V1, V2, Sensor, Channel, Units, Delta T, RMS, PKPK, Peak Value, TPK, Integral
0, 0.018967, 0, -0.2885742, 0, -0.9731445, 0, 0.1435547, 0, -0.0062104, 0, 0.3623047, 0, -0.9282227, 0, -0.1918945, 0, -0.0102388, 0, 0.1176758, 0, -1.0058594, 0, 0.0244141, 0, -0.0097353, 0, -0.215332, 0, -0.9819336, 0, 0.0185547, , , , , , , , , , , , , , , , , , , , , , 
0.0005192, 0.0159457, 0.0135, -0.2841797, 0.0135, -0.972168, 0.0135, 0.1450195, 0.0005192, -0.0082246, 0.0135, 0.3608398, 0.0135, -0.9287109, 0.0135, -0.1928711, 0.0005192, -0.0092317, 0.0135, 0.1225586, 0.0135, -1.0043945, 0.0135, 0.0239258, 0.0005192, -0.0072175, 0.0135, -0.2128906, 0.0135, -0.9853516, 0.0135, 0.0195312, , , , , , , , , , , , , , , , , , , , , , 
0.0010385, 0.0112459, 0.027, -0.2822266, 0.027, -0.9716797, 0.027, 0.1445312, 0.0010385, -0.0078889, 0.027, 0.359375, 0.027, -0.9262695, 0.027, -0.1987305, 0.0010385, -0.0078889, 0.027, 0.1274414, 0.027, -1.003418, 0.027, 0.0214844, 0.0010385, -0.0023499, 0.027, -0.2075195, 0.027, -0.9848633, 0.027, 0.0195312, , , , , , , , , , , , , , , , , , , , , , 
0.0015577, 0.010071, 0.0405, -0.2841797, 0.0405, -0.9711914, 0.0405, 0.144043, 0.0015577, -0.0072175, 0.0405, 0.3598633, 0.0405, -0.9248047, 0.0405, -0.1977539, 0.0015577, -0.005539, 0.0405, 0.1225586, 0.0405, -1.0024414, 0.0405, 0.0209961, 0.0015577, 0.0038605, 0.0405, -0.2094727, 0.0405, -0.9853516, 0.0405, 0.0200195, , , , , , , , , , , , , , , , , , , , , , 
0.0020769, 0.0097353, 0.054, -0.2900391, 0.054, -0.9707031, 0.054, 0.1396484, 0.0020769, -0.0095674, 0.054, 0.3618164, 0.054, -0.9233398, 0.054, -0.190918, 0.0020769, -0.0035248, 0.054, 0.1147461, 0.054, -1.0004883, 0.054, 0.0224609, 0.0020769, 0.0085603, 0.054, -0.2128906, 0.054, -0.9824219, 0.054, 0.0229492, , , , , , , , , , , , , , , , , , , , , , 
0.0025962, 0.0045319, 0.0675, -0.2880859, 0.0675, -0.9677734, 0.0675, 0.1445312, 0.0025962, -0.0099031, 0.0675, 0.3598633, 0.0675, -0.9228516, 0.0675, -0.190918, 0.0025962, -0.0018463, 0.0675, 0.1186523, 0.0675, -1.0009766, 0.0675, 0.0253906, 0.0025962, 0.0119173, 0.0675, -0.2158203, 0.0675, -0.9794922, 0.0675, 0.0209961, , , , , , , , , , , , , , , , , , , , , , 
0.0031154, 0.0011749, 0.081, -0.2890625, 0.081, -0.9692383, 0.081, 0.1416016, 0.0031154, -0.0075532, 0.081, 0.3613281, 0.081, -0.9199219, 0.081, -0.1918945, 0.0031154, -0.0008392, 0.081, 0.1181641, 0.081, -1.003418, 0.081, 0.0268555, 0.0031154, 0.0154421, 0.081, -0.2182617, 0.081, -0.9790039, 0.081, 0.0224609, , , , , , , , , , , , , , , , , , , , , , 
0.0036346, 0.0011749, 0.0945, -0.2885742, 0.0945, -0.96875, 0.0945, 0.1435547, 0.0036346, -0.005539, 0.0945, 0.3637695, 0.0945, -0.925293, 0.0945, -0.1914062, 0.0036346, -0.0008392, 0.0945, 0.1196289, 0.0945, -1.0048828, 0.0945, 0.0273438, 0.0036346, 0.0196384, 0.0945, -0.2197266, 0.0945, -0.9804688, 0.0945, 0.0214844, , , , , , , , , , , , , , , , , , , , , , 
0.0041538, -0.0008392, 0.108, -0.2871094, 0.108, -0.9667969, 0.108, 0.1459961, 0.0041538, -0.0075532, 0.108, 0.3613281, 0.108, -0.9272461, 0.108, -0.1943359, 0.0041538, -0.0008392, 0.108, 0.1230469, 0.108, -0.9995117, 0.108, 0.0317383, 0.0041538, 0.0243381, 0.108, -0.21875, 0.108, -0.9824219, 0.108, 0.0175781, , , , , , , , , , , , , , , , , , , , , , 
0.0046731, -0.0005035, 0.1215, -0.2890625, 0.1215, -0.96875, 0.1215, 0.144043, 0.0046731, -0.0085603, 0.1215, 0.359375, 0.1215, -0.9248047, 0.1215, -0.1928711, 0.0046731, -0.0010071, 0.1215, 0.1254883, 0.1215, -1, 0.1215, 0.034668, 0.0046731, 0.0305486, 0.1215, -0.2192383, 0.1215, -0.9819336, 0.1215, 0.0180664, , , , , , , , , , , , , , , , , , , , , , 
0.0051923, 0.0005035, 0.135, -0.2866211, 0.135, -0.9677734, 0.135, 0.1450195, 0.0051923, -0.0078889, 0.135, 0.362793, 0.135, -0.9238281, 0.135, -0.1948242, 0.0051923, -0.0008392, 0.135, 0.1210938, 0.135, -1.0009766, 0.135, 0.0341797, 0.0051923, 0.0364233, 0.135, -0.2216797, 0.135, -0.9824219, 0.135, 0.0180664, , , , , , , , , , , , , , , , , , , , , , 
0.0057115, 0.002182, 0.1485, -0.2861328, 0.1485, -0.9667969, 0.1485, 0.1411133, 0.0057115, -0.0077211, 0.1485, 0.3666992, 0.1485, -0.9223633, 0.1485, -0.1894531, 0.0057115, -0.0008392, 0.1485, 0.1171875, 0.1485, -1.0019531, 0.1485, 0.0322266, 0.0057115, 0.0404517, 0.1485, -0.2192383, 0.1485, -0.9765625, 0.1485, 0.015625, , , , , , , , , , , , , , , , , , , , , , 
0.0062308, 0.0035248, 0.162, -0.2885742, 0.162, -0.9682617, 0.162, 0.1401367, 0.0062308, -0.0082246, 0.162, 0.3637695, 0.162, -0.925293, 0.162, -0.1865234, 0.0062308, -0.0015106, 0.162, 0.1098633, 0.162, -1.0019531, 0.162, 0.0249023, 0.0062308, 0.0412909, 0.162, -0.2158203, 0.162, -0.9760742, 0.162, 0.0185547, , , , , , , , , , , , , , , , , , , , , , 
0.00675, 0.0048676, 0.1755, -0.2841797, 0.1755, -0.9702148, 0.1755, 0.140625, 0.00675, -0.0082246, 0.1755, 0.3564453, 0.1755, -0.9262695, 0.1755, -0.1879883, 0.00675, -0.0011749, 0.1755, 0.1171875, 0.1755, -1.0014648, 0.1755, 0.0239258, 0.00675, 0.0387732, 0.1755, -0.2148438, 0.1755, -0.9819336, 0.1755, 0.0234375, , , , , , , , , , , , , , , , , , , , , , 
0.0072692, 0.0048676, 0.189, -0.2851562, 0.189, -0.9697266, 0.189, 0.1386719, 0.0072692, -0.0075532, 0.189, 0.3530273, 0.189, -0.9238281, 0.189, -0.1938477, 0.0072692, -0.0011749, 0.189, 0.1289062, 0.189, -1, 0.189, 0.0297852, 0.0072692, 0.0340734, 0.189, -0.2177734, 0.189, -0.9858398, 0.189, 0.0195312, , , , , , , , , , , , , , , , , , , , , , 
0.0077885, 0.0105745, 0.2025, -0.2944336, 0.2025, -0.9711914, 0.2025, 0.140625, 0.0077885, -0.005539, 0.2025, 0.3544922, 0.2025, -0.9262695, 0.2025, -0.1948242, 0.0077885, -0.002182, 0.2025, 0.1279297, 0.2025, -1.0043945, 0.2025, 0.0307617, 0.0077885, 0.026688, 0.2025, -0.2197266, 0.2025, -0.987793, 0.2025, 0.015625, , , , , , , , , , , , , , , , , , , , , , 
0.0083077, 0.0125887, 0.216, -0.296875, 0.216, -0.96875, 0.216, 0.1386719, 0.0083077, -0.0043641, 0.216, 0.3554688, 0.216, -0.9316406, 0.216, -0.1918945, 0.0083077, -0.0038605, 0.216, 0.1245117, 0.216, -1.0058594, 0.216, 0.0327148, 0.0083077, 0.0206455, 0.216, -0.2216797, 0.216, -0.9833984, 0.216, 0.0180664, , , , , , , , , , , , , , , , , , , , , , 
0.0088269, 0.0119173, 0.2295, -0.2919922, 0.2295, -0.9711914, 0.2295, 0.1391602, 0.0088269, -0.0035248, 0.2295, 0.3579102, 0.2295, -0.9301758, 0.2295, -0.1875, 0.0088269, -0.0058747, 0.2295, 0.1142578, 0.2295, -1.0058594, 0.2295, 0.0322266, 0.0088269, 0.018967, 0.2295, -0.2216797, 0.2295, -0.9824219, 0.2295, 0.0209961, , , , , , , , , , , , , , , , , , , , , , 
0.0093462, 0.0152743, 0.243, -0.2827148, 0.243, -0.9677734, 0.243, 0.1420898, 0.0093462, -0.0041962, 0.243, 0.362793, 0.243, -0.9282227, 0.243, -0.1875, 0.0093462, -0.0058747, 0.243, 0.1171875, 0.243, -1.0039062, 0.243, 0.0288086, 0.0093462, 0.0171206, 0.243, -0.2182617, 0.243, -0.9833984, 0.243, 0.0229492, , , , , , , , , , , , , , , , , , , , , , 
0.0098654, 0.018967, 0.2565, -0.2841797, 0.2565, -0.96875, 0.2565, 0.1401367, 0.0098654, -0.0041962, 0.2565, 0.3666992, 0.2565, -0.9248047, 0.2565, -0.1879883, 0.0098654, -0.0038605, 0.2565, 0.1210938, 0.2565, -1.0039062, 0.2565, 0.0249023, 0.0098654, 0.0135958, 0.2565, -0.2163086, 0.2565, -0.9829102, 0.2565, 0.0244141, , , , , , , , , , , , , , , , , , , , , , 
0.0103846, 0.0186313, 0.27, -0.2871094, 0.27, -0.9633789, 0.27, 0.1367188, 0.0103846, -0.0050355, 0.27, 0.3637695, 0.27, -0.9213867, 0.27, -0.1889648, 0.0103846, -0.0025177, 0.27, 0.1201172, 0.27, -0.9975586, 0.27, 0.0273438, 0.0103846, 0.0109102, 0.27, -0.2182617, 0.27, -0.9814453, 0.27, 0.0263672, , , , , , , , , , , , , , , , , , , , , , 
0.0109038, 0.0179599, 0.2835, -0.2910156, 0.2835, -0.9614258, 0.2835, 0.1401367, 0.0109038, -0.005539, 0.2835, 0.3544922, 0.2835, -0.9208984, 0.2835, -0.1894531, 0.0109038, -0.0038605, 0.2835, 0.1186523, 0.2835, -0.9975586, 0.2835, 0.0283203, 0.0109038, 0.0099031, 0.2835, -0.2192383, 0.2835, -0.9770508, 0.2835, 0.0180664, , , , , , , , , , , , , , , , , , , , , , 
0.0114231, 0.0196384, 0.297, -0.2963867, 0.297, -0.9614258, 0.297, 0.1367188, 0.0114231, -0.005539, 0.297, 0.3510742, 0.297, -0.9228516, 0.297, -0.1884766, 0.0114231, -0.0048676, 0.297, 0.1147461, 0.297, -0.9975586, 0.297, 0.0332031, 0.0114231, 0.0092317, 0.297, -0.2246094, 0.297, -0.9765625, 0.297, 0.0209961, , , , , , , , , , , , , , , , , , , , , , 
0.0119423, 0.0229953, 0.3105, -0.2919922, 0.3105, -0.9663086, 0.3105, 0.1357422, 0.0119423, -0.005539, 0.3105, 0.3515625, 0.3105, -0.9233398, 0.3105, -0.1884766, 0.0119423, -0.0062104, 0.3105, 0.1123047, 0.3105, -0.9995117, 0.3105, 0.0341797, 0.0119423, 0.0082246, 0.3105, -0.2294922, 0.3105, -0.9755859, 0.3105, 0.0205078, , , , , , , , , , , , , , , , , , , , , , 
0.0124615, 0.0246738, 0.324, -0.2880859, 0.324, -0.9667969, 0.324, 0.1396484, 0.0124615, -0.0062104, 0.324, 0.3554688, 0.324, -0.9238281, 0.324, -0.190918, 0.0124615, -0.0082246, 0.324, 0.1118164, 0.324, -1.0029297, 0.324, 0.0288086, 0.0124615, 0.0068818, 0.324, -0.2236328, 0.324, -0.9760742, 0.324, 0.019043, , , , , , , , , , , , , , , , , , , , , , 
0.0129808, 0.0246738, 0.3375, -0.2856445, 0.3375, -0.9614258, 0.3375, 0.1367188, 0.0129808, -0.0070497, 0.3375, 0.359375, 0.3375, -0.9228516, 0.3375, -0.1875, 0.0129808, -0.0119173, 0.3375, 0.1210938, 0.3375, -0.9956055, 0.3375, 0.0292969, 0.0129808, 0.0057069, 0.3375, -0.2104492, 0.3375, -0.9755859, 0.3375, 0.0166016, , , , , , , , , , , , , , , , , , , , , , 
0.0135, 0.0203098, 0.351, -0.2822266, 0.351, -0.9594727, 0.351, 0.1391602, 0.0135, -0.0068818, 0.351, 0.362793, 0.351, -0.9194336, 0.351, -0.1875, 0.0135, -0.0112459, 0.351, 0.1230469, 0.351, -0.9931641, 0.351, 0.0283203, 0.0135, 0.0036927, 0.351, -0.2099609, 0.351, -0.9760742, 0.351, 0.0161133, , , , , , , , , , , , , , , , , , , , , , 
0.0140192, 0.0176242, 0.3645, -0.2822266, 0.3645, -0.9624023, 0.3645, 0.1391602, 0.0140192, -0.0078889, 0.3645, 0.3637695, 0.3645, -0.9194336, 0.3645, -0.1875, 0.0140192, -0.008896, 0.3645, 0.1254883, 0.3645, -0.9960938, 0.3645, 0.0268555, 0.0140192, 0.0025177, 0.3645, -0.2158203, 0.3645, -0.9794922, 0.3645, 0.0166016, , , , , , , , , , , , , , , , , , , , , , 
0.0145385, 0.017792, 0.378, -0.2910156, 0.378, -0.9677734, 0.378, 0.1376953, 0.0145385, -0.0095674, 0.378, 0.3608398, 0.378, -0.9296875, 0.378, -0.1870117, 0.0145385, -0.0075532, 0.378, 0.1264648, 0.378, -1.0063477, 0.378, 0.0273438, 0.0145385, 0.0038605, 0.378, -0.2182617, 0.378, -0.984375, 0.378, 0.0200195, , , , , , , , , , , , , , , , , , , , , , 
0.0150577, 0.0186313, 0.3915, -0.2978516, 0.3915, -0.9736328, 0.3915, 0.1342773, 0.0150577, -0.0090639, 0.3915, 0.3588867, 0.3915, -0.9331055, 0.3915, -0.1855469, 0.0150577, -0.0085603, 0.3915, 0.1142578, 0.3915, -1.0083008, 0.3915, 0.0288086, 0.0150577, 0.0072175, 0.3915, -0.2163086, 0.3915, -0.9829102, 0.3915, 0.0200195, , , , , , , , , , , , , , , , , , , , , , 
0.0155769, 0.0191348, 0.405, -0.2924805, 0.405, -0.9746094, 0.405, 0.1347656, 0.0155769, -0.0082246, 0.405, 0.3544922, 0.405, -0.9326172, 0.405, -0.1821289, 0.0155769, -0.0105745, 0.405, 0.1118164, 0.405, -1.0078125, 0.405, 0.0307617, 0.0155769, 0.0105745, 0.405, -0.2158203, 0.405, -0.984375, 0.405, 0.0205078, , , , , , , , , , , , , , , , , , , , , , 
0.0160962, 0.0176242, 0.4185, -0.2900391, 0.4185, -0.9697266, 0.4185, 0.1381836, 0.0160962, -0.0102388, 0.4185, 0.3549805, 0.4185, -0.9306641, 0.4185, -0.1894531, 0.0160962, -0.0135958, 0.4185, 0.1210938, 0.4185, -1.0058594, 0.4185, 0.0263672, 0.0160962, 0.0112459, 0.4185, -0.2138672, 0.4185, -0.9858398, 0.4185, 0.0166016, , , , , , , , , , , , , , , , , , , , , , 
0.0166154, 0.0193027, 0.432, -0.2875977, 0.432, -0.9677734, 0.432, 0.1391602, 0.0166154, -0.0125887, 0.432, 0.3569336, 0.432, -0.9272461, 0.432, -0.190918, 0.0166154, -0.0151064, 0.432, 0.1210938, 0.432, -1.0024414, 0.432, 0.0244141, 0.0166154, 0.0099031, 0.432, -0.2182617, 0.432, -0.9819336, 0.432, 0.0195312, , , , , , , , , , , , , , , , , , , , , , 
0.0171346, 0.0256809, 0.4455, -0.2885742, 0.4455, -0.9677734, 0.4455, 0.1376953, 0.0171346, -0.012253, 0.4455, 0.3579102, 0.4455, -0.9262695, 0.4455, -0.190918, 0.0171346, -0.01561, 0.4455, 0.1186523, 0.4455, -1.0014648, 0.4455, 0.0234375, 0.0171346, 0.0038605, 0.4455, -0.2202148, 0.4455, -0.980957, 0.4455, 0.0214844, , , , , , , , , , , , , , , , , , , , , , 
0.0176538, 0.027863, 0.459, -0.2875977, 0.459, -0.9697266, 0.459, 0.1386719, 0.0176538, -0.0092317, 0.459, 0.3583984, 0.459, -0.9282227, 0.459, -0.1889648, 0.0176538, -0.01561, 0.459, 0.1152344, 0.459, -1.0019531, 0.459, 0.0214844, 0.0176538, -0.005539, 0.459, -0.2158203, 0.459, -0.9814453, 0.459, 0.0209961, , , , , , , , , , , , , , , , , , , , , , 
0.0181731, 0.023331, 0.4725, -0.2880859, 0.4725, -0.9711914, 0.4725, 0.1386719, 0.0181731, -0.0072175, 0.4725, 0.3583984, 0.4725, -0.9262695, 0.4725, -0.1855469, 0.0181731, -0.0146029, 0.4725, 0.1142578, 0.4725, -1.0024414, 0.4725, 0.0205078, 0.0181731, -0.0102388, 0.4725, -0.2094727, 0.4725, -0.9790039, 0.4725, 0.0209961, , , , , , , , , , , , , , , , , , , , , , 
0.0186923, 0.0169528, 0.486, -0.2895508, 0.486, -0.9682617, 0.486, 0.1367188, 0.0186923, -0.0075532, 0.486, 0.3608398, 0.486, -0.9238281, 0.486, -0.1865234, 0.0186923, -0.0132601, 0.486, 0.1152344, 0.486, -1.0019531, 0.486, 0.0200195, 0.0186923, -0.0125887, 0.486, -0.2060547, 0.486, -0.9829102, 0.486, 0.0166016, , , , , , , , , , , , , , , , , , , , , , 
0.0192115, 0.0151064, 0.4995, -0.296875, 0.4995, -0.9697266, 0.4995, 0.1357422, 0.0192115, -0.0085603, 0.4995, 0.3642578, 0.4995, -0.9238281, 0.4995, -0.1850586, 0.0192115, -0.0135958, 0.4995, 0.1181641, 0.4995, -1.0073242, 0.4995, 0.0195312, 0.0192115, -0.0142672, 0.4995, -0.2001953, 0.4995, -0.9838867, 0.4995, 0.0131836, , , , , , , , , , , , , , , , , , , , , , 
0.0197308, 0.0194705, 0.513, -0.2939453, 0.513, -0.9731445, 0.513, 0.1376953, 0.0197308, -0.0085603, 0.513, 0.3637695, 0.513, -0.9311523, 0.513, -0.1875, 0.0197308, -0.0135958, 0.513, 0.1166992, 0.513, -1.0087891, 0.513, 0.0229492, 0.0197308, -0.0146029, 0.513, -0.2080078, 0.513, -0.9858398, 0.513, 0.0141602, , , , , , , , , , , , , , , , , , , , , , 
0.02025, 0.0226596, 0.5265, -0.2910156, 0.5265, -0.9702148, 0.5265, 0.140625, 0.02025, -0.0082246, 0.5265, 0.3554688, 0.5265, -0.9287109, 0.5265, -0.1914062, 0.02025, -0.0127565, 0.5265, 0.1186523, 0.5265, -1.0043945, 0.5265, 0.0283203, 0.02025, -0.0132601, 0.5265, -0.2128906, 0.5265, -0.9853516, 0.5265, 0.0136719, , , , , , , , , , , , , , , , , , , , , , 
0.0207692, 0.0256809, 0.54, -0.2900391, 0.54, -0.9716797, 0.54, 0.140625, 0.0207692, -0.005539, 0.54, 0.3613281, 0.54, -0.9243164, 0.54, -0.1933594, 0.0207692, -0.012253, 0.54, 0.1210938, 0.54, -1.0029297, 0.54, 0.0322266, 0.0207692, -0.0092317, 0.54, -0.2182617, 0.54, -0.9824219, 0.54, 0.015625, , , , , , , , , , , , , , , , , , , , , , 
0.0212885, 0.0246738, 0.5535, -0.2856445, 0.5535, -0.9736328, 0.5535, 0.1420898, 0.0212885, -0.0052033, 0.5535, 0.3681641, 0.5535, -0.9267578, 0.5535, -0.1894531, 0.0212885, -0.0119173, 0.5535, 0.1191406, 0.5535, -1.0053711, 0.5535, 0.0302734, 0.0212885, -0.0028534, 0.5535, -0.2207031, 0.5535, -0.9814453, 0.5535, 0.0170898, , , , , , , , , , , , , , , , , , , , , , 
0.0218077, 0.0172885, 0.567, -0.2856445, 0.567, -0.972168, 0.567, 0.1386719, 0.0218077, -0.0058747, 0.567, 0.3632812, 0.567, -0.9267578, 0.567, -0.1879883, 0.0218077, -0.0129244, 0.567, 0.1118164, 0.567, -1.0058594, 0.567, 0.0219727, 0.0218077, 0.0043641, 0.567, -0.2148438, 0.567, -0.9794922, 0.567, 0.0151367, , , , , , , , , , , , , , , , , , , , , , 
0.0223269, 0.0119173, 0.5805, -0.2841797, 0.5805, -0.9711914, 0.5805, 0.1386719, 0.0223269, -0.0068818, 0.5805, 0.3613281, 0.5805, -0.9262695, 0.5805, -0.1884766, 0.0223269, -0.012253, 0.5805, 0.1162109, 0.5805, -1.0019531, 0.5805, 0.0249023, 0.0223269, 0.0105745, 0.5805, -0.2114258, 0.5805, -0.9829102, 0.5805, 0.0224609, , , , , , , , , , , , , , , , , , , , , , 
0.0228462, 0.0092317, 0.594, -0.2841797, 0.594, -0.9707031, 0.594, 0.1445312, 0.0228462, -0.0082246, 0.594, 0.355957, 0.594, -0.9277344, 0.594, -0.1933594, 0.0228462, -0.0095674, 0.594, 0.1274414, 0.594, -1.003418, 0.594, 0.0288086, 0.0228462, 0.0166171, 0.594, -0.2099609, 0.594, -0.9882812, 0.594, 0.0209961, , , , , , , , , , , , , , , , , , , , , , 
0.0233654, 0.0078889, 0.6075, -0.2944336, 0.6075, -0.9692383, 0.6075, 0.1411133, 0.0233654, -0.0068818, 0.6075, 0.3564453, 0.6075, -0.9257812, 0.6075, -0.1962891, 0.0233654, -0.0087282, 0.6075, 0.1230469, 0.6075, -1.0029297, 0.6075, 0.0332031, 0.0233654, 0.0240024, 0.6075, -0.2124023, 0.6075, -0.9863281, 0.6075, 0.0151367, , , , , , , , , , , , , , , , , , , , , , 
0.0238846, 0.0078889, 0.621, -0.296875, 0.621, -0.9672852, 0.621, 0.1401367, 0.0238846, -0.006714, 0.621, 0.355957, 0.621, -0.9277344, 0.621, -0.1933594, 0.0238846, -0.0087282, 0.621, 0.1206055, 0.621, -1.0058594, 0.621, 0.0366211, 0.0238846, 0.0303807, 0.621, -0.2226562, 0.621, -0.9824219, 0.621, 0.019043, , , , , , , , , , , , , , , , , , , , , , 
0.0244038, 0.0062104, 0.6345, -0.2880859, 0.6345, -0.9672852, 0.6345, 0.144043, 0.0244038, -0.0068818, 0.6345, 0.3574219, 0.6345, -0.9243164, 0.6345, -0.1938477, 0.0244038, -0.0082246, 0.6345, 0.1142578, 0.6345, -1.0019531, 0.6345, 0.0375977, 0.0244038, 0.0344091, 0.6345, -0.2314453, 0.6345, -0.9785156, 0.6345, 0.0234375, , , , , , , , , , , , , , , , , , , , , , 
0.0249231, 0.0011749, 0.648, -0.2827148, 0.648, -0.9663086, 0.648, 0.1455078, 0.0249231, -0.0062104, 0.648, 0.359375, 0.648, -0.9213867, 0.648, -0.1918945, 0.0249231, -0.0072175, 0.648, 0.1166992, 0.648, -0.9990234, 0.648, 0.0366211, 0.0249231, 0.0387732, 0.648, -0.2333984, 0.648, -0.9746094, 0.648, 0.0263672, , , , , , , , , , , , , , , , , , , , , , 
0.0254423, -0.0025177, 0.6615, -0.2822266, 0.6615, -0.956543, 0.6615, 0.1538086, 0.0254423, -0.0062104, 0.6615, 0.3647461, 0.6615, -0.918457, 0.6615, -0.1967773, 0.0254423, -0.0072175, 0.6615, 0.1210938, 0.6615, -0.9916992, 0.6615, 0.0380859, 0.0254423, 0.0421302, 0.6615, -0.2280273, 0.6615, -0.9697266, 0.6615, 0.0268555, , , , , , , , , , , , , , , , , , , , , , 
0.0259615, -0.0028534, 0.675, -0.2875977, 0.675, -0.9428711, 0.675, 0.1621094, 0.0259615, -0.0075532, 0.675, 0.3652344, 0.675, -0.9082031, 0.675, -0.2084961, 0.0259615, -0.008896, 0.675, 0.1210938, 0.675, -0.980957, 0.675, 0.0371094, 0.0259615, 0.0461585, 0.675, -0.2241211, 0.675, -0.9648438, 0.675, 0.0292969, , , , , , , , , , , , , , , , , , , , , , 
0.0264808, -0.0045319, 0.6885, -0.2890625, 0.6885, -0.9404297, 0.6885, 0.1679688, 0.0264808, -0.0075532, 0.6885, 0.3662109, 0.6885, -0.890625, 0.6885, -0.2172852, 0.0264808, -0.0095674, 0.6885, 0.1240234, 0.6885, -0.9765625, 0.6885, 0.0410156, 0.0264808, 0.0495155, 0.6885, -0.2299805, 0.6885, -0.9648438, 0.6885, 0.0341797, , , , , , , , , , , , , , , , , , , , , , 
0.027, -0.0031891, 0.702, -0.2895508, 0.702, -0.9448242, 0.702, 0.1704102, 0.027, -0.0058747, 0.702, 0.3608398, 0.702, -0.8935547, 0.702, -0.2211914, 0.027, -0.0085603, 0.702, 0.1333008, 0.702, -0.984375, 0.702, 0.0595703, 0.027, 0.0471656, 0.702, -0.2387695, 0.702, -0.9643555, 0.702, 0.0366211, , , , , , , , , , , , , , , , , , , , , , 
0.0275192, -0.0001678, 0.7155, -0.2988281, 0.7155, -0.9443359, 0.7155, 0.1743164, 0.0275192, -0.005539, 0.7155, 0.3623047, 0.7155, -0.9018555, 0.7155, -0.215332, 0.0275192, -0.0090639, 0.7155, 0.1381836, 0.7155, -0.9873047, 0.7155, 0.0727539, 0.0275192, 0.0419623, 0.7155, -0.253418, 0.7155, -0.9594727, 0.7155, 0.0400391, , , , , , , , , , , , , , , , , , , , , , 
0.0280385, 0.0023499, 0.729, -0.3120117, 0.729, -0.9418945, 0.729, 0.1748047, 0.0280385, -0.0075532, 0.729, 0.3696289, 0.729, -0.9018555, 0.729, -0.2089844, 0.0280385, -0.0082246, 0.729, 0.1313477, 0.729, -0.9868164, 0.729, 0.0776367, 0.0280385, 0.0352483, 0.729, -0.2661133, 0.729, -0.9584961, 0.729, 0.0405273, , , , , , , , , , , , , , , , , , , , , , 
0.0285577, 0.0015106, 0.7425, -0.3041992, 0.7425, -0.9345703, 0.7425, 0.1831055, 0.0285577, -0.0099031, 0.7425, 0.3837891, 0.7425, -0.8925781, 0.7425, -0.206543, 0.0285577, -0.0072175, 0.7425, 0.125, 0.7425, -0.9765625, 0.7425, 0.0771484, 0.0285577, 0.0297093, 0.7425, -0.2680664, 0.7425, -0.9541016, 0.7425, 0.043457, , , , , , , , , , , , , , , , , , , , , , 
0.0290769, -0.0016785, 0.756, -0.2924805, 0.756, -0.9272461, 0.756, 0.1923828, 0.0290769, -0.0095674, 0.756, 0.4101562, 0.756, -0.878418, 0.756, -0.2133789, 0.0290769, -0.0078889, 0.756, 0.1210938, 0.756, -0.9711914, 0.756, 0.0786133, 0.0290769, 0.0263523, 0.756, -0.2739258, 0.756, -0.949707, 0.756, 0.0458984, , , , , , , , , , , , , , , , , , , , , , 
0.0295962, -0.002182, 0.7695, -0.2983398, 0.7695, -0.9267578, 0.7695, 0.1987305, 0.0295962, -0.0082246, 0.7695, 0.4262695, 0.7695, -0.8759766, 0.7695, -0.2119141, 0.0295962, -0.0085603, 0.7695, 0.1245117, 0.7695, -0.9711914, 0.7695, 0.0859375, 0.0295962, 0.0236667, 0.7695, -0.2836914, 0.7695, -0.9501953, 0.7695, 0.0429688, , , , , , , , , , , , , , , , , , , , , , 
0.0301154, 0.0028534, 0.783, -0.3051758, 0.783, -0.9360352, 0.783, 0.1933594, 0.0301154, -0.0075532, 0.783, 0.4238281, 0.783, -0.8857422, 0.783, -0.2084961, 0.0301154, -0.008896, 0.783, 0.1264648, 0.783, -0.9775391, 0.783, 0.0991211, 0.0301154, 0.0199741, 0.783, -0.2900391, 0.783, -0.9467773, 0.783, 0.0400391, , , , , , , , , , , , , , , , , , , , , , 
0.0306346, 0.0075532, 0.7965, -0.3012695, 0.7965, -0.9301758, 0.7965, 0.1958008, 0.0306346, -0.0075532, 0.7965, 0.4111328, 0.7965, -0.8828125, 0.7965, -0.2060547, 0.0306346, -0.0102388, 0.7965, 0.1201172, 0.7965, -0.972168, 0.7965, 0.1020508, 0.0306346, 0.017792, 0.7965, -0.293457, 0.7965, -0.9399414, 0.7965, 0.0415039, , , , , , , , , , , , , , , , , , , , , , 
0.0311538, 0.0052033, 0.81, -0.2988281, 0.81, -0.9208984, 0.81, 0.1962891, 0.0311538, -0.0072175, 0.81, 0.4047852, 0.81, -0.8735352, 0.81, -0.2075195, 0.0311538, -0.0105745, 0.81, 0.1225586, 0.81, -0.9628906, 0.81, 0.1025391, 0.0311538, 0.0152743, 0.81, -0.2910156, 0.81, -0.9350586, 0.81, 0.0463867, , , , , , , , , , , , , , , , , , , , , , 
0.0316731, 0.0025177, 0.8235, -0.2978516, 0.8235, -0.9121094, 0.8235, 0.1948242, 0.0316731, -0.0085603, 0.8235, 0.4033203, 0.8235, -0.8623047, 0.8235, -0.2128906, 0.0316731, -0.0095674, 0.8235, 0.1313477, 0.8235, -0.9550781, 0.8235, 0.0991211, 0.0316731, 0.012253, 0.8235, -0.28125, 0.8235, -0.9311523, 0.8235, 0.0493164, , , , , , , , , , , , , , , , , , , , , , 
0.0321923, 0.0078889, 0.837, -0.2973633, 0.837, -0.9018555, 0.837, 0.1928711, 0.0321923, -0.0102388, 0.837, 0.4003906, 0.837, -0.8603516, 0.837, -0.2133789, 0.0321923, -0.0075532, 0.837, 0.1469727, 0.837, -0.9482422, 0.837, 0.1030273, 0.0321923, 0.0095674, 0.837, -0.2768555, 0.837, -0.9223633, 0.837, 0.0493164, , , , , , , , , , , , , , , , , , , , , , 
0.0327115, 0.0159457, 0.8505, -0.3051758, 0.8505, -0.8886719, 0.8505, 0.1938477, 0.0327115, -0.0115816, 0.8505, 0.3950195, 0.8505, -0.8549805, 0.8505, -0.2094727, 0.0327115, -0.0065461, 0.8505, 0.1445312, 0.8505, -0.9453125, 0.8505, 0.1132812, 0.0327115, 0.0095674, 0.8505, -0.2758789, 0.8505, -0.909668, 0.8505, 0.0507812, , , , , , , , , , , , , , , , , , , , , , 
0.0332308, 0.0253452, 0.864, -0.309082, 0.864, -0.8818359, 0.864, 0.1933594, 0.0332308, -0.0125887, 0.864, 0.3896484, 0.864, -0.8427734, 0.864, -0.2006836, 0.0332308, -0.0068818, 0.864, 0.1376953, 0.864, -0.9189453, 0.864, 0.1166992, 0.0332308, 0.0102388, 0.864, -0.2763672, 0.864, -0.9038086, 0.864, 0.0541992, , , , , , , , , , , , , , , , , , , , , , 
0.03375, 0.030045, 0.8775, -0.2905273, 0.8775, -0.8759766, 0.8775, 0.1894531, 0.03375, -0.0129244, 0.8775, 0.3901367, 0.8775, -0.8339844, 0.8775, -0.2099609, 0.03375, -0.0073854, 0.8775, 0.137207, 0.8775, -0.9086914, 0.8775, 0.1181641, 0.03375, 0.0104067, 0.8775, -0.2880859, 0.8775, -0.8979492, 0.8775, 0.0585938, , , , , , , , , , , , , , , , , , , , , , 
0.0342692, 0.0337377, 0.891, -0.2558594, 0.891, -0.8730469, 0.891, 0.1875, 0.0342692, -0.0124208, 0.891, 0.390625, 0.891, -0.8242188, 0.891, -0.2080078, 0.0342692, -0.008896, 0.891, 0.1396484, 0.891, -0.8979492, 0.891, 0.1137695, 0.0342692, 0.0099031, 0.891, -0.2998047, 0.891, -0.8867188, 0.891, 0.0522461, , , , , , , , , , , , , , , , , , , , , , 
0.0347885, 0.0433051, 0.9045, -0.2490234, 0.9045, -0.8623047, 0.9045, 0.1772461, 0.0347885, -0.012253, 0.9045, 0.4130859, 0.9045, -0.8154297, 0.9045, -0.1816406, 0.0347885, -0.0085603, 0.9045, 0.1469727, 0.9045, -0.8930664, 0.9045, 0.112793, 0.0347885, 0.0078889, 0.9045, -0.2983398, 0.9045, -0.8793945, 0.9045, 0.0444336, , , , , , , , , , , , , , , , , , , , , , 
0.0353077, 0.0454871, 0.918, -0.2753906, 0.918, -0.8486328, 0.918, 0.1650391, 0.0353077, -0.0129244, 0.918, 0.4208984, 0.918, -0.8110352, 0.918, -0.1547852, 0.0353077, -0.0078889, 0.918, 0.1337891, 0.918, -0.894043, 0.918, 0.1196289, 0.0353077, 0.0072175, 0.918, -0.2851562, 0.918, -0.8623047, 0.918, 0.0424805, , , , , , , , , , , , , , , , , , , , , , 
0.0358269, 0.0394446, 0.9315, -0.2944336, 0.9315, -0.8261719, 0.9315, 0.1567383, 0.0358269, -0.0125887, 0.9315, 0.3911133, 0.9315, -0.7954102, 0.9315, -0.1577148, 0.0358269, -0.0099031, 0.9315, 0.1152344, 0.9315, -0.8793945, 0.9315, 0.1259766, 0.0358269, 0.0092317, 0.9315, -0.2817383, 0.9315, -0.8476562, 0.9315, 0.0429688, , , , , , , , , , , , , , , , , , , , , , 
0.0363462, 0.0310521, 0.945, -0.277832, 0.945, -0.8110352, 0.945, 0.1591797, 0.0363462, -0.0102388, 0.945, 0.3623047, 0.945, -0.7744141, 0.945, -0.1821289, 0.0363462, -0.0115816, 0.945, 0.1196289, 0.945, -0.8554688, 0.945, 0.1269531, 0.0363462, 0.0082246, 0.945, -0.2807617, 0.945, -0.8291016, 0.945, 0.0429688, , , , , , , , , , , , , , , , , , , , , , 
0.0368654, 0.0246738, 0.9585, -0.2519531, 0.9585, -0.7958984, 0.9585, 0.1640625, 0.0368654, -0.0078889, 0.9585, 0.3564453, 0.9585, -0.762207, 0.9585, -0.1879883, 0.0368654, -0.0115816, 0.9585, 0.1293945, 0.9585, -0.8212891, 0.9585, 0.1162109, 0.0368654, 0.0031891, 0.9585, -0.2802734, 0.9585, -0.8110352, 0.9585, 0.0424805, , , , , , , , , , , , , , , , , , , , , , 
0.0373846, 0.0213169, 0.972, -0.2324219, 0.972, -0.7675781, 0.972, 0.1518555, 0.0373846, -0.0068818, 0.972, 0.355957, 0.972, -0.737793, 0.972, -0.1816406, 0.0373846, -0.0117494, 0.972, 0.1274414, 0.972, -0.7919922, 0.972, 0.1083984, 0.0373846, -0.0028534, 0.972, -0.2709961, 0.972, -0.7827148, 0.972, 0.0424805, , , , , , , , , , , , , , , , , , , , , , 
0.0379038, 0.0193027, 0.9855, -0.2167969, 0.9855, -0.7353516, 0.9855, 0.1386719, 0.0379038, -0.0072175, 0.9855, 0.347168, 0.9855, -0.7099609, 0.9855, -0.1635742, 0.0379038, -0.0142672, 0.9855, 0.1264648, 0.9855, -0.7592773, 0.9855, 0.1015625, 0.0379038, -0.0105745, 0.9855, -0.2583008, 0.9855, -0.75, 0.9855, 0.0424805, , , , , , , , , , , , , , , , , , , , , , 
0.0384231, 0.0199741, 0.999, -0.2216797, 0.999, -0.7104492, 0.999, 0.1235352, 0.0384231, -0.0078889, 0.999, 0.3188477, 0.999, -0.6855469, 0.999, -0.1567383, 0.0384231, -0.0162814, 0.999, 0.1318359, 0.999, -0.7236328, 0.999, 0.09375, 0.0384231, -0.0142672, 0.999, -0.2460938, 0.999, -0.7241211, 0.999, 0.050293, , , , , , , , , , , , , , , , , , , , , , 
0.0389423, 0.0216526, 1.0125, -0.2299805, 1.0125, -0.675293, 1.0125, 0.1123047, 0.0389423, -0.008896, 1.0125, 0.2910156, 1.0125, -0.6645508, 1.0125, -0.1508789, 0.0389423, -0.0196384, 1.0125, 0.1328125, 1.0125, -0.7075195, 1.0125, 0.0893555, 0.0389423, -0.0149386, 1.0125, -0.2387695, 1.0125, -0.7109375, 1.0125, 0.0532227, , , , , , , , , , , , , , , , , , , , , , 
0.0394615, 0.0193027, 1.026, -0.234375, 1.026, -0.6425781, 1.026, 0.1049805, 0.0394615, -0.008896, 1.026, 0.2773438, 1.026, -0.6308594, 1.026, -0.1464844, 0.0394615, -0.0179599, 1.026, 0.1210938, 1.026, -0.6791992, 1.026, 0.078125, 0.0394615, -0.0149386, 1.026, -0.2294922, 1.026, -0.6806641, 1.026, 0.0527344, , , , , , , , , , , , , , , , , , , , , , 
0.0399808, 0.0203098, 1.0395, -0.234375, 1.0395, -0.6337891, 1.0395, 0.0991211, 0.0399808, -0.0085603, 1.0395, 0.2568359, 1.0395, -0.6000977, 1.0395, -0.1474609, 0.0399808, -0.0151064, 1.0395, 0.1000977, 1.0395, -0.6518555, 1.0395, 0.0620117, 0.0399808, -0.0119173, 1.0395, -0.2211914, 1.0395, -0.6518555, 1.0395, 0.0385742, , , , , , , , , , , , , , , , , , , , , , 
0.0405, 0.0203098, 1.053, -0.2099609, 1.053, -0.6132812, 1.053, 0.0849609, 0.0405, -0.0075532, 1.053, 0.2509766, 1.053, -0.5703125, 1.053, -0.1430664, 0.0405, -0.0135958, 1.053, 0.0805664, 1.053, -0.6313477, 1.053, 0.0507812, 0.0405, -0.0070497, 1.053, -0.2158203, 1.053, -0.6279297, 1.053, 0.0292969, , , , , , , , , , , , , , , , , , , , , , 
0.0410192, 0.0159457, 1.0665, -0.1811523, 1.0665, -0.5952148, 1.0665, 0.074707, 0.0410192, -0.0068818, 1.0665, 0.2573242, 1.0665, -0.5507812, 1.0665, -0.1142578, 0.0410192, -0.012253, 1.0665, 0.0668945, 1.0665, -0.6064453, 1.0665, 0.0307617, 0.0410192, -0.0001678, 1.0665, -0.1982422, 1.0665, -0.6020508, 1.0665, 0.0249023, , , , , , , , , , , , , , , , , , , , , , 
0.0415385, 0.0132601, 1.08, -0.1796875, 1.08, -0.5776367, 1.08, 0.0639648, 0.0415385, -0.0060426, 1.08, 0.2553711, 1.08, -0.5458984, 1.08, -0.1015625, 0.0415385, -0.0109102, 1.08, 0.0517578, 1.08, -0.5957031, 1.08, 0.0097656, 0.0415385, 0.0068818, 1.08, -0.1640625, 1.08, -0.5756836, 1.08, 0.0126953, , , , , , , , , , , , , , , , , , , , , , 
0.0420577, 0.0152743, 1.0935, -0.2084961, 1.0935, -0.5644531, 1.0935, 0.0483398, 0.0420577, -0.0068818, 1.0935, 0.2299805, 1.0935, -0.5458984, 1.0935, -0.0942383, 0.0420577, -0.0102388, 1.0935, 0.050293, 1.0935, -0.5966797, 1.0935, -0.0058594, 0.0420577, 0.0092317, 1.0935, -0.1264648, 1.0935, -0.5688477, 1.0935, 0, , , , , , , , , , , , , , , , , , , , , , 
0.0425769, 0.0193027, 1.107, -0.2416992, 1.107, -0.565918, 1.107, 0.0317383, 0.0425769, -0.0085603, 1.107, 0.2026367, 1.107, -0.546875, 1.107, -0.0966797, 0.0425769, -0.0095674, 1.107, 0.065918, 1.107, -0.6088867, 1.107, -0.0068359, 0.0425769, 0.0105745, 1.107, -0.1010742, 1.107, -0.5810547, 1.107, -0.0180664, , , , , , , , , , , , , , , , , , , , , , 
0.0430962, 0.0219883, 1.1205, -0.2568359, 1.1205, -0.5825195, 1.1205, 0.0224609, 0.0430962, -0.0102388, 1.1205, 0.190918, 1.1205, -0.5522461, 1.1205, -0.0898438, 0.0430962, -0.008896, 1.1205, 0.0776367, 1.1205, -0.6391602, 1.1205, 0.0004883, 0.0430962, 0.017792, 1.1205, -0.0869141, 1.1205, -0.6142578, 1.1205, -0.0292969, , , , , , , , , , , , , , , , , , , , , , 
0.0436154, 0.0193027, 1.134, -0.2583008, 1.134, -0.6137695, 1.134, 0.0170898, 0.0436154, -0.0099031, 1.134, 0.2050781, 1.134, -0.574707, 1.134, -0.081543, 0.0436154, -0.0075532, 1.134, 0.0742188, 1.134, -0.6694336, 1.134, -0.0063477, 0.0436154, 0.026688, 1.134, -0.0732422, 1.134, -0.6396484, 1.134, -0.0410156, , , , , , , , , , , , , , , , , , , , , , 
0.0441346, 0.0139315, 1.1475, -0.2250977, 1.1475, -0.6484375, 1.1475, 0.0136719, 0.0441346, -0.0082246, 1.1475, 0.2202148, 1.1475, -0.6049805, 1.1475, -0.0751953, 0.0441346, -0.0048676, 1.1475, 0.0683594, 1.1475, -0.6816406, 1.1475, -0.0175781, 0.0441346, 0.0327306, 1.1475, -0.0561523, 1.1475, -0.6513672, 1.1475, -0.0561523, , , , , , , , , , , , , , , , , , , , , , 
0.0446538, 0.0082246, 1.161, -0.1855469, 1.161, -0.6767578, 1.161, 0.0092773, 0.0446538, -0.0077211, 1.161, 0.2416992, 1.161, -0.6323242, 1.161, -0.0717773, 0.0446538, -0.0031891, 1.161, 0.0585938, 1.161, -0.6972656, 1.161, -0.0454102, 0.0446538, 0.0357519, 1.161, -0.019043, 1.161, -0.6665039, 1.161, -0.0610352, , , , , , , , , , , , , , , , , , , , , , 
0.0451731, 0.0052033, 1.1745, -0.1914062, 1.1745, -0.7011719, 1.1745, 0.0180664, 0.0451731, -0.0078889, 1.1745, 0.2587891, 1.1745, -0.65625, 1.1745, -0.0625, 0.0451731, -0.0045319, 1.1745, 0.0678711, 1.1745, -0.6992188, 1.1745, -0.0791016, 0.0451731, 0.0406195, 1.1745, 0.0029297, 1.1745, -0.6777344, 1.1745, -0.0634766, , , , , , , , , , , , , , , , , , , , , , 
0.0456923, 0.0058747, 1.188, -0.2172852, 1.188, -0.7163086, 1.188, 0.0087891, 0.0456923, -0.0075532, 1.188, 0.2602539, 1.188, -0.6767578, 1.188, -0.065918, 0.0456923, -0.0045319, 1.188, 0.0776367, 1.188, -0.7158203, 1.188, -0.1015625, 0.0456923, 0.04448, 1.188, 0.050293, 1.188, -0.7099609, 1.188, -0.0644531, , , , , , , , , , , , , , , , , , , , , , 
0.0462115, 0.0050355, 1.2015, -0.2202148, 1.2015, -0.7177734, 1.2015, -0.0102539, 0.0462115, -0.0058747, 1.2015, 0.2514648, 1.2015, -0.6801758, 1.2015, -0.0703125, 0.0462115, -0.0031891, 1.2015, 0.0712891, 1.2015, -0.7314453, 1.2015, -0.1171875, 0.0462115, 0.0454871, 1.2015, 0.0683594, 1.2015, -0.7241211, 1.2015, -0.0551758, , , , , , , , , , , , , , , , , , , , , , 
0.0467308, 0.0025177, 1.215, -0.2021484, 1.215, -0.7167969, 1.215, -0.0141602, 0.0467308, -0.0045319, 1.215, 0.2016602, 1.215, -0.675293, 1.215, -0.0952148, 0.0467308, -0.0016785, 1.215, 0.0561523, 1.215, -0.7172852, 1.215, -0.1313477, 0.0467308, 0.0426337, 1.215, 0.0581055, 1.215, -0.7055664, 1.215, -0.046875, , , , , , , , , , , , , , , , , , , , , , 
0.04725, 0.0041962, 1.2285, -0.1630859, 1.2285, -0.7163086, 1.2285, -0.003418, 0.04725, -0.0041962, 1.2285, 0.1459961, 1.2285, -0.6733398, 1.2285, -0.121582, 0.04725, -0.0018463, 1.2285, 0.0507812, 1.2285, -0.6943359, 1.2285, -0.1484375, 0.04725, 0.0374304, 1.2285, 0.050293, 1.2285, -0.6928711, 1.2285, -0.0336914, , , , , , , , , , , , , , , , , , , , , , 
0.0477692, 0.0058747, 1.242, -0.1601562, 1.242, -0.7329102, 1.242, -0.0024414, 0.0477692, -0.0041962, 1.242, 0.1333008, 1.242, -0.6796875, 1.242, -0.1254883, 0.0477692, -0.0028534, 1.242, 0.0654297, 1.242, -0.6972656, 1.242, -0.1635742, 0.0477692, 0.0313878, 1.242, 0.0595703, 1.242, -0.6972656, 1.242, -0.019043, , , , , , , , , , , , , , , , , , , , , , 
0.0482885, 0.0085603, 1.2555, -0.1875, 1.2555, -0.7641602, 1.2555, 0.0009766, 0.0482885, -0.0025177, 1.2555, 0.1577148, 1.2555, -0.7060547, 1.2555, -0.1289062, 0.0482885, -0.0025177, 1.2555, 0.0805664, 1.2555, -0.7338867, 1.2555, -0.1708984, 0.0482885, 0.026688, 1.2555, 0.0625, 1.2555, -0.722168, 1.2555, -0.0161133, , , , , , , , , , , , , , , , , , , , , , 
0.0488077, 0.0070497, 1.269, -0.2070312, 1.269, -0.8041992, 1.269, 0.003418, 0.0488077, -0.002182, 1.269, 0.2006836, 1.269, -0.7416992, 1.269, -0.1210938, 0.0488077, -0.0045319, 1.269, 0.0693359, 1.269, -0.7768555, 1.269, -0.1748047, 0.0488077, 0.0226596, 1.269, 0.0639648, 1.269, -0.7529297, 1.269, -0.0292969, , , , , , , , , , , , , , , , , , , , , , 
0.0493269, 0.0040284, 1.2825, -0.2084961, 1.2825, -0.8237305, 1.2825, -0.0068359, 0.0493269, -0.0018463, 1.2825, 0.2177734, 1.2825, -0.7739258, 1.2825, -0.0991211, 0.0493269, -0.0070497, 1.2825, 0.0629883, 1.2825, -0.7963867, 1.2825, -0.1826172, 0.0493269, 0.0179599, 1.2825, 0.0917969, 1.2825, -0.7836914, 1.2825, -0.0351562, , , , , , , , , , , , , , , , , , , , , , 
0.0498462, 0.0031891, 1.296, -0.190918, 1.296, -0.8339844, 1.296, -0.0009766, 0.0498462, -0.0028534, 1.296, 0.2158203, 1.296, -0.7929688, 1.296, -0.1010742, 0.0498462, -0.0065461, 1.296, 0.0488281, 1.296, -0.8300781, 1.296, -0.2016602, 0.0498462, 0.0130922, 1.296, 0.1450195, 1.296, -0.8149414, 1.296, -0.0307617, , , , , , , , , , , , , , , , , , , , , , 
0.0503654, 0.0025177, 1.3095, -0.190918, 1.3095, -0.859375, 1.3095, 0.0107422, 0.0503654, -0.0041962, 1.3095, 0.2104492, 1.3095, -0.8105469, 1.3095, -0.1132812, 0.0503654, -0.005539, 1.3095, 0.0639648, 1.3095, -0.8530273, 1.3095, -0.2207031, 0.0503654, 0.0132601, 1.3095, 0.1791992, 1.3095, -0.8515625, 1.3095, -0.0322266, , , , , , , , , , , , , , , , , , , , , , 
0.0508846, 0.0038605, 1.323, -0.2207031, 1.323, -0.8989258, 1.323, 0.0170898, 0.0508846, -0.0025177, 1.323, 0.2167969, 1.323, -0.8378906, 1.323, -0.1191406, 0.0508846, -0.0035248, 1.323, 0.0996094, 1.323, -0.8779297, 1.323, -0.2246094, 0.0508846, 0.0142672, 1.323, 0.1860352, 1.323, -0.8676758, 1.323, -0.0366211, , , , , , , , , , , , , , , , , , , , , , 
0.0514038, 0.0065461, 1.3365, -0.2402344, 1.3365, -0.9277344, 1.3365, 0.0039062, 0.0514038, -0.0015106, 1.3365, 0.2216797, 1.3365, -0.8549805, 1.3365, -0.1181641, 0.0514038, -0.0031891, 1.3365, 0.1118164, 1.3365, -0.9125977, 1.3365, -0.2260742, 0.0514038, 0.0102388, 1.3365, 0.1801758, 1.3365, -0.8974609, 1.3365, -0.050293, , , , , , , , , , , , , , , , , , , , , , 
0.0519231, 0.0105745, 1.35, -0.2451172, 1.35, -0.9580078, 1.35, 0.0058594, 0.0519231, -0.0035248, 1.35, 0.2294922, 1.35, -0.8862305, 1.35, -0.1147461, 0.0519231, -0.0050355, 1.35, 0.0844727, 1.35, -0.9487305, 1.35, -0.2109375, 0.0519231, 0.0065461, 1.35, 0.1704102, 1.35, -0.9165039, 1.35, -0.059082, , , , , , , , , , , , , , , , , , , , , , 
0.0524423, 0.0147707, 1.3635, -0.2436523, 1.3635, -0.9936523, 1.3635, 0.0317383, 0.0524423, -0.005539, 1.3635, 0.230957, 1.3635, -0.9238281, 1.3635, -0.1245117, 0.0524423, -0.0068818, 1.3635, 0.0585938, 1.3635, -0.980957, 1.3635, -0.2143555, 0.0524423, 0.0065461, 1.3635, 0.1674805, 1.3635, -0.9389648, 1.3635, -0.0644531, , , , , , , , , , , , , , , , , , , , , , 
0.0529615, 0.0130922, 1.377, -0.2294922, 1.377, -1.0092773, 1.377, 0.0297852, 0.0529615, -0.005539, 1.377, 0.2548828, 1.377, -0.9604492, 1.377, -0.1210938, 0.0529615, -0.005539, 1.377, 0.0708008, 1.377, -1.0043945, 1.377, -0.2104492, 0.0529615, 0.0072175, 1.377, 0.159668, 1.377, -0.9760742, 1.377, -0.0458984, , , , , , , , , , , , , , , , , , , , , , 
0.0534808, 0.012253, 1.3905, -0.2114258, 1.3905, -1.0375977, 1.3905, 0.0229492, 0.0534808, -0.005539, 1.3905, 0.2822266, 1.3905, -0.9931641, 1.3905, -0.1044922, 0.0534808, -0.0035248, 1.3905, 0.1010742, 1.3905, -1.0131836, 1.3905, -0.2182617, 0.0534808, 0.0065461, 1.3905, 0.1523438, 1.3905, -1.0097656, 1.3905, -0.0263672, , , , , , , , , , , , , , , , , , , , , , 
0.054, 0.0132601, 1.404, -0.2172852, 1.404, -1.0385742, 1.404, 0.0112305, 0.054, -0.0058747, 1.404, 0.2832031, 1.404, -0.9960938, 1.404, -0.0996094, 0.054, -0.0045319, 1.404, 0.1333008, 1.404, -1.0141602, 1.404, -0.2163086, 0.054, 0.0052033, 1.404, 0.1459961, 1.404, -1.0229492, 1.404, -0.0180664, , , , , , , , , , , , , , , , , , , , , , 
0.0545192, 0.0142672, 1.4175, -0.2319336, 1.4175, -1.0478516, 1.4175, 0.0229492, 0.0545192, -0.0068818, 1.4175, 0.2724609, 1.4175, -1.0009766, 1.4175, -0.1152344, 0.0545192, -0.0060426, 1.4175, 0.137207, 1.4175, -1.0175781, 1.4175, -0.2158203, 0.0545192, 0.0031891, 1.4175, 0.1293945, 1.4175, -1.0185547, 1.4175, -0.0117188, , , , , , , , , , , , , , , , , , , , , , 
0.0550385, 0.0172885, 1.431, -0.2602539, 1.431, -1.065918, 1.431, 0.0488281, 0.0550385, -0.0075532, 1.431, 0.2602539, 1.431, -1.0234375, 1.431, -0.1298828, 0.0550385, -0.0068818, 1.431, 0.1391602, 1.431, -1.0351562, 1.431, -0.1967773, 0.0550385, 0.0025177, 1.431, 0.1166992, 1.431, -1.0268555, 1.431, 0.003418, , , , , , , , , , , , , , , , , , , , , , 
0.0555577, 0.0191348, 1.4445, -0.2744141, 1.4445, -1.0942383, 1.4445, 0.0273438, 0.0555577, -0.0075532, 1.4445, 0.2578125, 1.4445, -1.0595703, 1.4445, -0.1337891, 0.0555577, -0.0070497, 1.4445, 0.1245117, 1.4445, -1.0698242, 1.4445, -0.1899414, 0.0555577, 0.0025177, 1.4445, 0.1137695, 1.4445, -1.0654297, 1.4445, 0.0009766, , , , , , , , , , , , , , , , , , , , , , 
0.0560769, 0.0186313, 1.458, -0.2885742, 1.458, -1.1352539, 1.458, 0.0458984, 0.0560769, -0.0082246, 1.458, 0.2685547, 1.458, -1.0805664, 1.458, -0.1298828, 0.0560769, -0.0062104, 1.458, 0.1083984, 1.458, -1.1196289, 1.458, -0.1811523, 0.0560769, 0.0028534, 1.458, 0.1196289, 1.458, -1.1254883, 1.458, -0.0195312, , , , , , , , , , , , , , , , , , , , , , 
0.0565962, 0.0179599, 1.4715, -0.3095703, 1.4715, -1.1630859, 1.4715, 0.0595703, 0.0565962, -0.0095674, 1.4715, 0.3076172, 1.4715, -1.1181641, 1.4715, -0.109375, 0.0565962, -0.0082246, 1.4715, 0.1333008, 1.4715, -1.1586914, 1.4715, -0.1538086, 0.0565962, 0.0031891, 1.4715, 0.1191406, 1.4715, -1.1738281, 1.4715, -0.0253906, , , , , , , , , , , , , , , , , , , , , , 
0.0571154, 0.0221561, 1.485, -0.3305664, 1.485, -1.1630859, 1.485, 0.0439453, 0.0571154, -0.0119173, 1.485, 0.3305664, 1.485, -1.1464844, 1.485, -0.09375, 0.0571154, -0.012253, 1.485, 0.1357422, 1.485, -1.168457, 1.485, -0.1704102, 0.0571154, -0.0018463, 1.485, 0.1123047, 1.485, -1.184082, 1.485, -0.0258789, , , , , , , , , , , , , , , , , , , , , , 
0.0576346, 0.026688, 1.4985, -0.3320312, 1.4985, -1.1586914, 1.4985, 0.0649414, 0.0576346, -0.0112459, 1.4985, 0.3291016, 1.4985, -1.1538086, 1.4985, -0.105957, 0.0576346, -0.0142672, 1.4985, 0.1254883, 1.4985, -1.1772461, 1.4985, -0.1845703, 0.0576346, -0.008896, 1.4985, 0.1010742, 1.4985, -1.1708984, 1.4985, -0.0097656, , , , , , , , , , , , , , , , , , , , , , 
0.0581538, 0.0265202, 1.512, -0.3198242, 1.512, -1.1811523, 1.512, 0.0595703, 0.0581538, -0.0095674, 1.512, 0.3212891, 1.512, -1.1459961, 1.512, -0.1079102, 0.0581538, -0.01561, 1.512, 0.1508789, 1.512, -1.1982422, 1.512, -0.1630859, 0.0581538, -0.0109102, 1.512, 0.1123047, 1.512, -1.1674805, 1.512, 0.0073242, , , , , , , , , , , , , , , , , , , , , , 
0.0586731, 0.0236667, 1.5255, -0.3466797, 1.5255, -1.1967773, 1.5255, 0.0922852, 0.0586731, -0.0102388, 1.5255, 0.3383789, 1.5255, -1.1542969, 1.5255, -0.0908203, 0.0586731, -0.01561, 1.5255, 0.1674805, 1.5255, -1.1958008, 1.5255, -0.1357422, 0.0586731, -0.0112459, 1.5255, 0.1176758, 1.5255, -1.1801758, 1.5255, -0.0043945, , , , , , , , , , , , , , , , , , , , , , 
0.0591923, 0.0206455, 1.539, -0.3349609, 1.539, -1.2011719, 1.539, 0.1079102, 0.0591923, -0.0109102, 1.539, 0.3959961, 1.539, -1.1591797, 1.539, -0.1064453, 0.0591923, -0.0135958, 1.539, 0.1655273, 1.539, -1.1943359, 1.539, -0.1235352, 0.0591923, -0.0112459, 1.539, 0.0786133, 1.539, -1.1938477, 1.539, -0.015625, , , , , , , , , , , , , , , , , , , , , , 
0.0597115, 0.0172885, 1.5525, -0.3325195, 1.5525, -1.2143555, 1.5525, 0.1357422, 0.0597115, -0.0104067, 1.5525, 0.4379883, 1.5525, -1.1645508, 1.5525, -0.1293945, 0.0597115, -0.0135958, 1.5525, 0.1430664, 1.5525, -1.2099609, 1.5525, -0.1171875, 0.0597115, -0.0082246, 1.5525, 0.0395508, 1.5525, -1.2060547, 1.5525, -0.0058594, , , , , , , , , , , , , , , , , , , , , , 
0.0602308, 0.0186313, 1.566, -0.3320312, 1.566, -1.2509766, 1.566, 0.1362305, 0.0602308, -0.0102388, 1.566, 0.4423828, 1.566, -1.2070312, 1.566, -0.1191406, 0.0602308, -0.0135958, 1.566, 0.1474609, 1.566, -1.2480469, 1.566, -0.1323242, 0.0602308, -0.005539, 1.566, 0.0532227, 1.566, -1.2490234, 1.566, 0.0019531, , , , , , , , , , , , , , , , , , , , , , 
0.06075, 0.0186313, 1.5795, -0.3911133, 1.5795, -1.2700195, 1.5795, 0.1381836, 0.06075, -0.0097353, 1.5795, 0.4418945, 1.5795, -1.2426758, 1.5795, -0.0927734, 0.06075, -0.0120851, 1.5795, 0.1972656, 1.5795, -1.3007812, 1.5795, -0.1210938, 0.06075, -0.0038605, 1.5795, 0.0961914, 1.5795, -1.3056641, 1.5795, -0.0029297, , , , , , , , , , , , , , , , , , , , , , 
0.0612692, 0.0166171, 1.593, -0.4487305, 1.593, -1.2753906, 1.593, 0.0839844, 0.0612692, -0.0107424, 1.593, 0.4467773, 1.593, -1.2954102, 1.593, -0.0239258, 0.0612692, -0.0082246, 1.593, 0.2167969, 1.593, -1.3325195, 1.593, -0.1157227, 0.0612692, -0.0008392, 1.593, 0.081543, 1.593, -1.3393555, 1.593, -0.0014648, , , , , , , , , , , , , , , , , , , , , , 
0.0617885, 0.0162814, 1.6065, -0.4033203, 1.6065, -1.293457, 1.6065, 0.1049805, 0.0617885, -0.0125887, 1.6065, 0.4672852, 1.6065, -1.2788086, 1.6065, -0.0341797, 0.0617885, -0.0078889, 1.6065, 0.1860352, 1.6065, -1.3203125, 1.6065, -0.1064453, 0.0617885, 0.0028534, 1.6065, 0.050293, 1.6065, -1.3320312, 1.6065, -0.0009766, , , , , , , , , , , , , , , , , , , , , , 
0.0623077, 0.0112459, 1.62, -0.3500977, 1.62, -1.315918, 1.62, 0.1625977, 0.0623077, -0.0125887, 1.62, 0.4765625, 1.62, -1.2548828, 1.62, -0.1123047, 0.0623077, -0.0097353, 1.62, 0.1630859, 1.62, -1.3051758, 1.62, -0.0922852, 0.0623077, 0.0078889, 1.62, 0.0317383, 1.62, -1.3134766, 1.62, 0.0039062, , , , , , , , , , , , , , , , , , , , , , 
0.0628269, 0.0043641, 1.6335, -0.3486328, 1.6335, -1.3242188, 1.6335, 0.1728516, 0.0628269, -0.012253, 1.6335, 0.4692383, 1.6335, -1.2612305, 1.6335, -0.1582031, 0.0628269, -0.0102388, 1.6335, 0.1567383, 1.6335, -1.3359375, 1.6335, -0.0908203, 0.0628269, 0.0132601, 1.6335, 0.0283203, 1.6335, -1.3144531, 1.6335, 0.0068359, , , , , , , , , , , , , , , , , , , , , , 
0.0633462, 0.0001678, 1.647, -0.4013672, 1.647, -1.3173828, 1.647, 0.1972656, 0.0633462, -0.0104067, 1.647, 0.4575195, 1.647, -1.2661133, 1.647, -0.1582031, 0.0633462, -0.0090639, 1.647, 0.1958008, 1.647, -1.3662109, 1.647, -0.0874023, 0.0633462, 0.0172885, 1.647, 0.03125, 1.647, -1.3393555, 1.647, 0.012207, , , , , , , , , , , , , , , , , , , , , , 
0.0638654, -0.0011749, 1.6605, -0.4897461, 1.6605, -1.3012695, 1.6605, 0.1796875, 0.0638654, -0.0083925, 1.6605, 0.4863281, 1.6605, -1.293457, 1.6605, -0.0986328, 0.0638654, -0.0085603, 1.6605, 0.262207, 1.6605, -1.3657227, 1.6605, -0.0805664, 0.0638654, 0.0226596, 1.6605, 0.027832, 1.6605, -1.3837891, 1.6605, 0.0395508, , , , , , , , , , , , , , , , , , , , , , 
0.0643846, -0.0025177, 1.674, -0.4956055, 1.674, -1.3134766, 1.674, 0.1918945, 0.0643846, -0.0085603, 1.674, 0.5107422, 1.674, -1.3071289, 1.674, -0.0966797, 0.0643846, -0.0095674, 1.674, 0.2983398, 1.674, -1.3740234, 1.674, -0.0620117, 0.0643846, 0.0283665, 1.674, 0.0239258, 1.674, -1.4204102, 1.674, 0.0825195, , , , , , , , , , , , , , , , , , , , , , 
0.0649038, -0.0035248, 1.6875, -0.3911133, 1.6875, -1.3276367, 1.6875, 0.2426758, 0.0649038, -0.0099031, 1.6875, 0.5205078, 1.6875, -1.3193359, 1.6875, -0.1166992, 0.0649038, -0.0109102, 1.6875, 0.3295898, 1.6875, -1.3896484, 1.6875, -0.0449219, 0.0649038, 0.0330663, 1.6875, 0.0126953, 1.6875, -1.4223633, 1.6875, 0.0908203, , , , , , , , , , , , , , , , , , , , , , 
0.0654231, -0.0015106, 1.701, -0.2836914, 1.701, -1.3442383, 1.701, 0.234375, 0.0654231, -0.0109102, 1.701, 0.5234375, 1.701, -1.3291016, 1.701, -0.1162109, 0.0654231, -0.0105745, 1.701, 0.324707, 1.701, -1.4018555, 1.701, -0.0239258, 0.0654231, 0.0364233, 1.701, -0.0239258, 1.701, -1.4248047, 1.701, 0.0673828, , , , , , , , , , , , , , , , , , , , , , 
0.0659423, 0.0011749, 1.7145, -0.2749023, 1.7145, -1.3457031, 1.7145, 0.1962891, 0.0659423, -0.0117494, 1.7145, 0.5302734, 1.7145, -1.3398438, 1.7145, -0.1166992, 0.0659423, -0.0078889, 1.7145, 0.28125, 1.7145, -1.4047852, 1.7145, -0.0424805, 0.0659423, 0.0391089, 1.7145, -0.0522461, 1.7145, -1.4477539, 1.7145, 0.0629883, , , , , , , , , , , , , , , , , , , , , , 
0.0664615, 0.0045319, 1.728, -0.4306641, 1.728, -1.3334961, 1.728, 0.1396484, 0.0664615, -0.012253, 1.728, 0.5244141, 1.728, -1.3481445, 1.728, -0.0537109, 0.0664615, -0.0063783, 1.728, 0.2495117, 1.728, -1.4174805, 1.728, -0.0507812, 0.0664615, 0.0407874, 1.728, -0.0498047, 1.728, -1.4589844, 1.728, 0.0854492, , , , , , , , , , , , , , , , , , , , , , 
0.0669808, 0.0065461, 1.7415, -0.6943359, 1.7415, -1.3203125, 1.7415, 0.1328125, 0.0669808, -0.0109102, 1.7415, 0.4555664, 1.7415, -1.3432617, 1.7415, -0.0063477, 0.0669808, -0.0062104, 1.7415, 0.2299805, 1.7415, -1.4335938, 1.7415, -0.0380859, 0.0669808, 0.0406195, 1.7415, -0.0195312, 1.7415, -1.4658203, 1.7415, 0.0996094, , , , , , , , , , , , , , , , , , , , , , 
0.0675, 0.0057069, 1.755, -0.7861328, 1.755, -1.3022461, 1.755, 0.1044922, 0.0675, -0.008896, 1.755, 0.4013672, 1.755, -1.3427734, 1.755, -0.0092773, 0.0675, -0.0062104, 1.755, 0.2348633, 1.755, -1.4643555, 1.755, -0.0117188, 0.0675, 0.0374304, 1.755, -0.0371094, 1.755, -1.4692383, 1.755, 0.0878906, , , , , , , , , , , , , , , , , , , , , , 
0.0680192, 0.0045319, 1.7685, -0.7041016, 1.7685, -1.277832, 1.7685, 0.1245117, 0.0680192, -0.0068818, 1.7685, 0.3867188, 1.7685, -1.3461914, 1.7685, -0.0249023, 0.0680192, -0.0048676, 1.7685, 0.2641602, 1.7685, -1.4511719, 1.7685, 0.0234375, 0.0680192, 0.0305486, 1.7685, -0.0737305, 1.7685, -1.4785156, 1.7685, 0.0581055, , , , , , , , , , , , , , , , , , , , , , 
0.0685385, 0.0045319, 1.782, -0.6508789, 1.782, -1.2724609, 1.782, 0.1640625, 0.0685385, -0.0065461, 1.782, 0.4453125, 1.782, -1.3339844, 1.782, 0.0244141, 0.0685385, -0.0031891, 1.782, 0.2719727, 1.782, -1.4746094, 1.782, 0.0566406, 0.0685385, 0.0229953, 1.782, -0.0932617, 1.782, -1.4829102, 1.782, 0.0527344, , , , , , , , , , , , , , , , , , , , , , 
0.0690577, 0.0075532, 1.7955, -0.6069336, 1.7955, -1.2705078, 1.7955, 0.1181641, 0.0690577, -0.0078889, 1.7955, 0.5703125, 1.7955, -1.3486328, 1.7955, 0.1240234, 0.0690577, -0.0011749, 1.7955, 0.253418, 1.7955, -1.4931641, 1.7955, 0.0844727, 0.0690577, 0.0166171, 1.7955, -0.1342773, 1.7955, -1.4814453, 1.7955, 0.0566406, , , , , , , , , , , , , , , , , , , , , , 
0.0695769, 0.0125887, 1.809, -0.5737305, 1.809, -1.2724609, 1.809, 0.0512695, 0.0695769, -0.0085603, 1.809, 0.6933594, 1.809, -1.3984375, 1.809, 0.1928711, 0.0695769, -0.0015106, 1.809, 0.2456055, 1.809, -1.4799805, 1.809, 0.1044922, 0.0695769, 0.0142672, 1.809, -0.1928711, 1.809, -1.4707031, 1.809, 0.0634766, , , , , , , , , , , , , , , , , , , , , , 
0.0700962, 0.0139315, 1.8225, -0.4638672, 1.8225, -1.3452148, 1.8225, 0.074707, 0.0700962, -0.0082246, 1.8225, 0.7666016, 1.8225, -1.3813477, 1.8225, 0.0537109, 0.0700962, -0.0028534, 1.8225, 0.2211914, 1.8225, -1.4306641, 1.8225, 0.1333008, 0.0700962, 0.0152743, 1.8225, -0.2338867, 1.8225, -1.4555664, 1.8225, 0.0327148, , , , , , , , , , , , , , , , , , , , , , 
0.0706154, 0.0104067, 1.836, 0.0405273, 1.836, -1.5283203, 1.836, 0.4755859, 0.0706154, -0.0077211, 1.836, 0.7905273, 1.836, -1.2626953, 1.836, -0.2167969, 0.0706154, -0.0038605, 1.836, 0.1855469, 1.836, -1.3920898, 1.836, 0.0888672, 0.0706154, 0.0151064, 1.836, -0.215332, 1.836, -1.4467773, 1.836, -0.0546875, , , , , , , , , , , , , , , , , , , , , , 
0.0711346, 0.008896, 1.8495, 0.2509766, 1.8495, -1.4233398, 1.8495, -0.1035156, 0.0711346, -0.0085603, 1.8495, 0.5786133, 1.8495, -0.9941406, 1.8495, -0.6000977, 0.0711346, -0.002182, 1.8495, 0.1235352, 1.8495, -1.3803711, 1.8495, 0.0771484, 0.0711346, 0.0132601, 1.8495, -0.1079102, 1.8495, -1.3969727, 1.8495, -0.1123047, , , , , , , , , , , , , , , , , , , , , , 
0.0716538, 0.0078889, 1.863, -0.5703125, 1.863, -1.4018555, 1.863, -0.0986328, 0.0716538, -0.0077211, 1.863, 0.5209961, 1.863, -1.4233398, 1.863, 0.300293, 0.0716538, -0.0026856, 1.863, 0.1708984, 1.863, -1.362793, 1.863, -0.2768555, 0.0716538, 0.0135958, 1.863, 0.1196289, 1.863, -1.3618164, 1.863, -0.0410156, , , , , , , , , , , , , , , , , , , , , , 
0.0721731, 0.0072175, 1.8765, -1.0561523, 1.8765, -1.7041016, 1.8765, 0.1821289, 0.0721731, -0.0068818, 1.8765, -0.4008789, 1.8765, -1.8481445, 1.8765, -0.2548828, 0.0721731, -0.0060426, 1.8765, 0.4462891, 1.8765, -1.4321289, 1.8765, -0.4033203, 0.0721731, 0.0146029, 1.8765, 0.4067383, 1.8765, -1.6035156, 1.8765, 0.0776367, , , , , , , , , , , , , , , , , , , , , , 
0.0726923, 0.008896, 1.89, -0.7548828, 1.89, -1.8046875, 1.89, 0.112793, 0.0726923, -0.0068818, 1.89, 0.4306641, 1.89, -1.730957, 1.89, -0.0473633, 0.0726923, -0.0072175, 1.89, 0.4970703, 1.89, -1.4750977, 1.89, -0.355957, 0.0726923, 0.0146029, 1.89, 0.6035156, 1.89, -1.5917969, 1.89, 0.09375, , , , , , , , , , , , , , , , , , , , , , 
0.0732115, 0.0092317, 1.9035, 0.0351562, 1.9035, -1.7548828, 1.9035, 0.371582, 0.0732115, -0.0082246, 1.9035, 1.2495117, 1.9035, -1.4008789, 1.9035, -0.4262695, 0.0732115, -0.005539, 1.9035, 0.2963867, 1.9035, -1.5952148, 1.9035, -0.1186523, 0.0732115, 0.0135958, 1.9035, 0.4985352, 1.9035, -1.5097656, 1.9035, -0.0810547, , , , , , , , , , , , , , , , , , , , , , 
0.0737308, 0.0112459, 1.917, 0.1157227, 1.917, -1.6035156, 1.917, 0.3349609, 0.0737308, -0.0085603, 1.917, 1.0390625, 1.917, -1.4414062, 1.917, -0.1425781, 0.0737308, -0.005539, 1.917, 0.3618164, 1.917, -1.5844727, 1.917, -0.1020508, 0.0737308, 0.0129244, 1.917, 0.1894531, 1.917, -1.5966797, 1.917, 0.0024414, , , , , , , , , , , , , , , , , , , , , , 
0.07425, 0.0142672, 1.9305, -0.1572266, 1.9305, -1.5263672, 1.9305, 0.1767578, 0.07425, -0.0092317, 1.9305, 0.6582031, 1.9305, -1.5092773, 1.9305, -0.2177734, 0.07425, -0.0062104, 1.9305, 0.4853516, 1.9305, -1.4272461, 1.9305, -0.1694336, 0.07425, 0.0114137, 1.9305, -0.0415039, 1.9305, -1.605957, 1.9305, 0.1152344, , , , , , , , , , , , , , , , , , , , , , 
0.0747692, 0.0182956, 1.944, -0.5244141, 1.944, -1.4394531, 1.944, 0.074707, 0.0747692, -0.0075532, 1.944, 0.2568359, 1.944, -1.4912109, 1.944, -0.0107422, 0.0747692, -0.0068818, 1.944, 0.5390625, 1.944, -1.3803711, 1.944, -0.1538086, 0.0747692, 0.0099031, 1.944, -0.0512695, 1.944, -1.5825195, 1.944, 0.15625, , , , , , , , , , , , , , , , , , , , , , 
0.0752885, 0.0209812, 1.9575, -0.7617188, 1.9575, -1.4301758, 1.9575, 0.0292969, 0.0752885, -0.0043641, 1.9575, 0.1943359, 1.9575, -1.4614258, 1.9575, -0.0097656, 0.0752885, -0.0082246, 1.9575, 0.4389648, 1.9575, -1.378418, 1.9575, -0.1748047, 0.0752885, 0.0072175, 1.9575, 0.0371094, 1.9575, -1.5112305, 1.9575, 0.1904297, , , , , , , , , , , , , , , , , , , , , , 
0.0758077, 0.0176242, 1.971, -0.7543945, 1.971, -1.4594727, 1.971, 0.0556641, 0.0758077, -0.0045319, 1.971, 0.34375, 1.971, -1.4213867, 1.971, 0.0898438, 0.0758077, -0.0095674, 1.971, 0.105957, 1.971, -1.394043, 1.971, -0.1972656, 0.0758077, 0.0050355, 1.971, -0.0170898, 1.971, -1.4604492, 1.971, 0.0986328, , , , , , , , , , , , , , , , , , , , , , 
0.0763269, 0.0172885, 1.9845, -0.6342773, 1.9845, -1.4326172, 1.9845, 0.1171875, 0.0763269, -0.0078889, 1.9845, 0.6972656, 1.9845, -1.387207, 1.9845, 0.1074219, 0.0763269, -0.0083925, 1.9845, -0.1171875, 1.9845, -1.4331055, 1.9845, -0.1396484, 0.0763269, 0.0025177, 1.9845, -0.1728516, 1.9845, -1.4609375, 1.9845, 0.0610352, , , , , , , , , , , , , , , , , , , , , , 
0.0768462, 0.0246738, 1.998, -0.6088867, 1.998, -1.3364258, 1.998, 0.1103516, 0.0768462, -0.0095674, 1.998, 0.8876953, 1.998, -1.3188477, 1.998, 0.1186523, 0.0768462, -0.0075532, 1.998, -0.1220703, 1.998, -1.4375, 1.998, -0.0839844, 0.0768462, -0.0010071, 1.998, -0.2514648, 1.998, -1.4414062, 1.998, 0.03125, , , , , , , , , , , , , , , , , , , , , , 
0.0773654, 0.0307164, 2.0115, -0.6279297, 2.0115, -1.2539062, 2.0115, 0.0981445, 0.0773654, -0.008896, 2.0115, 0.7773438, 2.0115, -1.2563477, 2.0115, 0.0698242, 0.0773654, -0.0092317, 2.0115, 0.0244141, 2.0115, -1.4057617, 2.0115, -0.0869141, 0.0773654, -0.0095674, 2.0115, -0.168457, 2.0115, -1.4042969, 2.0115, -0.019043, , , , , , , , , , , , , , , , , , , , , , 
0.0778846, 0.0276951, 2.025, -0.6708984, 2.025, -1.2192383, 2.025, 0.0981445, 0.0778846, -0.0068818, 2.025, 0.5483398, 2.025, -1.2075195, 2.025, 0.0913086, 0.0778846, -0.0099031, 2.025, 0.1875, 2.025, -1.3603516, 2.025, -0.1293945, 0.0778846, -0.0176242, 2.025, 0.0161133, 2.025, -1.3735352, 2.025, -0.0439453, , , , , , , , , , , , , , , , , , , , , , 
0.0784038, 0.0209812, 2.0385, -0.7524414, 2.0385, -1.1577148, 2.0385, 0.0878906, 0.0784038, -0.0048676, 2.0385, 0.4638672, 2.0385, -1.1733398, 2.0385, 0.1264648, 0.0784038, -0.0102388, 2.0385, 0.2490234, 2.0385, -1.3203125, 2.0385, -0.1342773, 0.0784038, -0.0196384, 2.0385, 0.1938477, 2.0385, -1.3383789, 2.0385, -0.0307617, , , , , , , , , , , , , , , , , , , , , , 
0.0789231, 0.0169528, 2.052, -0.7773438, 2.052, -1.1269531, 2.052, 0.0727539, 0.0789231, -0.005539, 2.052, 0.5610352, 2.052, -1.1230469, 2.052, 0.1484375, 0.0789231, -0.0085603, 2.052, 0.2866211, 2.052, -1.2822266, 2.052, -0.140625, 0.0789231, -0.0182956, 2.052, 0.2758789, 2.052, -1.2856445, 2.052, 0.0078125, , , , , , , , , , , , , , , , , , , , , , 
0.0794423, 0.0146029, 2.0655, -0.7563477, 2.0655, -1.1157227, 2.0655, 0.0942383, 0.0794423, -0.0075532, 2.0655, 0.6733398, 2.0655, -1.0922852, 2.0655, 0.1508789, 0.0794423, -0.0078889, 2.0655, 0.3149414, 2.0655, -1.2436523, 2.0655, -0.1899414, 0.0794423, -0.0152743, 2.0655, 0.2451172, 2.0655, -1.2260742, 2.0655, 0.0371094, , , , , , , , , , , , , , , , , , , , , , 
0.0799615, 0.0166171, 2.079, -0.6835938, 2.079, -1.1459961, 2.079, 0.1181641, 0.0799615, -0.0068818, 2.079, 0.6992188, 2.079, -1.0864258, 2.079, 0.1357422, 0.0799615, -0.0095674, 2.079, 0.3164062, 2.079, -1.2216797, 2.079, -0.2089844, 0.0799615, -0.0112459, 2.079, 0.1674805, 2.079, -1.1987305, 2.079, 0.0532227, , , , , , , , , , , , , , , , , , , , , , 
0.0804808, 0.0166171, 2.0925, -0.6083984, 2.0925, -1.1430664, 2.0925, 0.1474609, 0.0804808, -0.0052033, 2.0925, 0.7148438, 2.0925, -1.0693359, 2.0925, 0.1176758, 0.0804808, -0.0105745, 2.0925, 0.2875977, 2.0925, -1.184082, 2.0925, -0.2329102, 0.0804808, -0.0082246, 2.0925, 0.1396484, 2.0925, -1.1987305, 2.0925, 0.059082, , , , , , , , , , , , , , , , , , , , , , 
0.081, 0.0119173, 2.106, -0.625, 2.106, -1.0756836, 2.106, 0.1606445, 0.081, -0.0041962, 2.106, 0.6933594, 2.106, -1.0263672, 2.106, 0.1186523, 0.081, -0.0109102, 2.106, 0.2338867, 2.106, -1.171875, 2.106, -0.2382812, 0.081, -0.0041962, 2.106, 0.1191406, 2.106, -1.2055664, 2.106, 0.0449219, , , , , , , , , , , , , , , , , , , , , , 
0.0815192, 0.0119173, 2.1195, -0.6933594, 2.1195, -0.9658203, 2.1195, 0.137207, 0.0815192, -0.0045319, 2.1195, 0.6743164, 2.1195, -0.9560547, 2.1195, 0.1582031, 0.0815192, -0.0117494, 2.1195, 0.1655273, 2.1195, -1.1918945, 2.1195, -0.203125, 0.0815192, -0.0003357, 2.1195, 0.1367188, 2.1195, -1.203125, 2.1195, 0.0283203, , , , , , , , , , , , , , , , , , , , , , 
0.0820385, 0.0139315, 2.133, -0.7822266, 2.133, -0.9101562, 2.133, 0.1118164, 0.0820385, -0.0045319, 2.133, 0.671875, 2.133, -0.9008789, 2.133, 0.1967773, 0.0820385, -0.0112459, 2.133, 0.1259766, 2.133, -1.2036133, 2.133, -0.1992188, 0.0820385, 0.0030213, 2.133, 0.144043, 2.133, -1.1958008, 2.133, 0.03125, , , , , , , , , , , , , , , , , , , , , , 
0.0825577, 0.0142672, 2.1465, -0.809082, 2.1465, -0.9379883, 2.1465, 0.0927734, 0.0825577, -0.0050355, 2.1465, 0.6743164, 2.1465, -0.8881836, 2.1465, 0.1772461, 0.0825577, -0.0112459, 2.1465, 0.1386719, 2.1465, -1.1982422, 2.1465, -0.1875, 0.0825577, 0.0075532, 2.1465, 0.1123047, 2.1465, -1.1860352, 2.1465, 0.0449219, , , , , , , , , , , , , , , , , , , , , , 
0.0830769, 0.0097353, 2.16, -0.7138672, 2.16, -0.9658203, 2.16, 0.0942383, 0.0830769, -0.0063783, 2.16, 0.6713867, 2.16, -0.8862305, 2.16, 0.1635742, 0.0830769, -0.0102388, 2.16, 0.1796875, 2.16, -1.1582031, 2.16, -0.2133789, 0.0830769, 0.012253, 2.16, 0.0932617, 2.16, -1.1210938, 2.16, 0.0561523, , , , , , , , , , , , , , , , , , , , , , 
0.0835962, 0.0058747, 2.1735, -0.6220703, 2.1735, -0.9394531, 2.1735, 0.1152344, 0.0835962, -0.0073854, 2.1735, 0.6279297, 2.1735, -0.8706055, 2.1735, 0.1552734, 0.0835962, -0.008896, 2.1735, 0.2099609, 2.1735, -1.0751953, 2.1735, -0.2719727, 0.0835962, 0.018967, 2.1735, 0.1181641, 2.1735, -1.0444336, 2.1735, 0.0571289, , , , , , , , , , , , , , , , , , , , , , 
0.0841154, 0.0072175, 2.187, -0.5966797, 2.187, -0.8955078, 2.187, 0.1113281, 0.0841154, -0.0073854, 2.187, 0.5966797, 2.187, -0.8608398, 2.187, 0.1923828, 0.0841154, -0.0065461, 2.187, 0.2099609, 2.187, -0.9956055, 2.187, -0.3110352, 0.0841154, 0.0260166, 2.187, 0.175293, 2.187, -1.0073242, 2.187, 0.0727539, , , , , , , , , , , , , , , , , , , , , , 
0.0846346, 0.0068818, 2.2005, -0.6674805, 2.2005, -0.8461914, 2.2005, 0.0981445, 0.0846346, -0.0065461, 2.2005, 0.6191406, 2.2005, -0.8525391, 2.2005, 0.1923828, 0.0846346, -0.0072175, 2.2005, 0.206543, 2.2005, -0.9731445, 2.2005, -0.3208008, 0.0846346, 0.0325628, 2.2005, 0.2416992, 2.2005, -1.0053711, 2.2005, 0.0825195, , , , , , , , , , , , , , , , , , , , , , 
0.0851538, 0.0036927, 2.214, -0.7158203, 2.214, -0.8183594, 2.214, 0.0839844, 0.0851538, -0.005539, 2.214, 0.659668, 2.214, -0.8193359, 2.214, 0.1738281, 0.0851538, -0.008896, 2.214, 0.2084961, 2.214, -0.9829102, 2.214, -0.3178711, 0.0851538, 0.0377661, 2.214, 0.2607422, 2.214, -1.0395508, 2.214, 0.0766602, , , , , , , , , , , , , , , , , , , , , , 
0.0856731, 0.0001678, 2.2275, -0.7202148, 2.2275, -0.8188477, 2.2275, 0.0874023, 0.0856731, -0.0062104, 2.2275, 0.6259766, 2.2275, -0.7792969, 2.2275, 0.1831055, 0.0856731, -0.0077211, 2.2275, 0.2128906, 2.2275, -1.0332031, 2.2275, -0.2905273, 0.0856731, 0.040116, 2.2275, 0.246582, 2.2275, -1.0419922, 2.2275, 0.059082, , , , , , , , , , , , , , , , , , , , , , 
0.0861923, -0.0003357, 2.241, -0.7041016, 2.241, -0.8198242, 2.241, 0.0878906, 0.0861923, -0.0058747, 2.241, 0.6132812, 2.241, -0.7387695, 2.241, 0.1889648, 0.0861923, -0.0068818, 2.241, 0.2050781, 2.241, -1.0571289, 2.241, -0.2817383, 0.0861923, 0.0406195, 2.241, 0.2329102, 2.241, -0.9916992, 2.241, 0.034668, , , , , , , , , , , , , , , , , , , , , , 
0.0867115, 0.0025177, 2.2545, -0.6733398, 2.2545, -0.7866211, 2.2545, 0.1000977, 0.0867115, -0.005539, 2.2545, 0.6162109, 2.2545, -0.7094727, 2.2545, 0.1674805, 0.0867115, -0.0062104, 2.2545, 0.1816406, 2.2545, -1.019043, 2.2545, -0.2890625, 0.0867115, 0.0397803, 2.2545, 0.2265625, 2.2545, -0.9619141, 2.2545, 0.0302734, , , , , , , , , , , , , , , , , , , , , , 
0.0872308, 0.0072175, 2.268, -0.6132812, 2.268, -0.7514648, 2.268, 0.1054688, 0.0872308, -0.0048676, 2.268, 0.6220703, 2.268, -0.684082, 2.268, 0.1479492, 0.0872308, -0.0072175, 2.268, 0.1694336, 2.268, -0.9526367, 2.268, -0.3115234, 0.0872308, 0.0354162, 2.268, 0.2143555, 2.268, -0.9106445, 2.268, 0.0351562, , , , , , , , , , , , , , , , , , , , , , 
0.08775, 0.0085603, 2.2815, -0.5717773, 2.2815, -0.7236328, 2.2815, 0.1118164, 0.08775, -0.0048676, 2.2815, 0.6586914, 2.2815, -0.6645508, 2.2815, 0.140625, 0.08775, -0.0078889, 2.2815, 0.1777344, 2.2815, -0.8901367, 2.2815, -0.3286133, 0.08775, 0.0290379, 2.2815, 0.2392578, 2.2815, -0.8813477, 2.2815, 0.0522461, , , , , , , , , , , , , , , , , , , , , , 
0.0882692, 0.0104067, 2.295, -0.5766602, 2.295, -0.6865234, 2.295, 0.1132812, 0.0882692, -0.0052033, 2.295, 0.6342773, 2.295, -0.6503906, 2.295, 0.1831055, 0.0882692, -0.0062104, 2.295, 0.2041016, 2.295, -0.8803711, 2.295, -0.3378906, 0.0882692, 0.0240024, 2.295, 0.2607422, 2.295, -0.894043, 2.295, 0.0712891, , , , , , , , , , , , , , , , , , , , , , 
0.0887885, 0.0169528, 2.3085, -0.6787109, 2.3085, -0.6777344, 2.3085, 0.074707, 0.0887885, -0.0060426, 2.3085, 0.675293, 2.3085, -0.6855469, 2.3085, 0.2216797, 0.0887885, -0.0058747, 2.3085, 0.2348633, 2.3085, -0.9228516, 2.3085, -0.3374023, 0.0887885, 0.0194705, 2.3085, 0.2607422, 2.3085, -0.940918, 2.3085, 0.0791016, , , , , , , , , , , , , , , , , , , , , , 
0.0893077, 0.0169528, 2.322, -0.7041016, 2.322, -0.675293, 2.322, 0.0185547, 0.0893077, -0.0065461, 2.322, 0.640625, 2.322, -0.6787109, 2.322, 0.1303711, 0.0893077, -0.0072175, 2.322, 0.2426758, 2.322, -0.9648438, 2.322, -0.2998047, 0.0893077, 0.0172885, 2.322, 0.2617188, 2.322, -0.9589844, 2.322, 0.0688477, , , , , , , , , , , , , , , , , , , , , , 
0.0898269, 0.0149386, 2.3355, -0.6054688, 2.3355, -0.6469727, 2.3355, 0.0478516, 0.0898269, -0.008896, 2.3355, 0.5356445, 2.3355, -0.6411133, 2.3355, 0.1083984, 0.0898269, -0.0085603, 2.3355, 0.2338867, 2.3355, -0.9594727, 2.3355, -0.2949219, 0.0898269, 0.0154421, 2.3355, 0.2451172, 2.3355, -0.8969727, 2.3355, 0.0634766, , , , , , , , , , , , , , , , , , , , , , 
0.0903462, 0.0169528, 2.349, -0.5126953, 2.349, -0.6235352, 2.349, 0.0410156, 0.0903462, -0.0104067, 2.349, 0.3442383, 2.349, -0.5581055, 2.349, 0.1557617, 0.0903462, -0.008896, 2.349, 0.1870117, 2.349, -0.8901367, 2.349, -0.3129883, 0.0903462, 0.0130922, 2.349, 0.2197266, 2.349, -0.8085938, 2.349, 0.0415039, , , , , , , , , , , , , , , , , , , , , , 
0.0908654, 0.0172885, 2.3625, -0.5419922, 2.3625, -0.6166992, 2.3625, 0.0473633, 0.0908654, -0.0095674, 2.3625, 0.4287109, 2.3625, -0.5493164, 2.3625, 0.1982422, 0.0908654, -0.0068818, 2.3625, 0.1308594, 2.3625, -0.7832031, 2.3625, -0.328125, 0.0908654, 0.0105745, 2.3625, 0.2241211, 2.3625, -0.7543945, 2.3625, 0.0332031, , , , , , , , , , , , , , , , , , , , , , 
0.0913846, 0.0146029, 2.376, -0.5810547, 2.376, -0.6162109, 2.376, 0.0292969, 0.0913846, -0.0092317, 2.376, 0.6269531, 2.376, -0.5966797, 2.376, 0.1547852, 0.0913846, -0.0075532, 2.376, 0.1166992, 2.376, -0.7055664, 2.376, -0.3330078, 0.0913846, 0.008896, 2.376, 0.2299805, 2.376, -0.7568359, 2.376, 0.0527344, , , , , , , , , , , , , , , , , , , , , , 
0.0919038, 0.0119173, 2.3895, -0.5961914, 2.3895, -0.6132812, 2.3895, 0.0356445, 0.0919038, -0.0092317, 2.3895, 0.6533203, 2.3895, -0.6186523, 2.3895, 0.1601562, 0.0919038, -0.0095674, 2.3895, 0.1669922, 2.3895, -0.7011719, 2.3895, -0.324707, 0.0919038, 0.0058747, 2.3895, 0.2182617, 2.3895, -0.765625, 2.3895, 0.0683594, , , , , , , , , , , , , , , , , , , , , , 
0.0924231, 0.0149386, 2.403, -0.5952148, 2.403, -0.6166992, 2.403, 0.0712891, 0.0924231, -0.0085603, 2.403, 0.550293, 2.403, -0.5908203, 2.403, 0.1362305, 0.0924231, -0.010071, 2.403, 0.2416992, 2.403, -0.730957, 2.403, -0.3203125, 0.0924231, 0.0052033, 2.403, 0.2143555, 2.403, -0.7670898, 2.403, 0.0766602, , , , , , , , , , , , , , , , , , , , , , 
0.0929423, 0.0166171, 2.4165, -0.5146484, 2.4165, -0.6113281, 2.4165, 0.0517578, 0.0929423, -0.0082246, 2.4165, 0.4677734, 2.4165, -0.5400391, 2.4165, 0.0991211, 0.0929423, -0.0092317, 2.4165, 0.2607422, 2.4165, -0.7436523, 2.4165, -0.3154297, 0.0929423, 0.0065461, 2.4165, 0.2182617, 2.4165, -0.7568359, 2.4165, 0.0883789, , , , , , , , , , , , , , , , , , , , , , 
0.0934615, 0.0166171, 2.43, -0.4858398, 2.43, -0.5605469, 2.43, 0.0737305, 0.0934615, -0.0077211, 2.43, 0.4584961, 2.43, -0.5112305, 2.43, 0.1547852, 0.0934615, -0.0082246, 2.43, 0.230957, 2.43, -0.7329102, 2.43, -0.3081055, 0.0934615, 0.0058747, 2.43, 0.2246094, 2.43, -0.7573242, 2.43, 0.0947266, , , , , , , , , , , , , , , , , , , , , , 
0.0939808, 0.0199741, 2.4435, -0.5561523, 2.4435, -0.5175781, 2.4435, 0.0463867, 0.0939808, -0.0097353, 2.4435, 0.5004883, 2.4435, -0.5170898, 2.4435, 0.1176758, 0.0939808, -0.0095674, 2.4435, 0.203125, 2.4435, -0.7250977, 2.4435, -0.2885742, 0.0939808, 0.0058747, 2.4435, 0.2182617, 2.4435, -0.7504883, 2.4435, 0.0966797, , , , , , , , , , , , , , , , , , , , , , 
0.0945, 0.0199741, 2.457, -0.5786133, 2.457, -0.5380859, 2.457, 0.0483398, 0.0945, -0.012253, 2.457, 0.5053711, 2.457, -0.5175781, 2.457, 0.0927734, 0.0945, -0.011078, 2.457, 0.2070312, 2.457, -0.7231445, 2.457, -0.2768555, 0.0945, 0.0065461, 2.457, 0.1811523, 2.457, -0.7333984, 2.457, 0.0952148, , , , , , , , , , , , , , , , , , , , , , 
0.0950192, 0.0179599, 2.4705, -0.5893555, 2.4705, -0.5727539, 2.4705, 0.0893555, 0.0950192, -0.0137636, 2.4705, 0.515625, 2.4705, -0.5102539, 2.4705, 0.1254883, 0.0950192, -0.0097353, 2.4705, 0.2192383, 2.4705, -0.7182617, 2.4705, -0.2753906, 0.0950192, 0.008896, 2.4705, 0.1518555, 2.4705, -0.7060547, 2.4705, 0.0917969, , , , , , , , , , , , , , , , , , , , , , 
0.0955385, 0.0206455, 2.484, -0.5756836, 2.484, -0.5825195, 2.484, 0.1074219, 0.0955385, -0.0142672, 2.484, 0.5458984, 2.484, -0.5063477, 2.484, 0.1425781, 0.0955385, -0.0082246, 2.484, 0.2290039, 2.484, -0.6933594, 2.484, -0.2890625, 0.0955385, 0.0115816, 2.484, 0.152832, 2.484, -0.7060547, 2.484, 0.1044922, , , , , , , , , , , , , , , , , , , , , , 
0.0960577, 0.0260166, 2.4975, -0.546875, 2.4975, -0.5385742, 2.4975, 0.074707, 0.0960577, -0.0142672, 2.4975, 0.6245117, 2.4975, -0.4814453, 2.4975, 0.1499023, 0.0960577, -0.0077211, 2.4975, 0.222168, 2.4975, -0.6918945, 2.4975, -0.2919922, 0.0960577, 0.0107424, 2.4975, 0.1572266, 2.4975, -0.7246094, 2.4975, 0.1083984, , , , , , , , , , , , , , , , , , , , , , 
0.0965769, 0.030045, 2.511, -0.550293, 2.511, -0.4804688, 2.511, 0.0878906, 0.0965769, -0.0149386, 2.511, 0.6933594, 2.511, -0.4736328, 2.511, 0.1396484, 0.0965769, -0.0092317, 2.511, 0.1958008, 2.511, -0.7114258, 2.511, -0.284668, 0.0965769, 0.0052033, 2.511, 0.1474609, 2.511, -0.734375, 2.511, 0.1005859, , , , , , , , , , , , , , , , , , , , , , 
0.0970962, 0.0307164, 2.5245, -0.5727539, 2.5245, -0.4672852, 2.5245, 0.074707, 0.0970962, -0.0149386, 2.5245, 0.621582, 2.5245, -0.4541016, 2.5245, 0.1430664, 0.0970962, -0.0112459, 2.5245, 0.1713867, 2.5245, -0.7299805, 2.5245, -0.2460938, 0.0970962, 0.0001678, 2.5245, 0.1298828, 2.5245, -0.7211914, 2.5245, 0.0952148, , , , , , , , , , , , , , , , , , , , , , 
0.0976154, 0.0287022, 2.538, -0.5849609, 2.538, -0.4731445, 2.538, 0.0791016, 0.0976154, -0.0139315, 2.538, 0.5419922, 2.538, -0.4355469, 2.538, 0.1245117, 0.0976154, -0.0125887, 2.538, 0.1757812, 2.538, -0.715332, 2.538, -0.2304688, 0.0976154, -0.0048676, 2.538, 0.1098633, 2.538, -0.7026367, 2.538, 0.0874023, , , , , , , , , , , , , , , , , , , , , , 
0.0981346, 0.0258488, 2.5515, -0.5668945, 2.5515, -0.4667969, 2.5515, 0.0795898, 0.0981346, -0.0129244, 2.5515, 0.4829102, 2.5515, -0.3999023, 2.5515, 0.0859375, 0.0981346, -0.0112459, 2.5515, 0.199707, 2.5515, -0.6831055, 2.5515, -0.2236328, 0.0981346, -0.008896, 2.5515, 0.1005859, 2.5515, -0.6850586, 2.5515, 0.074707, , , , , , , , , , , , , , , , , , , , , , 
0.0986538, 0.0260166, 2.565, -0.5830078, 2.565, -0.4501953, 2.565, 0.0991211, 0.0986538, -0.012253, 2.565, 0.5058594, 2.565, -0.3623047, 2.565, 0.1469727, 0.0986538, -0.0104067, 2.565, 0.2163086, 2.565, -0.6538086, 2.565, -0.2050781, 0.0986538, -0.0109102, 2.565, 0.1015625, 2.565, -0.6762695, 2.565, 0.0712891, , , , , , , , , , , , , , , , , , , , , , 
0.0991731, 0.0256809, 2.5785, -0.605957, 2.5785, -0.4047852, 2.5785, 0.0952148, 0.0991731, -0.0097353, 2.5785, 0.5439453, 2.5785, -0.3491211, 2.5785, 0.1499023, 0.0991731, -0.0099031, 2.5785, 0.2070312, 2.5785, -0.6401367, 2.5785, -0.1982422, 0.0991731, -0.0095674, 2.5785, 0.0957031, 2.5785, -0.659668, 2.5785, 0.0830078, , , , , , , , , , , , , , , , , , , , , , 
0.0996923, 0.0229953, 2.592, -0.6083984, 2.592, -0.3823242, 2.592, 0.1040039, 0.0996923, -0.0068818, 2.592, 0.612793, 2.592, -0.3291016, 2.592, 0.1328125, 0.0996923, -0.0102388, 2.592, 0.1879883, 2.592, -0.6235352, 2.592, -0.1943359, 0.0996923, -0.0075532, 2.592, 0.081543, 2.592, -0.6533203, 2.592, 0.0859375, , , , , , , , , , , , , , , , , , , , , , 
0.1002115, 0.0186313, 2.6055, -0.5800781, 2.6055, -0.3754883, 2.6055, 0.0913086, 0.1002115, -0.005539, 2.6055, 0.6513672, 2.6055, -0.3193359, 2.6055, 0.1298828, 0.1002115, -0.012253, 2.6055, 0.1967773, 2.6055, -0.6166992, 2.6055, -0.1826172, 0.1002115, -0.0045319, 2.6055, 0.0703125, 2.6055, -0.6474609, 2.6055, 0.0708008, , , , , , , , , , , , , , , , , , , , , , 
0.1007308, 0.0159457, 2.619, -0.5332031, 2.619, -0.3461914, 2.619, 0.1289062, 0.1007308, -0.005539, 2.619, 0.6328125, 2.619, -0.2885742, 2.619, 0.1293945, 0.1007308, -0.0142672, 2.619, 0.2265625, 2.619, -0.6137695, 2.619, -0.1601562, 0.1007308, -0.0023499, 2.619, 0.0576172, 2.619, -0.6391602, 2.619, 0.0556641, , , , , , , , , , , , , , , , , , , , , , 
0.10125, 0.0166171, 2.6325, -0.5629883, 2.6325, -0.3081055, 2.6325, 0.1274414, 0.10125, -0.0063783, 2.6325, 0.6181641, 2.6325, -0.2539062, 2.6325, 0.1479492, 0.10125, -0.0146029, 2.6325, 0.21875, 2.6325, -0.6362305, 2.6325, -0.1503906, 0.10125, -0.0005035, 2.6325, 0.043457, 2.6325, -0.6533203, 2.6325, 0.0405273, , , , , , , , , , , , , , , , , , , , , , 
0.1017692, 0.0164492, 2.646, -0.621582, 2.646, -0.2944336, 2.646, 0.0981445, 0.1017692, -0.0090639, 2.646, 0.6484375, 2.646, -0.2397461, 2.646, 0.1533203, 0.1017692, -0.0130922, 2.646, 0.1933594, 2.646, -0.6791992, 2.646, -0.1279297, 0.1017692, 0.0048676, 2.646, 0.0307617, 2.646, -0.6762695, 2.646, 0.0366211, , , , , , , , , , , , , , , , , , , , , , 
0.1022885, 0.0142672, 2.6595, -0.6665039, 2.6595, -0.2788086, 2.6595, 0.1308594, 0.1022885, -0.0099031, 2.6595, 0.7041016, 2.6595, -0.2412109, 2.6595, 0.1474609, 0.1022885, -0.012253, 2.6595, 0.1918945, 2.6595, -0.7246094, 2.6595, -0.1137695, 0.1022885, 0.0105745, 2.6595, 0.0151367, 2.6595, -0.7124023, 2.6595, 0.0600586, , , , , , , , , , , , , , , , , , , , , , 
0.1028077, 0.0129244, 2.673, -0.6425781, 2.673, -0.2568359, 2.673, 0.1313477, 0.1028077, -0.0097353, 2.673, 0.6708984, 2.673, -0.2421875, 2.673, 0.1254883, 0.1028077, -0.0104067, 2.673, 0.2231445, 2.673, -0.7480469, 2.673, -0.1157227, 0.1028077, 0.0171206, 2.673, 0.0073242, 2.673, -0.7348633, 2.673, 0.0800781, , , , , , , , , , , , , , , , , , , , , , 
0.1033269, 0.0124208, 2.6865, -0.6259766, 2.6865, -0.2705078, 2.6865, 0.1655273, 0.1033269, -0.0090639, 2.6865, 0.6254883, 2.6865, -0.2216797, 2.6865, 0.1108398, 0.1033269, -0.0092317, 2.6865, 0.2480469, 2.6865, -0.7368164, 2.6865, -0.1240234, 0.1033269, 0.0221561, 2.6865, -0.0151367, 2.6865, -0.7192383, 2.6865, 0.1020508, , , , , , , , , , , , , , , , , , , , , , 
0.1038462, 0.008896, 2.7, -0.6386719, 2.7, -0.2871094, 2.7, 0.1601562, 0.1038462, -0.0078889, 2.7, 0.6328125, 2.7, -0.2104492, 2.7, 0.0996094, 0.1038462, -0.0077211, 2.7, 0.253418, 2.7, -0.7099609, 2.7, -0.1044922, 0.1038462, 0.0280308, 2.7, -0.0478516, 2.7, -0.7148438, 2.7, 0.1010742, , , , , , , , , , , , , , , , , , , , , , 
0.1043654, 0.0018463, 2.7135, -0.65625, 2.7135, -0.2563477, 2.7135, 0.2070312, 0.1043654, -0.005539, 2.7135, 0.6699219, 2.7135, -0.1816406, 2.7135, 0.0771484, 0.1043654, -0.0058747, 2.7135, 0.2451172, 2.7135, -0.7041016, 2.7135, -0.0830078, 0.1043654, 0.0354162, 2.7135, -0.0566406, 2.7135, -0.7124023, 2.7135, 0.1010742, , , , , , , , , , , , , , , , , , , , , , 
0.1048846, -0.0015106, 2.727, -0.6772461, 2.727, -0.2333984, 2.727, 0.2299805, 0.1048846, -0.0041962, 2.727, 0.6943359, 2.727, -0.1728516, 2.727, 0.1103516, 0.1048846, -0.0035248, 2.727, 0.2172852, 2.727, -0.7324219, 2.727, -0.0834961, 0.1048846, 0.0404517, 2.727, -0.0805664, 2.727, -0.7094727, 2.727, 0.1088867, , , , , , , , , , , , , , , , , , , , , , 
0.1054038, -0.0018463, 2.7405, -0.6616211, 2.7405, -0.1674805, 2.7405, 0.1923828, 0.1054038, -0.0036927, 2.7405, 0.7592773, 2.7405, -0.1777344, 2.7405, 0.1142578, 0.1054038, -0.0018463, 2.7405, 0.2055664, 2.7405, -0.7514648, 2.7405, -0.0844727, 0.1054038, 0.0428016, 2.7405, -0.137207, 2.7405, -0.7412109, 2.7405, 0.1318359, , , , , , , , , , , , , , , , , , , , , , 
0.1059231, -0.0035248, 2.754, -0.6411133, 2.754, -0.1469727, 2.754, 0.2451172, 0.1059231, -0.0041962, 2.754, 0.8378906, 2.754, -0.1806641, 2.754, 0.0864258, 0.1059231, -0.0006714, 2.754, 0.1855469, 2.754, -0.7929688, 2.754, -0.0708008, 0.1059231, 0.0441444, 2.754, -0.1977539, 2.754, -0.7885742, 2.754, 0.1660156, , , , , , , , , , , , , , , , , , , , , , 
0.1064423, -0.0057069, 2.7675, -0.6855469, 2.7675, -0.190918, 2.7675, 0.2548828, 0.1064423, -0.0058747, 2.7675, 0.8237305, 2.7675, -0.1850586, 2.7675, 0.0737305, 0.1064423, -0.0005035, 2.7675, 0.1962891, 2.7675, -0.8276367, 2.7675, -0.0454102, 0.1064423, 0.04448, 2.7675, -0.199707, 2.7675, -0.8134766, 2.7675, 0.1865234, , , , , , , , , , , , , , , , , , , , , , 
0.1069615, -0.0058747, 2.781, -0.7255859, 2.781, -0.2241211, 2.781, 0.2319336, 0.1069615, -0.0073854, 2.781, 0.7641602, 2.781, -0.190918, 2.781, 0.0737305, 0.1069615, -0.002182, 2.781, 0.2421875, 2.781, -0.8364258, 2.781, -0.0410156, 0.1069615, 0.0421302, 2.781, -0.171875, 2.781, -0.8076172, 2.781, 0.1948242, , , , , , , , , , , , , , , , , , , , , , 
0.1074808, -0.0048676, 2.7945, -0.7768555, 2.7945, -0.199707, 2.7945, 0.2431641, 0.1074808, -0.0068818, 2.7945, 0.7617188, 2.7945, -0.1875, 2.7945, 0.1196289, 0.1074808, -0.005539, 2.7945, 0.2871094, 2.7945, -0.8266602, 2.7945, -0.0605469, 0.1074808, 0.033402, 2.7945, -0.1606445, 2.7945, -0.8349609, 2.7945, 0.1977539, , , , , , , , , , , , , , , , , , , , , , 
0.108, -0.0018463, 2.808, -0.8061523, 2.808, -0.1625977, 2.808, 0.2529297, 0.108, -0.0057069, 2.808, 0.7841797, 2.808, -0.1894531, 2.808, 0.1298828, 0.108, -0.0070497, 2.808, 0.3168945, 2.808, -0.8369141, 2.808, -0.0576172, 0.108, 0.026688, 2.808, -0.1220703, 2.808, -0.8608398, 2.808, 0.199707, , , , , , , , , , , , , , , , , , , , , , 
0.1085192, 0.0038605, 2.8215, -0.7631836, 2.8215, -0.1430664, 2.8215, 0.21875, 0.1085192, -0.0062104, 2.8215, 0.8291016, 2.8215, -0.1948242, 2.8215, 0.1240234, 0.1085192, -0.0058747, 2.8215, 0.3408203, 2.8215, -0.8618164, 2.8215, -0.0708008, 0.1085192, 0.0236667, 2.8215, -0.1010742, 2.8215, -0.894043, 2.8215, 0.1938477, , , , , , , , , , , , , , , , , , , , , , 
0.1090385, 0.0129244, 2.835, -0.7460938, 2.835, -0.1557617, 2.835, 0.2416992, 0.1090385, -0.0085603, 2.835, 0.8510742, 2.835, -0.2026367, 2.835, 0.1367188, 0.1090385, -0.0062104, 2.835, 0.3491211, 2.835, -0.8896484, 2.835, -0.0864258, 0.1090385, 0.0221561, 2.835, -0.0961914, 2.835, -0.9257812, 2.835, 0.1923828, , , , , , , , , , , , , , , , , , , , , , 
0.1095577, 0.0204776, 2.8485, -0.8061523, 2.8485, -0.1884766, 2.8485, 0.2216797, 0.1095577, -0.0105745, 2.8485, 0.8603516, 2.8485, -0.2236328, 2.8485, 0.1518555, 0.1095577, -0.0070497, 2.8485, 0.3417969, 2.8485, -0.9077148, 2.8485, -0.0996094, 0.1095577, 0.017792, 2.8485, -0.0898438, 2.8485, -0.9272461, 2.8485, 0.1943359, , , , , , , , , , , , , , , , , , , , , , 
0.1100769, 0.0226596, 2.862, -0.8583984, 2.862, -0.2207031, 2.862, 0.2114258, 0.1100769, -0.0102388, 2.862, 0.8334961, 2.862, -0.2280273, 2.862, 0.137207, 0.1100769, -0.0065461, 2.862, 0.3344727, 2.862, -0.8984375, 2.862, -0.1079102, 0.1100769, 0.0139315, 2.862, -0.0927734, 2.862, -0.9233398, 2.862, 0.1972656, , , , , , , , , , , , , , , , , , , , , , 
0.1105962, 0.0196384, 2.8755, -0.859375, 2.8755, -0.2299805, 2.8755, 0.2280273, 0.1105962, -0.0068818, 2.8755, 0.840332, 2.8755, -0.1943359, 2.8755, 0.1582031, 0.1105962, -0.0058747, 2.8755, 0.3364258, 2.8755, -0.8935547, 2.8755, -0.1157227, 0.1105962, 0.0120851, 2.8755, -0.1079102, 2.8755, -0.9199219, 2.8755, 0.206543, , , , , , , , , , , , , , , , , , , , , , 
0.1111154, 0.0193027, 2.889, -0.8544922, 2.889, -0.1967773, 2.889, 0.2050781, 0.1111154, -0.0068818, 2.889, 0.8740234, 2.889, -0.1738281, 2.889, 0.1923828, 0.1111154, -0.0062104, 2.889, 0.3271484, 2.889, -0.9042969, 2.889, -0.1245117, 0.1111154, 0.0125887, 2.889, -0.1123047, 2.889, -0.9228516, 2.889, 0.2045898, , , , , , , , , , , , , , , , , , , , , , 
0.1116346, 0.0213169, 2.9025, -0.8359375, 2.9025, -0.175293, 2.9025, 0.199707, 0.1116346, -0.008896, 2.9025, 0.9072266, 2.9025, -0.1621094, 2.9025, 0.1894531, 0.1116346, -0.0072175, 2.9025, 0.2993164, 2.9025, -0.9262695, 2.9025, -0.1230469, 0.1116346, 0.0115816, 2.9025, -0.1118164, 2.9025, -0.9384766, 2.9025, 0.1972656, , , , , , , , , , , , , , , , , , , , , , 
0.1121538, 0.0236667, 2.916, -0.8413086, 2.916, -0.1489258, 2.916, 0.206543, 0.1121538, -0.0095674, 2.916, 0.9111328, 2.916, -0.1601562, 2.916, 0.2001953, 0.1121538, -0.0070497, 2.916, 0.265625, 2.916, -0.9404297, 2.916, -0.1206055, 0.1121538, 0.0109102, 2.916, -0.1166992, 2.916, -0.9418945, 2.916, 0.1801758, , , , , , , , , , , , , , , , , , , , , , 
0.1126731, 0.023331, 2.9295, -0.8764648, 2.9295, -0.1791992, 2.9295, 0.2158203, 0.1126731, -0.0102388, 2.9295, 0.9208984, 2.9295, -0.1767578, 2.9295, 0.1884766, 0.1126731, -0.0062104, 2.9295, 0.2519531, 2.9295, -0.9384766, 2.9295, -0.1186523, 0.1126731, 0.0139315, 2.9295, -0.1152344, 2.9295, -0.9301758, 2.9295, 0.1704102, , , , , , , , , , , , , , , , , , , , , , 
0.1131923, 0.0206455, 2.943, -0.8637695, 2.943, -0.2036133, 2.943, 0.2207031, 0.1131923, -0.0119173, 2.943, 0.9169922, 2.943, -0.1655273, 2.943, 0.1435547, 0.1131923, -0.0062104, 2.943, 0.2749023, 2.943, -0.9169922, 2.943, -0.1191406, 0.1131923, 0.0149386, 2.943, -0.1040039, 2.943, -0.921875, 2.943, 0.1791992, , , , , , , , , , , , , , , , , , , , , , 
0.1137115, 0.0159457, 2.9565, -0.8588867, 2.9565, -0.1972656, 2.9565, 0.2333984, 0.1137115, -0.0112459, 2.9565, 0.8979492, 2.9565, -0.1601562, 2.9565, 0.144043, 0.1137115, -0.0058747, 2.9565, 0.3242188, 2.9565, -0.8955078, 2.9565, -0.1132812, 0.1137115, 0.0127565, 2.9565, -0.0932617, 2.9565, -0.9233398, 2.9565, 0.2055664, , , , , , , , , , , , , , , , , , , , , , 
0.1142308, 0.0119173, 2.97, -0.8540039, 2.97, -0.1953125, 2.97, 0.2475586, 0.1142308, -0.0092317, 2.97, 0.831543, 2.97, -0.1665039, 2.97, 0.1376953, 0.1142308, -0.0045319, 2.97, 0.3720703, 2.97, -0.8789062, 2.97, -0.1079102, 0.1142308, 0.0102388, 2.97, -0.0834961, 2.97, -0.9052734, 2.97, 0.2099609, , , , , , , , , , , , , , , , , , , , , , 
0.11475, 0.0075532, 2.9835, -0.8417969, 2.9835, -0.1875, 2.9835, 0.2573242, 0.11475, -0.0083925, 2.9835, 0.8183594, 2.9835, -0.1499023, 2.9835, 0.1220703, 0.11475, -0.0028534, 2.9835, 0.3994141, 2.9835, -0.8730469, 2.9835, -0.1020508, 0.11475, 0.0082246, 2.9835, -0.090332, 2.9835, -0.9023438, 2.9835, 0.2050781, , , , , , , , , , , , , , , , , , , , , , 
0.1152692, 0.0072175, 2.997, -0.8212891, 2.997, -0.1538086, 2.997, 0.2626953, 0.1152692, -0.008896, 2.997, 0.8779297, 2.997, -0.1464844, 2.997, 0.1391602, 0.1152692, -0.0015106, 2.997, 0.3989258, 2.997, -0.8730469, 2.997, -0.0991211, 0.1152692, 0.0072175, 2.997, -0.0991211, 2.997, -0.9179688, 2.997, 0.2192383, , , , , , , , , , , , , , , , , , , , , , 
0.1157885, 0.008896, 3.0105, -0.8222656, 3.0105, -0.1435547, 3.0105, 0.2612305, 0.1157885, -0.0099031, 3.0105, 0.9399414, 3.0105, -0.1484375, 3.0105, 0.1367188, 0.1157885, -0.0018463, 3.0105, 0.3740234, 3.0105, -0.8847656, 3.0105, -0.0932617, 0.1157885, 0.0092317, 3.0105, -0.1196289, 3.0105, -0.9321289, 3.0105, 0.2167969, , , , , , , , , , , , , , , , , , , , , , 
0.1163077, 0.0058747, 3.024, -0.8383789, 3.024, -0.1533203, 3.024, 0.2548828, 0.1163077, -0.0097353, 3.024, 0.9643555, 3.024, -0.1557617, 3.024, 0.1435547, 0.1163077, -0.002182, 3.024, 0.3320312, 3.024, -0.9189453, 3.024, -0.0976562, 0.1163077, 0.0115816, 3.024, -0.1279297, 3.024, -0.9418945, 3.024, 0.2109375, , , , , , , , , , , , , , , , , , , , , , 
0.1168269, 0.0072175, 3.0375, -0.8803711, 3.0375, -0.1586914, 3.0375, 0.2539062, 0.1168269, -0.0068818, 3.0375, 0.9423828, 3.0375, -0.1425781, 3.0375, 0.1606445, 0.1168269, -0.002182, 3.0375, 0.3134766, 3.0375, -0.949707, 3.0375, -0.090332, 0.1168269, 0.0092317, 3.0375, -0.1376953, 3.0375, -0.9584961, 3.0375, 0.2036133, , , , , , , , , , , , , , , , , , , , , , 
0.1173462, 0.0092317, 3.051, -0.9287109, 3.051, -0.1645508, 3.051, 0.2636719, 0.1173462, -0.0041962, 3.051, 0.8911133, 3.051, -0.140625, 3.051, 0.1547852, 0.1173462, -0.0035248, 3.051, 0.3271484, 3.051, -0.9609375, 3.051, -0.0756836, 0.1173462, 0.0018463, 3.051, -0.1381836, 3.051, -0.9643555, 3.051, 0.2084961, , , , , , , , , , , , , , , , , , , , , , 
0.1178654, 0.0114137, 3.0645, -0.9443359, 3.0645, -0.1655273, 3.0645, 0.2529297, 0.1178654, -0.0035248, 3.0645, 0.9121094, 3.0645, -0.1245117, 3.0645, 0.1591797, 0.1178654, -0.0065461, 3.0645, 0.34375, 3.0645, -0.9604492, 3.0645, -0.0883789, 0.1178654, -0.0036927, 3.0645, -0.152832, 3.0645, -0.9711914, 3.0645, 0.203125, , , , , , , , , , , , , , , , , , , , , , 
0.1183846, 0.0159457, 3.078, -0.9228516, 3.078, -0.1567383, 3.078, 0.2519531, 0.1183846, -0.0045319, 3.078, 0.9404297, 3.078, -0.1220703, 3.078, 0.1679688, 0.1183846, -0.0092317, 3.078, 0.3442383, 3.078, -0.9541016, 3.078, -0.1079102, 0.1183846, -0.0048676, 3.078, -0.1572266, 3.078, -0.980957, 3.078, 0.2104492, , , , , , , , , , , , , , , , , , , , , , 
0.1189038, 0.0251774, 3.0915, -0.9038086, 3.0915, -0.1469727, 3.0915, 0.2949219, 0.1189038, -0.0048676, 3.0915, 0.9648438, 3.0915, -0.1186523, 3.0915, 0.1738281, 0.1189038, -0.0105745, 3.0915, 0.3271484, 3.0915, -0.9555664, 3.0915, -0.0786133, 0.1189038, -0.0075532, 3.0915, -0.1586914, 3.0915, -0.9794922, 3.0915, 0.2133789, , , , , , , , , , , , , , , , , , , , , , 
0.1194231, 0.0332341, 3.105, -0.9077148, 3.105, -0.1391602, 3.105, 0.2871094, 0.1194231, -0.0043641, 3.105, 0.9956055, 3.105, -0.1279297, 3.105, 0.1591797, 0.1194231, -0.0112459, 3.105, 0.3330078, 3.105, -0.972168, 3.105, -0.0673828, 0.1194231, -0.0095674, 3.105, -0.1557617, 3.105, -0.9731445, 3.105, 0.2045898, , , , , , , , , , , , , , , , , , , , , , 
0.1199423, 0.0354162, 3.1185, -0.8867188, 3.1185, -0.137207, 3.1185, 0.2832031, 0.1199423, -0.0048676, 3.1185, 1.0112305, 3.1185, -0.137207, 3.1185, 0.1352539, 0.1199423, -0.0115816, 3.1185, 0.347168, 3.1185, -0.9775391, 3.1185, -0.0966797, 0.1199423, -0.0099031, 3.1185, -0.1386719, 3.1185, -0.9770508, 3.1185, 0.2143555, , , , , , , , , , , , , , , , , , , , , , 
0.1204615, 0.0391089, 3.132, -0.8886719, 3.132, -0.1533203, 3.132, 0.3154297, 0.1204615, -0.0062104, 3.132, 0.9790039, 3.132, -0.1420898, 3.132, 0.1391602, 0.1204615, -0.012253, 3.132, 0.3549805, 3.132, -0.9726562, 3.132, -0.1103516, 0.1204615, -0.0078889, 3.132, -0.1171875, 3.132, -0.9882812, 3.132, 0.2333984, , , , , , , , , , , , , , , , , , , , , , 
0.1209808, 0.0414588, 3.1455, -0.9277344, 3.1455, -0.1777344, 3.1455, 0.2817383, 0.1209808, -0.0075532, 3.1455, 0.9467773, 3.1455, -0.1445312, 3.1455, 0.1484375, 0.1209808, -0.0115816, 3.1455, 0.3769531, 3.1455, -0.9599609, 3.1455, -0.1152344, 0.1209808, -0.0035248, 3.1455, -0.1044922, 3.1455, -0.9941406, 3.1455, 0.2192383, , , , , , , , , , , , , , , , , , , , , , 
0.1215, 0.0360876, 3.159, -0.9526367, 3.159, -0.2026367, 3.159, 0.2978516, 0.1215, -0.0078889, 3.159, 0.9594727, 3.159, -0.1430664, 3.159, 0.1503906, 0.1215, -0.0099031, 3.159, 0.3994141, 3.159, -0.9545898, 3.159, -0.1079102, 0.1215, 0.0008392, 3.159, -0.0849609, 3.159, -0.984375, 3.159, 0.2094727, , , , , , , , , , , , , , , , , , , , , , 
0.1220192, 0.0229953, 3.1725, -0.9072266, 3.1725, -0.1904297, 3.1725, 0.2861328, 0.1220192, -0.0065461, 3.1725, 0.9780273, 3.1725, -0.1469727, 3.1725, 0.1459961, 0.1220192, -0.0109102, 3.1725, 0.4018555, 3.1725, -0.9487305, 3.1725, -0.0981445, 0.1220192, 0.0048676, 3.1725, -0.0854492, 3.1725, -0.9794922, 3.1725, 0.2128906, , , , , , , , , , , , , , , , , , , , , , 
0.1225385, 0.0102388, 3.186, -0.8813477, 3.186, -0.1674805, 3.186, 0.2685547, 0.1225385, -0.0057069, 3.186, 0.9736328, 3.186, -0.1577148, 3.186, 0.159668, 0.1225385, -0.0129244, 3.186, 0.3691406, 3.186, -0.9472656, 3.186, -0.1098633, 0.1225385, 0.0078889, 3.186, -0.1118164, 3.186, -0.9692383, 3.186, 0.2148438, , , , , , , , , , , , , , , , , , , , , , 
0.1230577, 0.002182, 3.1995, -0.9243164, 3.1995, -0.1757812, 3.1995, 0.2753906, 0.1230577, -0.0048676, 3.1995, 0.9702148, 3.1995, -0.1728516, 3.1995, 0.168457, 0.1230577, -0.012253, 3.1995, 0.3422852, 3.1995, -0.9438477, 3.1995, -0.1186523, 0.1230577, 0.0119173, 3.1995, -0.1274414, 3.1995, -0.9672852, 3.1995, 0.2143555, , , , , , , , , , , , , , , , , , , , , , 
0.1235769, -0.0001678, 3.213, -0.9477539, 3.213, -0.2109375, 3.213, 0.2763672, 0.1235769, -0.0038605, 3.213, 0.9711914, 3.213, -0.175293, 3.213, 0.1679688, 0.1235769, -0.010071, 3.213, 0.3457031, 3.213, -0.9423828, 3.213, -0.1098633, 0.1235769, 0.0184634, 3.213, -0.1279297, 3.213, -0.9702148, 3.213, 0.2177734, , , , , , , , , , , , , , , , , , , , , , 
0.1240962, -0.0011749, 3.2265, -0.9536133, 3.2265, -0.2207031, 3.2265, 0.2797852, 0.1240962, -0.0048676, 3.2265, 0.9697266, 3.2265, -0.1704102, 3.2265, 0.1679688, 0.1240962, -0.0099031, 3.2265, 0.3549805, 3.2265, -0.9433594, 3.2265, -0.1181641, 0.1240962, 0.026688, 3.2265, -0.1201172, 3.2265, -0.9780273, 3.2265, 0.2172852, , , , , , , , , , , , , , , , , , , , , , 
0.1246154, 0.0005035, 3.24, -0.949707, 3.24, -0.2143555, 3.24, 0.2768555, 0.1246154, -0.0045319, 3.24, 0.9838867, 3.24, -0.1611328, 3.24, 0.184082, 0.1246154, -0.0112459, 3.24, 0.3574219, 3.24, -0.956543, 3.24, -0.1293945, 0.1246154, 0.0344091, 3.24, -0.1069336, 3.24, -0.9736328, 3.24, 0.2182617, , , , , , , , , , , , , , , , , , , , , , 
0.1251346, 0.0018463, 3.2535, -0.9345703, 3.2535, -0.190918, 3.2535, 0.2719727, 0.1251346, -0.0038605, 3.2535, 1, 3.2535, -0.1489258, 3.2535, 0.1733398, 0.1251346, -0.0099031, 3.2535, 0.3564453, 3.2535, -0.9599609, 3.2535, -0.1235352, 0.1251346, 0.0381018, 3.2535, -0.0957031, 3.2535, -0.96875, 3.2535, 0.2216797, , , , , , , , , , , , , , , , , , , , , , 
0.1256538, -0.0015106, 3.267, -0.9091797, 3.267, -0.1816406, 3.267, 0.2626953, 0.1256538, -0.005539, 3.267, 0.9926758, 3.267, -0.1425781, 3.267, 0.1782227, 0.1256538, -0.0083925, 3.267, 0.3574219, 3.267, -0.9570312, 3.267, -0.1181641, 0.1256538, 0.0394446, 3.267, -0.0878906, 3.267, -0.9726562, 3.267, 0.2114258, , , , , , , , , , , , , , , , , , , , , , 
0.1261731, -0.0041962, 3.2805, -0.9204102, 3.2805, -0.1772461, 3.2805, 0.269043, 0.1261731, -0.0075532, 3.2805, 0.9589844, 3.2805, -0.1416016, 3.2805, 0.1904297, 0.1261731, -0.0078889, 3.2805, 0.3662109, 3.2805, -0.9526367, 3.2805, -0.1152344, 0.1261731, 0.0411231, 3.2805, -0.0849609, 3.2805, -0.9765625, 3.2805, 0.2080078, , , , , , , , , , , , , , , , , , , , , , 
0.1266923, -0.008896, 3.294, -0.9536133, 3.294, -0.1875, 3.294, 0.2602539, 0.1266923, -0.0085603, 3.294, 0.9511719, 3.294, -0.1450195, 3.294, 0.1845703, 0.1266923, -0.0062104, 3.294, 0.3818359, 3.294, -0.9472656, 3.294, -0.1210938, 0.1266923, 0.0414588, 3.294, -0.0883789, 3.294, -0.96875, 3.294, 0.2026367, , , , , , , , , , , , , , , , , , , , , , 
0.1272115, -0.0109102, 3.3075, -0.9550781, 3.3075, -0.1914062, 3.3075, 0.2592773, 0.1272115, -0.0082246, 3.3075, 0.987793, 3.3075, -0.1508789, 3.3075, 0.190918, 0.1272115, -0.0043641, 3.3075, 0.387207, 3.3075, -0.9433594, 3.3075, -0.1152344, 0.1272115, 0.0394446, 3.3075, -0.0996094, 3.3075, -0.9648438, 3.3075, 0.2148438, , , , , , , , , , , , , , , , , , , , , , 
0.1277308, -0.0058747, 3.321, -0.9282227, 3.321, -0.1772461, 3.321, 0.2558594, 0.1277308, -0.0075532, 3.321, 0.9609375, 3.321, -0.1479492, 3.321, 0.1845703, 0.1277308, -0.0050355, 3.321, 0.3735352, 3.321, -0.9379883, 3.321, -0.1142578, 0.1277308, 0.0327306, 3.321, -0.1142578, 3.321, -0.9619141, 3.321, 0.2231445, , , , , , , , , , , , , , , , , , , , , , 
0.12825, 0.0023499, 3.3345, -0.9091797, 3.3345, -0.1689453, 3.3345, 0.2563477, 0.12825, -0.0068818, 3.3345, 0.9355469, 3.3345, -0.1435547, 3.3345, 0.1791992, 0.12825, -0.0062104, 3.3345, 0.3520508, 3.3345, -0.9414062, 3.3345, -0.112793, 0.12825, 0.0273594, 3.3345, -0.121582, 3.3345, -0.9575195, 3.3345, 0.2231445, , , , , , , , , , , , , , , , , , , , , , 
0.1287692, 0.0078889, 3.348, -0.9003906, 3.348, -0.1704102, 3.348, 0.2519531, 0.1287692, -0.0060426, 3.348, 0.9291992, 3.348, -0.128418, 3.348, 0.1835938, 0.1287692, -0.005539, 3.348, 0.3344727, 3.348, -0.9477539, 3.348, -0.1176758, 0.1287692, 0.0236667, 3.348, -0.1220703, 3.348, -0.9545898, 3.348, 0.2182617, , , , , , , , , , , , , , , , , , , , , , 
0.1292885, 0.0132601, 3.3615, -0.9130859, 3.3615, -0.1674805, 3.3615, 0.2578125, 0.1292885, -0.005539, 3.3615, 0.9472656, 3.3615, -0.1264648, 3.3615, 0.1918945, 0.1292885, -0.0031891, 3.3615, 0.3305664, 3.3615, -0.9379883, 3.3615, -0.1186523, 0.1292885, 0.0196384, 3.3615, -0.1137695, 3.3615, -0.9511719, 3.3615, 0.2207031, , , , , , , , , , , , , , , , , , , , , , 
0.1298077, 0.0125887, 3.375, -0.9301758, 3.375, -0.159668, 3.375, 0.246582, 0.1298077, -0.0052033, 3.375, 0.9267578, 3.375, -0.1254883, 3.375, 0.1865234, 0.1298077, -0.002182, 3.375, 0.3481445, 3.375, -0.9389648, 3.375, -0.1049805, 0.1298077, 0.0164492, 3.375, -0.1196289, 3.375, -0.9516602, 3.375, 0.2163086, , , , , , , , , , , , , , , , , , , , , , 
0.1303269, 0.0102388, 3.3885, -0.9399414, 3.3885, -0.1474609, 3.3885, 0.2392578, 0.1303269, -0.0063783, 3.3885, 0.9316406, 3.3885, -0.125, 3.3885, 0.2163086, 0.1303269, -0.0038605, 3.3885, 0.3637695, 3.3885, -0.9428711, 3.3885, -0.1035156, 0.1303269, 0.0137636, 3.3885, -0.1206055, 3.3885, -0.9526367, 3.3885, 0.2138672, , , , , , , , , , , , , , , , , , , , , , 
0.1308462, 0.0075532, 3.402, -0.921875, 3.402, -0.1518555, 3.402, 0.2480469, 0.1308462, -0.0072175, 3.402, 0.9580078, 3.402, -0.1293945, 3.402, 0.2050781, 0.1308462, -0.0065461, 3.402, 0.3671875, 3.402, -0.9448242, 3.402, -0.105957, 0.1308462, 0.0112459, 3.402, -0.1162109, 3.402, -0.9526367, 3.402, 0.2133789, , , , , , , , , , , , , , , , , , , , , , 
0.1313654, 0.0043641, 3.4155, -0.9086914, 3.4155, -0.1625977, 3.4155, 0.2568359, 0.1313654, -0.008896, 3.4155, 0.9594727, 3.4155, -0.1289062, 3.4155, 0.1791992, 0.1313654, -0.0097353, 3.4155, 0.3637695, 3.4155, -0.9433594, 3.4155, -0.1088867, 0.1313654, 0.0112459, 3.4155, -0.105957, 3.4155, -0.9541016, 3.4155, 0.2133789, , , , , , , , , , , , , , , , , , , , , , 
0.1318846, 0.0092317, 3.429, -0.8984375, 3.429, -0.1650391, 3.429, 0.2661133, 0.1318846, -0.0082246, 3.429, 0.9589844, 3.429, -0.1171875, 3.429, 0.1918945, 0.1318846, -0.0125887, 3.429, 0.3598633, 3.429, -0.9389648, 3.429, -0.1147461, 0.1318846, 0.0124208, 3.429, -0.1079102, 3.429, -0.9555664, 3.429, 0.2202148, , , , , , , , , , , , , , , , , , , , , , 
0.1324038, 0.0179599, 3.4425, -0.887207, 3.4425, -0.152832, 3.4425, 0.2666016, 0.1324038, -0.0072175, 3.4425, 0.9438477, 3.4425, -0.1074219, 3.4425, 0.1958008, 0.1324038, -0.0135958, 3.4425, 0.3623047, 3.4425, -0.9365234, 3.4425, -0.1088867, 0.1324038, 0.0105745, 3.4425, -0.1171875, 3.4425, -0.9472656, 3.4425, 0.2177734, , , , , , , , , , , , , , , , , , , , , , 
0.1329231, 0.0193027, 3.456, -0.8852539, 3.456, -0.1464844, 3.456, 0.2641602, 0.1329231, -0.0075532, 3.456, 0.9287109, 3.456, -0.1030273, 3.456, 0.1757812, 0.1329231, -0.0124208, 3.456, 0.3583984, 3.456, -0.9418945, 3.456, -0.0976562, 0.1329231, 0.0099031, 3.456, -0.1206055, 3.456, -0.9458008, 3.456, 0.2089844, , , , , , , , , , , , , , , , , , , , , , 
0.1334423, 0.0199741, 3.4695, -0.9116211, 3.4695, -0.1547852, 3.4695, 0.2641602, 0.1334423, -0.0068818, 3.4695, 0.9375, 3.4695, -0.1157227, 3.4695, 0.1831055, 0.1334423, -0.012253, 3.4695, 0.3452148, 3.4695, -0.9375, 3.4695, -0.1030273, 0.1334423, 0.0102388, 3.4695, -0.1235352, 3.4695, -0.9541016, 3.4695, 0.2133789, , , , , , , , , , , , , , , , , , , , , , 
0.1339615, 0.0250095, 3.483, -0.9140625, 3.483, -0.1630859, 3.483, 0.2646484, 0.1339615, -0.0082246, 3.483, 0.9555664, 3.483, -0.121582, 3.483, 0.1889648, 0.1339615, -0.0135958, 3.483, 0.3500977, 3.483, -0.9375, 3.483, -0.1083984, 0.1339615, 0.0085603, 3.483, -0.128418, 3.483, -0.9619141, 3.483, 0.21875, , , , , , , , , , , , , , , , , , , , , , 
0.1344808, 0.0273594, 3.4965, -0.9121094, 3.4965, -0.1689453, 3.4965, 0.2709961, 0.1344808, -0.0095674, 3.4965, 0.953125, 3.4965, -0.1254883, 3.4965, 0.1850586, 0.1344808, -0.0129244, 3.4965, 0.3564453, 3.4965, -0.9555664, 3.4965, -0.0996094, 0.1344808, 0.0070497, 3.4965, -0.1328125, 3.4965, -0.9746094, 3.4965, 0.2177734, , , , , , , , , , , , , , , , , , , , , , 
0.135, 0.0307164, 3.51, -0.9238281, 3.51, -0.1689453, 3.51, 0.2685547, 0.135, -0.0102388, 3.51, 0.9667969, 3.51, -0.1293945, 3.51, 0.1943359, 0.135, -0.0115816, 3.51, 0.3613281, 3.51, -0.9599609, 3.51, -0.0976562, 0.135, 0.0058747, 3.51, -0.1259766, 3.51, -0.9702148, 3.51, 0.2133789, , , , , , , , , , , , , , , , , , , , , , 
0.1355192, 0.0323949, 3.5235, -0.9204102, 3.5235, -0.1621094, 3.5235, 0.2768555, 0.1355192, -0.0082246, 3.5235, 0.9736328, 3.5235, -0.1376953, 3.5235, 0.1904297, 0.1355192, -0.0124208, 3.5235, 0.3735352, 3.5235, -0.9399414, 3.5235, -0.1040039, 0.1355192, 0.0062104, 3.5235, -0.1152344, 3.5235, -0.9628906, 3.5235, 0.2177734, , , , , , , , , , , , , , , , , , , , , , 
0.1360385, 0.0313878, 3.537, -0.9003906, 3.537, -0.1625977, 3.537, 0.2744141, 0.1360385, -0.0072175, 3.537, 0.9643555, 3.537, -0.1274414, 3.537, 0.1713867, 0.1360385, -0.0129244, 3.537, 0.3730469, 3.537, -0.9311523, 3.537, -0.1079102, 0.1360385, 0.005539, 3.537, -0.1240234, 3.537, -0.9609375, 3.537, 0.2250977, , , , , , , , , , , , , , , , , , , , , , 
0.1365577, 0.033402, 3.5505, -0.8999023, 3.5505, -0.1591797, 3.5505, 0.2856445, 0.1365577, -0.0062104, 3.5505, 0.9536133, 3.5505, -0.1142578, 3.5505, 0.175293, 0.1365577, -0.012253, 3.5505, 0.3632812, 3.5505, -0.9321289, 3.5505, -0.1035156, 0.1365577, 0.0008392, 3.5505, -0.1396484, 3.5505, -0.9594727, 3.5505, 0.2236328, , , , , , , , , , , , , , , , , , , , , , 
0.1370769, 0.0386053, 3.564, -0.9208984, 3.564, -0.1542969, 3.564, 0.2919922, 0.1370769, -0.005539, 3.564, 0.9575195, 3.564, -0.1064453, 3.564, 0.1674805, 0.1370769, -0.0109102, 3.564, 0.3525391, 3.564, -0.9462891, 3.564, -0.0839844, 0.1370769, -0.0065461, 3.564, -0.1503906, 3.564, -0.9580078, 3.564, 0.2231445, , , , , , , , , , , , , , , , , , , , , , 
0.1375962, 0.0414588, 3.5775, -0.921875, 3.5775, -0.1538086, 3.5775, 0.2890625, 0.1375962, -0.0082246, 3.5775, 0.9667969, 3.5775, -0.1069336, 3.5775, 0.1630859, 0.1375962, -0.0095674, 3.5775, 0.3500977, 3.5775, -0.9526367, 3.5775, -0.0761719, 0.1375962, -0.0112459, 3.5775, -0.1518555, 3.5775, -0.9536133, 3.5775, 0.2246094, , , , , , , , , , , , , , , , , , , , , , 
0.1381154, 0.036759, 3.591, -0.9140625, 3.591, -0.1601562, 3.591, 0.2954102, 0.1381154, -0.0082246, 3.591, 0.972168, 3.591, -0.1196289, 3.591, 0.159668, 0.1381154, -0.010071, 3.591, 0.3608398, 3.591, -0.9462891, 3.591, -0.081543, 0.1381154, -0.0149386, 3.591, -0.1416016, 3.591, -0.9570312, 3.591, 0.2280273, , , , , , , , , , , , , , , , , , , , , , 
0.1386346, 0.0280308, 3.6045, -0.9111328, 3.6045, -0.1557617, 3.6045, 0.296875, 0.1386346, -0.0065461, 3.6045, 0.9697266, 3.6045, -0.1235352, 3.6045, 0.1586914, 0.1386346, -0.0127565, 3.6045, 0.3701172, 3.6045, -0.9418945, 3.6045, -0.0981445, 0.1386346, -0.0166171, 3.6045, -0.1367188, 3.6045, -0.9697266, 3.6045, 0.2338867, , , , , , , , , , , , , , , , , , , , , , 
0.1391538, 0.0226596, 3.618, -0.9243164, 3.618, -0.1494141, 3.618, 0.3061523, 0.1391538, -0.0062104, 3.618, 0.9736328, 3.618, -0.1176758, 3.618, 0.1679688, 0.1391538, -0.0139315, 3.618, 0.3818359, 3.618, -0.9482422, 3.618, -0.0976562, 0.1391538, -0.0166171, 3.618, -0.1352539, 3.618, -0.9692383, 3.618, 0.2358398, , , , , , , , , , , , , , , , , , , , , , 
0.1396731, 0.0199741, 3.6315, -0.9238281, 3.6315, -0.1567383, 3.6315, 0.2983398, 0.1396731, -0.0062104, 3.6315, 0.9838867, 3.6315, -0.112793, 3.6315, 0.1601562, 0.1396731, -0.0137636, 3.6315, 0.3808594, 3.6315, -0.9555664, 3.6315, -0.0874023, 0.1396731, -0.0159457, 3.6315, -0.1342773, 3.6315, -0.9741211, 3.6315, 0.2265625, , , , , , , , , , , , , , , , , , , , , , 
0.1401923, 0.0151064, 3.645, -0.9165039, 3.645, -0.1582031, 3.645, 0.2998047, 0.1401923, -0.005539, 3.645, 0.9887695, 3.645, -0.112793, 3.645, 0.1694336, 0.1401923, -0.0117494, 3.645, 0.3798828, 3.645, -0.9624023, 3.645, -0.0834961, 0.1401923, -0.0135958, 3.645, -0.1303711, 3.645, -0.9765625, 3.645, 0.222168, , , , , , , , , , , , , , , , , , , , , , 
0.1407115, 0.0078889, 3.6585, -0.918457, 3.6585, -0.152832, 3.6585, 0.2924805, 0.1407115, -0.0048676, 3.6585, 0.9863281, 3.6585, -0.125, 3.6585, 0.1738281, 0.1407115, -0.0099031, 3.6585, 0.3720703, 3.6585, -0.9589844, 3.6585, -0.0874023, 0.1407115, -0.0068818, 3.6585, -0.125, 3.6585, -0.9736328, 3.6585, 0.2231445, , , , , , , , , , , , , , , , , , , , , , 
0.1412308, 0.005539, 3.672, -0.9267578, 3.672, -0.1538086, 3.672, 0.2983398, 0.1412308, -0.0038605, 3.672, 0.9804688, 3.672, -0.1259766, 3.672, 0.1723633, 0.1412308, -0.0092317, 3.672, 0.3666992, 3.672, -0.9536133, 3.672, -0.0917969, 0.1412308, -0.0001678, 3.672, -0.1318359, 3.672, -0.9707031, 3.672, 0.2236328, , , , , , , , , , , , , , , , , , , , , , 
0.14175, 0.0045319, 3.6855, -0.9243164, 3.6855, -0.1621094, 3.6855, 0.2866211, 0.14175, -0.0048676, 3.6855, 0.9633789, 3.6855, -0.1166992, 3.6855, 0.1708984, 0.14175, -0.008896, 3.6855, 0.3706055, 3.6855, -0.9448242, 3.6855, -0.1000977, 0.14175, 0.0036927, 3.6855, -0.140625, 3.6855, -0.9711914, 3.6855, 0.2265625, , , , , , , , , , , , , , , , , , , , , , 
0.1422692, 0.0031891, 3.699, -0.9257812, 3.699, -0.1665039, 3.699, 0.2866211, 0.1422692, -0.0072175, 3.699, 0.96875, 3.699, -0.1157227, 3.699, 0.1811523, 0.1422692, -0.0085603, 3.699, 0.3642578, 3.699, -0.9453125, 3.699, -0.1015625, 0.1422692, 0.0092317, 3.699, -0.1376953, 3.699, -0.9780273, 3.699, 0.2202148, , , , , , , , , , , , , , , , , , , , , , 
0.1427885, 0.0053712, 3.7125, -0.9267578, 3.7125, -0.1591797, 3.7125, 0.284668, 0.1427885, -0.008896, 3.7125, 0.9750977, 3.7125, -0.1152344, 3.7125, 0.1796875, 0.1427885, -0.005539, 3.7125, 0.3554688, 3.7125, -0.9570312, 3.7125, -0.0869141, 0.1427885, 0.0146029, 3.7125, -0.128418, 3.7125, -0.9702148, 3.7125, 0.215332, , , , , , , , , , , , , , , , , , , , , , 
0.1433077, 0.0065461, 3.726, -0.9189453, 3.726, -0.1552734, 3.726, 0.2836914, 0.1433077, -0.0099031, 3.726, 0.9726562, 3.726, -0.1191406, 3.726, 0.1767578, 0.1433077, -0.0035248, 3.726, 0.3569336, 3.726, -0.9570312, 3.726, -0.0854492, 0.1433077, 0.0216526, 3.726, -0.1313477, 3.726, -0.9633789, 3.726, 0.21875, , , , , , , , , , , , , , , , , , , , , , 
0.1438269, 0.0070497, 3.7395, -0.9072266, 3.7395, -0.1499023, 3.7395, 0.284668, 0.1438269, -0.0099031, 3.7395, 0.9648438, 3.7395, -0.1220703, 3.7395, 0.1762695, 0.1438269, -0.0038605, 3.7395, 0.3632812, 3.7395, -0.9448242, 3.7395, -0.0996094, 0.1438269, 0.0288701, 3.7395, -0.1381836, 3.7395, -0.9628906, 3.7395, 0.2192383, , , , , , , , , , , , , , , , , , , , , , 
0.1443462, 0.0025177, 3.753, -0.9018555, 3.753, -0.1494141, 3.753, 0.2841797, 0.1443462, -0.0105745, 3.753, 0.9707031, 3.753, -0.1196289, 3.753, 0.1777344, 0.1443462, -0.0052033, 3.753, 0.3657227, 3.753, -0.9389648, 3.753, -0.0996094, 0.1443462, 0.0340734, 3.753, -0.1323242, 3.753, -0.9643555, 3.753, 0.2260742, , , , , , , , , , , , , , , , , , , , , , 
0.1448654, -0.0031891, 3.7665, -0.909668, 3.7665, -0.1552734, 3.7665, 0.2788086, 0.1448654, -0.0115816, 3.7665, 0.9711914, 3.7665, -0.1201172, 3.7665, 0.1713867, 0.1448654, -0.0058747, 3.7665, 0.3603516, 3.7665, -0.9399414, 3.7665, -0.0966797, 0.1448654, 0.0387732, 3.7665, -0.1240234, 3.7665, -0.9619141, 3.7665, 0.2207031, , , , , , , , , , , , , , , , , , , , , , 
0.1453846, -0.0043641, 3.78, -0.9135742, 3.78, -0.1577148, 3.78, 0.2753906, 0.1453846, -0.0119173, 3.78, 0.9477539, 3.78, -0.1181641, 3.78, 0.1728516, 0.1453846, -0.0052033, 3.78, 0.362793, 3.78, -0.9438477, 3.78, -0.0917969, 0.1453846, 0.0441444, 3.78, -0.1298828, 3.78, -0.9516602, 3.78, 0.2182617, , , , , , , , , , , , , , , , , , , , , , 
0.1459038, -0.0038605, 3.7935, -0.9101562, 3.7935, -0.1518555, 3.7935, 0.2792969, 0.1459038, -0.0115816, 3.7935, 0.9370117, 3.7935, -0.1049805, 3.7935, 0.1669922, 0.1459038, -0.0045319, 3.7935, 0.3657227, 3.7935, -0.9423828, 3.7935, -0.09375, 0.1459038, 0.0486763, 3.7935, -0.1323242, 3.7935, -0.9482422, 3.7935, 0.2182617, , , , , , , , , , , , , , , , , , , , , , 
0.1464231, -0.0008392, 3.807, -0.8862305, 3.807, -0.1469727, 3.807, 0.2783203, 0.1464231, -0.0095674, 3.807, 0.9472656, 3.807, -0.0986328, 3.807, 0.168457, 0.1464231, -0.0041962, 3.807, 0.3613281, 3.807, -0.9311523, 3.807, -0.0957031, 0.1464231, 0.0515297, 3.807, -0.1401367, 3.807, -0.9458008, 3.807, 0.2202148, , , , , , , , , , , , , , , , , , , , , , 
0.1469423, -0.0005035, 3.8205, -0.8886719, 3.8205, -0.1455078, 3.8205, 0.2763672, 0.1469423, -0.0075532, 3.8205, 0.9560547, 3.8205, -0.1040039, 3.8205, 0.1713867, 0.1469423, -0.005539, 3.8205, 0.347168, 3.8205, -0.9282227, 3.8205, -0.0869141, 0.1469423, 0.0463264, 3.8205, -0.1376953, 3.8205, -0.9443359, 3.8205, 0.2167969, , , , , , , , , , , , , , , , , , , , , , 
0.1474615, 0.0005035, 3.834, -0.9057617, 3.834, -0.1401367, 3.834, 0.2817383, 0.1474615, -0.0083925, 3.834, 0.9589844, 3.834, -0.105957, 3.834, 0.1733398, 0.1474615, -0.0063783, 3.834, 0.3530273, 3.834, -0.9306641, 3.834, -0.0839844, 0.1474615, 0.0360876, 3.834, -0.144043, 3.834, -0.9477539, 3.834, 0.2143555, , , , , , , , , , , , , , , , , , , , , , 
0.1479808, 0.0052033, 3.8475, -0.9047852, 3.8475, -0.1386719, 3.8475, 0.2875977, 0.1479808, -0.0105745, 3.8475, 0.9541016, 3.8475, -0.1020508, 3.8475, 0.1606445, 0.1479808, -0.005539, 3.8475, 0.3569336, 3.8475, -0.9379883, 3.8475, -0.0898438, 0.1479808, 0.026688, 3.8475, -0.1479492, 3.8475, -0.9443359, 3.8475, 0.215332, , , , , , , , , , , , , , , , , , , , , , 
0.1485, 0.0125887, 3.861, -0.8969727, 3.861, -0.1396484, 3.861, 0.2963867, 0.1485, -0.0109102, 3.861, 0.9648438, 3.861, -0.0883789, 3.861, 0.1547852, 0.1485, -0.0041962, 3.861, 0.3466797, 3.861, -0.9428711, 3.861, -0.0874023, 0.1485, 0.0209812, 3.861, -0.144043, 3.861, -0.9492188, 3.861, 0.2197266, , , , , , , , , , , , , , , , , , , , , , 
0.1490192, 0.0176242, 3.8745, -0.8935547, 3.8745, -0.1328125, 3.8745, 0.2958984, 0.1490192, -0.0109102, 3.8745, 0.9760742, 3.8745, -0.0844727, 3.8745, 0.1645508, 0.1490192, -0.0030213, 3.8745, 0.3510742, 3.8745, -0.9462891, 3.8745, -0.0771484, 0.1490192, 0.0159457, 3.8745, -0.1342773, 3.8745, -0.949707, 3.8745, 0.2177734, , , , , , , , , , , , , , , , , , , , , , 
0.1495385, 0.0184634, 3.888, -0.9038086, 3.888, -0.1274414, 3.888, 0.2988281, 0.1495385, -0.0102388, 3.888, 0.9707031, 3.888, -0.0898438, 3.888, 0.1616211, 0.1495385, -0.0035248, 3.888, 0.3725586, 3.888, -0.9433594, 3.888, -0.0800781, 0.1495385, 0.0135958, 3.888, -0.1254883, 3.888, -0.9550781, 3.888, 0.2148438, , , , , , , , , , , , , , , , , , , , , , 
0.1500577, 0.0159457, 3.9015, -0.9169922, 3.9015, -0.1264648, 3.9015, 0.2963867, 0.1500577, -0.0099031, 3.9015, 0.9677734, 3.9015, -0.0908203, 3.9015, 0.1645508, 0.1500577, -0.0057069, 3.9015, 0.3901367, 3.9015, -0.9389648, 3.9015, -0.0883789, 0.1500577, 0.0119173, 3.9015, -0.1367188, 3.9015, -0.9555664, 3.9015, 0.2207031, , , , , , , , , , , , , , , , , , , , , , 
0.1505769, 0.01561, 3.915, -0.9204102, 3.915, -0.1269531, 3.915, 0.2983398, 0.1505769, -0.008896, 3.915, 0.9765625, 3.915, -0.081543, 3.915, 0.1665039, 0.1505769, -0.0070497, 3.915, 0.3813477, 3.915, -0.9526367, 3.915, -0.0844727, 0.1505769, 0.0109102, 3.915, -0.1494141, 3.915, -0.9614258, 3.915, 0.2255859, , , , , , , , , , , , , , , , , , , , , , 
0.1510962, 0.0166171, 3.9285, -0.921875, 3.9285, -0.1298828, 3.9285, 0.3032227, 0.1510962, -0.0085603, 3.9285, 0.9858398, 3.9285, -0.0854492, 3.9285, 0.1689453, 0.1510962, -0.0082246, 3.9285, 0.3696289, 3.9285, -0.9604492, 3.9285, -0.0756836, 0.1510962, 0.0099031, 3.9285, -0.1479492, 3.9285, -0.9604492, 3.9285, 0.2255859, , , , , , , , , , , , , , , , , , , , , , 
0.1516154, 0.0159457, 3.942, -0.9174805, 3.942, -0.1293945, 3.942, 0.2983398, 0.1516154, -0.0105745, 3.942, 0.9790039, 3.942, -0.0952148, 3.942, 0.159668, 0.1516154, -0.008896, 3.942, 0.3525391, 3.942, -0.9624023, 3.942, -0.0703125, 0.1516154, 0.0085603, 3.942, -0.144043, 3.942, -0.9555664, 3.942, 0.2231445, , , , , , , , , , , , , , , , , , , , , , 
0.1521346, 0.0186313, 3.9555, -0.909668, 3.9555, -0.1333008, 3.9555, 0.3061523, 0.1521346, -0.0119173, 3.9555, 0.9736328, 3.9555, -0.0996094, 3.9555, 0.1577148, 0.1521346, -0.0085603, 3.9555, 0.362793, 3.9555, -0.9506836, 3.9555, -0.0717773, 0.1521346, 0.0090639, 3.9555, -0.1479492, 3.9555, -0.9575195, 3.9555, 0.2265625, , , , , , , , , , , , , , , , , , , , , , 
0.1526538, 0.0243381, 3.969, -0.9077148, 3.969, -0.1323242, 3.969, 0.3071289, 0.1526538, -0.0109102, 3.969, 0.972168, 3.969, -0.1020508, 3.969, 0.1572266, 0.1526538, -0.0082246, 3.969, 0.3745117, 3.969, -0.9370117, 3.969, -0.0771484, 0.1526538, 0.0099031, 3.969, -0.159668, 3.969, -0.9580078, 3.969, 0.2329102, , , , , , , , , , , , , , , , , , , , , , 
0.1531731, 0.0290379, 3.9825, -0.9155273, 3.9825, -0.1293945, 3.9825, 0.3017578, 0.1531731, -0.0105745, 3.9825, 0.9707031, 3.9825, -0.0908203, 3.9825, 0.1552734, 0.1531731, -0.0095674, 3.9825, 0.3740234, 3.9825, -0.9394531, 3.9825, -0.0751953, 0.1531731, 0.0078889, 3.9825, -0.1645508, 3.9825, -0.956543, 3.9825, 0.234375, , , , , , , , , , , , , , , , , , , , , , 
0.1536923, 0.0293736, 3.996, -0.9135742, 3.996, -0.1347656, 3.996, 0.3081055, 0.1536923, -0.0109102, 3.996, 0.9682617, 3.996, -0.0878906, 3.996, 0.1503906, 0.1536923, -0.0115816, 3.996, 0.3637695, 3.996, -0.949707, 3.996, -0.0673828, 0.1536923, 0.0065461, 3.996, -0.1611328, 3.996, -0.9575195, 3.996, 0.2270508, , , , , , , , , , , , , , , , , , , , , , 
0.1542115, 0.0246738, 4.0095, -0.8955078, 4.0095, -0.1352539, 4.0095, 0.3007812, 0.1542115, -0.0102388, 4.0095, 0.972168, 4.0095, -0.0947266, 4.0095, 0.1542969, 0.1542115, -0.0112459, 4.0095, 0.3598633, 4.0095, -0.9492188, 4.0095, -0.0683594, 0.1542115, 0.0072175, 4.0095, -0.1499023, 4.0095, -0.9541016, 4.0095, 0.2207031, , , , , , , , , , , , , , , , , , , , , , 
0.1547308, 0.0199741, 4.023, -0.8916016, 4.023, -0.1318359, 4.023, 0.3100586, 0.1547308, -0.008896, 4.023, 0.9760742, 4.023, -0.1035156, 4.023, 0.1508789, 0.1547308, -0.010071, 4.023, 0.3647461, 4.023, -0.940918, 4.023, -0.0756836, 0.1547308, 0.0090639, 4.023, -0.1420898, 4.023, -0.9555664, 4.023, 0.2236328, , , , , , , , , , , , , , , , , , , , , , 
0.15525, 0.0229953, 4.0365, -0.9072266, 4.0365, -0.1313477, 4.0365, 0.3022461, 0.15525, -0.008896, 4.0365, 0.9682617, 4.0365, -0.0986328, 4.0365, 0.1464844, 0.15525, -0.0092317, 4.0365, 0.3793945, 4.0365, -0.9370117, 4.0365, -0.0776367, 0.15525, 0.0092317, 4.0365, -0.1508789, 4.0365, -0.9575195, 4.0365, 0.2275391, , , , , , , , , , , , , , , , , , , , , , 
0.1557692, 0.0246738, 4.05, -0.9116211, 4.05, -0.1303711, 4.05, 0.3027344, 0.1557692, -0.008896, 4.05, 0.9614258, 4.05, -0.0893555, 4.05, 0.1518555, 0.1557692, -0.0104067, 4.05, 0.3793945, 4.05, -0.9423828, 4.05, -0.0727539, 0.1557692, 0.0072175, 4.05, -0.1616211, 4.05, -0.9560547, 4.05, 0.2304688, , , , , , , , , , , , , , , , , , , , , , 
0.1562885, 0.023331, 4.0635, -0.9042969, 4.0635, -0.1362305, 4.0635, 0.2973633, 0.1562885, -0.0082246, 4.0635, 0.972168, 4.0635, -0.090332, 4.0635, 0.1586914, 0.1562885, -0.0109102, 4.0635, 0.3706055, 4.0635, -0.9448242, 4.0635, -0.0712891, 0.1562885, 0.0035248, 4.0635, -0.1582031, 4.0635, -0.956543, 4.0635, 0.2260742, , , , , , , , , , , , , , , , , , , , , , 
0.1568077, 0.0204776, 4.077, -0.8964844, 4.077, -0.1391602, 4.077, 0.2993164, 0.1568077, -0.0068818, 4.077, 0.9726562, 4.077, -0.0942383, 4.077, 0.1552734, 0.1568077, -0.0095674, 4.077, 0.3549805, 4.077, -0.9453125, 4.077, -0.0668945, 0.1568077, -0.002182, 4.077, -0.1518555, 4.077, -0.9462891, 4.077, 0.2265625, , , , , , , , , , , , , , , , , , , , , , 
0.1573269, 0.0159457, 4.0905, -0.8964844, 4.0905, -0.140625, 4.0905, 0.2978516, 0.1573269, -0.0068818, 4.0905, 0.9633789, 4.0905, -0.1054688, 4.0905, 0.1523438, 0.1573269, -0.0095674, 4.0905, 0.3520508, 4.0905, -0.9345703, 4.0905, -0.078125, 0.1573269, -0.0075532, 4.0905, -0.1474609, 4.0905, -0.9414062, 4.0905, 0.2250977, , , , , , , , , , , , , , , , , , , , , , 
0.1578462, 0.01561, 4.104, -0.8964844, 4.104, -0.137207, 4.104, 0.2988281, 0.1578462, -0.0068818, 4.104, 0.9584961, 4.104, -0.1020508, 4.104, 0.1508789, 0.1578462, -0.0105745, 4.104, 0.3618164, 4.104, -0.9257812, 4.104, -0.0830078, 0.1578462, -0.011078, 4.104, -0.1499023, 4.104, -0.9443359, 4.104, 0.2246094, , , , , , , , , , , , , , , , , , , , , , 
0.1583654, 0.018967, 4.1175, -0.9111328, 4.1175, -0.1313477, 4.1175, 0.2949219, 0.1583654, -0.0068818, 4.1175, 0.9663086, 4.1175, -0.0844727, 4.1175, 0.1606445, 0.1583654, -0.0109102, 4.1175, 0.3710938, 4.1175, -0.9384766, 4.1175, -0.0761719, 0.1583654, -0.0129244, 4.1175, -0.1450195, 4.1175, -0.953125, 4.1175, 0.2207031, , , , , , , , , , , , , , , , , , , , , , 
0.1588846, 0.0206455, 4.131, -0.9125977, 4.131, -0.1259766, 4.131, 0.2944336, 0.1588846, -0.0072175, 4.131, 0.9682617, 4.131, -0.0834961, 4.131, 0.1591797, 0.1588846, -0.0095674, 4.131, 0.3696289, 4.131, -0.9516602, 4.131, -0.0673828, 0.1588846, -0.0137636, 4.131, -0.144043, 4.131, -0.9575195, 4.131, 0.2197266, , , , , , , , , , , , , , , , , , , , , , 
0.1594038, 0.0193027, 4.1445, -0.9023438, 4.1445, -0.1328125, 4.1445, 0.2983398, 0.1594038, -0.0062104, 4.1445, 0.9770508, 4.1445, -0.0927734, 4.1445, 0.1557617, 0.1594038, -0.0083925, 4.1445, 0.3706055, 4.1445, -0.9472656, 4.1445, -0.0698242, 0.1594038, -0.0139315, 4.1445, -0.1435547, 4.1445, -0.9511719, 4.1445, 0.2226562, , , , , , , , , , , , , , , , , , , , , , 
0.1599231, 0.0129244, 4.158, -0.8974609, 4.158, -0.1352539, 4.158, 0.3037109, 0.1599231, -0.0050355, 4.158, 0.9799805, 4.158, -0.0981445, 4.158, 0.15625, 0.1599231, -0.0104067, 4.158, 0.3769531, 4.158, -0.9316406, 4.158, -0.0776367, 0.1599231, -0.012253, 4.158, -0.1494141, 4.158, -0.9482422, 4.158, 0.2255859, , , , , , , , , , , , , , , , , , , , , , 
0.1604423, 0.008896, 4.1715, -0.8974609, 4.1715, -0.1323242, 4.1715, 0.3012695, 0.1604423, -0.0062104, 4.1715, 0.9716797, 4.1715, -0.1010742, 4.1715, 0.1513672, 0.1604423, -0.0139315, 4.1715, 0.3789062, 4.1715, -0.9306641, 4.1715, -0.0791016, 0.1604423, -0.008896, 4.1715, -0.1523438, 4.1715, -0.9526367, 4.1715, 0.2285156, , , , , , , , , , , , , , , , , , , , , , 
0.1609615, 0.0072175, 4.185, -0.9042969, 4.185, -0.1367188, 4.185, 0.3076172, 0.1609615, -0.0077211, 4.185, 0.9677734, 4.185, -0.0942383, 4.185, 0.1523438, 0.1609615, -0.0149386, 4.185, 0.3632812, 4.185, -0.9375, 4.185, -0.0776367, 0.1609615, -0.0048676, 4.185, -0.152832, 4.185, -0.9570312, 4.185, 0.2329102, , , , , , , , , , , , , , , , , , , , , , 
0.1614808, 0.0065461, 4.1985, -0.9101562, 4.1985, -0.1347656, 4.1985, 0.3017578, 0.1614808, -0.0085603, 4.1985, 0.9638672, 4.1985, -0.0898438, 4.1985, 0.1518555, 0.1614808, -0.012253, 4.1985, 0.3598633, 4.1985, -0.9423828, 4.1985, -0.0761719, 0.1614808, -0.0005035, 4.1985, -0.1518555, 4.1985, -0.9521484, 4.1985, 0.2299805, , , , , , , , , , , , , , , , , , , , , , 
0.162, 0.0031891, 4.212, -0.9072266, 4.212, -0.137207, 4.212, 0.3012695, 0.162, -0.008896, 4.212, 0.9604492, 4.212, -0.0898438, 4.212, 0.1499023, 0.162, -0.0099031, 4.212, 0.3603516, 4.212, -0.9462891, 4.212, -0.074707, 0.162, 0.0045319, 4.212, -0.1503906, 4.212, -0.9472656, 4.212, 0.2299805, , , , , , , , , , , , , , , , , , , , , , 
0.1625192, 0.0008392, 4.2255, -0.894043, 4.2255, -0.1362305, 4.2255, 0.2998047, 0.1625192, -0.0090639, 4.2255, 0.9658203, 4.2255, -0.0947266, 4.2255, 0.1542969, 0.1625192, -0.0109102, 4.2255, 0.3662109, 4.2255, -0.9423828, 4.2255, -0.0766602, 0.1625192, 0.0109102, 4.2255, -0.1474609, 4.2255, -0.953125, 4.2255, 0.2236328, , , , , , , , , , , , , , , , , , , , , , 
0.1630385, 0.002182, 4.239, -0.8989258, 4.239, -0.1376953, 4.239, 0.2993164, 0.1630385, -0.0092317, 4.239, 0.9716797, 4.239, -0.0952148, 4.239, 0.1621094, 0.1630385, -0.0109102, 4.239, 0.3730469, 4.239, -0.9370117, 4.239, -0.0766602, 0.1630385, 0.0179599, 4.239, -0.1455078, 4.239, -0.9550781, 4.239, 0.2241211, , , , , , , , , , , , , , , , , , , , , , 
0.1635577, 0.0015106, 4.2525, -0.9023438, 4.2525, -0.1352539, 4.2525, 0.2993164, 0.1635577, -0.0075532, 4.2525, 0.9731445, 4.2525, -0.0952148, 4.2525, 0.1523438, 0.1635577, -0.0083925, 4.2525, 0.3740234, 4.2525, -0.9394531, 4.2525, -0.0742188, 0.1635577, 0.0219883, 4.2525, -0.1484375, 4.2525, -0.956543, 4.2525, 0.222168, , , , , , , , , , , , , , , , , , , , , , 
0.1640769, -0.0028534, 4.266, -0.8984375, 4.266, -0.1303711, 4.266, 0.3056641, 0.1640769, -0.0052033, 4.266, 0.9702148, 4.266, -0.0927734, 4.266, 0.1469727, 0.1640769, -0.0048676, 4.266, 0.3701172, 4.266, -0.9448242, 4.266, -0.0708008, 0.1640769, 0.0251774, 4.266, -0.1577148, 4.266, -0.9536133, 4.266, 0.2246094, , , , , , , , , , , , , , , , , , , , , , 
0.1645962, -0.0068818, 4.2795, -0.8989258, 4.2795, -0.1303711, 4.2795, 0.3041992, 0.1645962, -0.0035248, 4.2795, 0.9619141, 4.2795, -0.0888672, 4.2795, 0.1459961, 0.1645962, -0.0035248, 4.2795, 0.362793, 4.2795, -0.9414062, 4.2795, -0.0727539, 0.1645962, 0.0313878, 4.2795, -0.159668, 4.2795, -0.9492188, 4.2795, 0.2290039, , , , , , , , , , , , , , , , , , , , , , 
0.1651154, -0.0075532, 4.293, -0.8974609, 4.293, -0.1323242, 4.293, 0.3051758, 0.1651154, -0.0041962, 4.293, 0.9550781, 4.293, -0.0878906, 4.293, 0.1459961, 0.1651154, -0.0036927, 4.293, 0.3583984, 4.293, -0.9345703, 4.293, -0.0761719, 0.1651154, 0.0379339, 4.293, -0.1513672, 4.293, -0.9487305, 4.293, 0.2250977, , , , , , , , , , , , , , , , , , , , , , 
0.1656346, -0.0070497, 4.3065, -0.9033203, 4.3065, -0.1342773, 4.3065, 0.3046875, 0.1656346, -0.005539, 4.3065, 0.9589844, 4.3065, -0.0888672, 4.3065, 0.1513672, 0.1656346, -0.0028534, 4.3065, 0.3632812, 4.3065, -0.9345703, 4.3065, -0.0727539, 0.1656346, 0.040116, 4.3065, -0.1401367, 4.3065, -0.9492188, 4.3065, 0.2192383, , , , , , , , , , , , , , , , , , , , , , 
0.1661538, -0.0058747, 4.32, -0.8989258, 4.32, -0.1347656, 4.32, 0.2998047, 0.1661538, -0.0048676, 4.32, 0.9726562, 4.32, -0.09375, 4.32, 0.152832, 0.1661538, 0.0005035, 4.32, 0.3735352, 4.32, -0.9379883, 4.32, -0.078125, 0.1661538, 0.0417945, 4.32, -0.1425781, 4.32, -0.9511719, 4.32, 0.2216797, , , , , , , , , , , , , , , , , , , , , , 
0.1666731, -0.0025177, 4.3335, -0.9008789, 4.3335, -0.1342773, 4.3335, 0.3056641, 0.1666731, -0.0048676, 4.3335, 0.9819336, 4.3335, -0.0957031, 4.3335, 0.1542969, 0.1666731, 0.0023499, 4.3335, 0.3798828, 4.3335, -0.9404297, 4.3335, -0.0771484, 0.1666731, 0.0428016, 4.3335, -0.1533203, 4.3335, -0.9570312, 4.3335, 0.2231445, , , , , , , , , , , , , , , , , , , , , , 
0.1671923, 0.0008392, 4.347, -0.9116211, 4.347, -0.1352539, 4.347, 0.3017578, 0.1671923, -0.0048676, 4.347, 0.9799805, 4.347, -0.0922852, 4.347, 0.1533203, 0.1671923, 0.0010071, 4.347, 0.3745117, 4.347, -0.9467773, 4.347, -0.0732422, 0.1671923, 0.0381018, 4.347, -0.1567383, 4.347, -0.9570312, 4.347, 0.2236328, , , , , , , , , , , , , , , , , , , , , , 
0.1677115, 0.0025177, 4.3605, -0.9125977, 4.3605, -0.1342773, 4.3605, 0.3037109, 0.1677115, -0.0043641, 4.3605, 0.9780273, 4.3605, -0.0898438, 4.3605, 0.1557617, 0.1677115, -0.0018463, 4.3605, 0.3623047, 4.3605, -0.9482422, 4.3605, -0.0649414, 0.1677115, 0.0290379, 4.3605, -0.1547852, 4.3605, -0.9536133, 4.3605, 0.2226562, , , , , , , , , , , , , , , , , , , , , , 
0.1682308, 0.0062104, 4.374, -0.9018555, 4.374, -0.1323242, 4.374, 0.3041992, 0.1682308, -0.0025177, 4.374, 0.9711914, 4.374, -0.0908203, 4.374, 0.1557617, 0.1682308, -0.0018463, 4.374, 0.3608398, 4.374, -0.9438477, 4.374, -0.0737305, 0.1682308, 0.024506, 4.374, -0.152832, 4.374, -0.9526367, 4.374, 0.2265625, , , , , , , , , , , , , , , , , , , , , , 
0.16875, 0.0119173, 4.3875, -0.9052734, 4.3875, -0.1303711, 4.3875, 0.3056641, 0.16875, -0.0015106, 4.3875, 0.9672852, 4.3875, -0.0917969, 4.3875, 0.1499023, 0.16875, -0.0015106, 4.3875, 0.3637695, 4.3875, -0.9399414, 4.3875, -0.0795898, 0.16875, 0.0231632, 4.3875, -0.1538086, 4.3875, -0.953125, 4.3875, 0.2285156, , , , , , , , , , , , , , , , , , , , , , 
0.1692692, 0.0159457, 4.401, -0.9179688, 4.401, -0.128418, 4.401, 0.3100586, 0.1692692, -0.0062104, 4.401, 0.9672852, 4.401, -0.0917969, 4.401, 0.1464844, 0.1692692, -0.0035248, 4.401, 0.3696289, 4.401, -0.9418945, 4.401, -0.0717773, 0.1692692, 0.0196384, 4.401, -0.1606445, 4.401, -0.9536133, 4.401, 0.2285156, , , , , , , , , , , , , , , , , , , , , , 
0.1697885, 0.0219883, 4.4145, -0.9106445, 4.4145, -0.125, 4.4145, 0.3105469, 0.1697885, -0.0109102, 4.4145, 0.9770508, 4.4145, -0.0874023, 4.4145, 0.1499023, 0.1697885, -0.0038605, 4.4145, 0.3730469, 4.4145, -0.9448242, 4.4145, -0.0649414, 0.1697885, 0.01561, 4.4145, -0.1621094, 4.4145, -0.9521484, 4.4145, 0.2265625, , , , , , , , , , , , , , , , , , , , , , 
0.1703077, 0.024506, 4.428, -0.9003906, 4.428, -0.128418, 4.428, 0.309082, 0.1703077, -0.012253, 4.428, 0.980957, 4.428, -0.0830078, 4.428, 0.152832, 0.1703077, -0.0041962, 4.428, 0.3652344, 4.428, -0.9458008, 4.428, -0.0615234, 0.1703077, 0.0132601, 4.428, -0.1625977, 4.428, -0.9521484, 4.428, 0.2226562, , , , , , , , , , , , , , , , , , , , , , 
0.1708269, 0.023331, 4.4415, -0.8911133, 4.4415, -0.121582, 4.4415, 0.3105469, 0.1708269, -0.0102388, 4.4415, 0.9755859, 4.4415, -0.081543, 4.4415, 0.1523438, 0.1708269, -0.0062104, 4.4415, 0.3579102, 4.4415, -0.9453125, 4.4415, -0.0673828, 0.1708269, 0.0112459, 4.4415, -0.1577148, 4.4415, -0.9555664, 4.4415, 0.2236328, , , , , , , , , , , , , , , , , , , , , , 
