Application:, Trigno Discover (2.0.1.2)
Date/Time:, 5/14/2025 12:44:34 PM
Collection Length (seconds):, 29.4435
Forearm 2 (83169), , , , , , , , Forearm 1 (82633), , , , , , , , Biceps (83254), , , , , , , , Triceps (83087)
sensor mode: 45, , , , , , , , sensor mode: 45, , , , , , , , sensor mode: 45, , , , , , , , sensor mode: 45
EMG 1 Time Series (s), EMG 1 (mV), ACC X Time Series (s), ACC X (G), ACC Y Time Series (s), ACC Y (G), ACC Z Time Series (s), ACC Z (G), EMG 1 Time Series (s), EMG 1 (mV), ACC X Time Series (s), ACC X (G), ACC Y Time Series (s), ACC Y (G), ACC Z Time Series (s), ACC Z (G), EMG 1 Time Series (s), EMG 1 (mV), ACC X Time Series (s), ACC X (G), ACC Y Time Series (s), ACC Y (G), ACC Z Time Series (s), ACC Z (G), EMG 1 Time Series (s), EMG 1 (mV), ACC X Time Series (s), ACC X (G), ACC Y Time Series (s), ACC Y (G), ACC Z Time Series (s), ACC Z (G)
, 1925.9259 Hz, , 74.0741 Hz, , 74.0741 Hz, , 74.0741 Hz, , 1925.9259 Hz, , 74.0741 Hz, , 74.0741 Hz, , 74.0741 Hz, , 1925.9259 Hz, , 74.0741 Hz, , 74.0741 Hz, , 74.0741 Hz, , 1925.9259 Hz, , 74.0741 Hz, , 74.0741 Hz, , 74.0741 Hz
, 0.0005192307692307692 s, , 0.0135 s, , 0.0135 s, , 0.0135 s, , 0.0005192307692307692 s, , 0.0135 s, , 0.0135 s, , 0.0135 s, , 0.0005192307692307692 s, , 0.0135 s, , 0.0135 s, , 0.0135 s, , 0.0005192307692307692 s, , 0.0135 s, , 0.0135 s, , 0.0135 s, , Type, Name, Label, Time (s), , Pair, E1, E2, T1, T2, V1, V2, Sensor, Channel, Units, Delta T, RMS, PKPK, Peak Value, TPK, Integral
0, 0.0142672, 0, -0.2802734, 0, -0.9477539, 0, 0.1367188, 0, -0.0072175, 0, 0.3642578, 0, -0.90625, 0, -0.1801758, 0, -0.0035248, 0, 0.1025391, 0, -0.987793, 0, 0.0249023, 0, 0.0095674, 0, -0.230957, 0, -0.9560547, 0, 0.034668, , , , , , , , , , , , , , , , , , , , , , 
0.0005192, 0.0169528, 0.0135, -0.2875977, 0.0135, -0.956543, 0.0135, 0.1367188, 0.0005192, -0.0085603, 0.0135, 0.3657227, 0.0135, -0.9145508, 0.0135, -0.1791992, 0.0005192, -0.0025177, 0.0135, 0.1025391, 0.0135, -0.9916992, 0.0135, 0.0263672, 0.0005192, 0.0068818, 0.0135, -0.234375, 0.0135, -0.9604492, 0.0135, 0.0356445, , , , , , , , , , , , , , , , , , , , , , 
0.0010385, 0.0186313, 0.027, -0.2910156, 0.027, -0.9594727, 0.027, 0.1352539, 0.0010385, -0.0077211, 0.027, 0.3647461, 0.027, -0.9179688, 0.027, -0.1801758, 0.0010385, -0.0035248, 0.027, 0.1035156, 0.027, -0.9995117, 0.027, 0.0297852, 0.0010385, 0.0075532, 0.027, -0.2392578, 0.027, -0.9624023, 0.027, 0.0405273, , , , , , , , , , , , , , , , , , , , , , 
0.0015577, 0.0206455, 0.0405, -0.2915039, 0.0405, -0.9614258, 0.0405, 0.1362305, 0.0015577, -0.0062104, 0.0405, 0.3637695, 0.0405, -0.9199219, 0.0405, -0.1796875, 0.0015577, -0.0068818, 0.0405, 0.105957, 0.0405, -1.0053711, 0.0405, 0.0336914, 0.0015577, 0.0085603, 0.0405, -0.2431641, 0.0405, -0.9628906, 0.0405, 0.043457, , , , , , , , , , , , , , , , , , , , , , 
0.0020769, 0.0206455, 0.054, -0.2885742, 0.054, -0.9570312, 0.054, 0.1352539, 0.0020769, -0.0041962, 0.054, 0.359375, 0.054, -0.9228516, 0.054, -0.1801758, 0.0020769, -0.0092317, 0.054, 0.1108398, 0.054, -1, 0.054, 0.0356445, 0.0020769, 0.0078889, 0.054, -0.2460938, 0.054, -0.9614258, 0.054, 0.050293, , , , , , , , , , , , , , , , , , , , , , 
0.0025962, 0.0206455, 0.0675, -0.2875977, 0.0675, -0.9506836, 0.0675, 0.1352539, 0.0025962, -0.0041962, 0.0675, 0.3515625, 0.0675, -0.9189453, 0.0675, -0.1850586, 0.0025962, -0.0105745, 0.0675, 0.1137695, 0.0675, -0.9882812, 0.0675, 0.0410156, 0.0025962, 0.0072175, 0.0675, -0.2548828, 0.0675, -0.9619141, 0.0675, 0.0571289, , , , , , , , , , , , , , , , , , , , , , 
0.0031154, 0.0213169, 0.081, -0.2880859, 0.081, -0.9443359, 0.081, 0.144043, 0.0031154, -0.0048676, 0.081, 0.3432617, 0.081, -0.909668, 0.081, -0.1953125, 0.0031154, -0.0075532, 0.081, 0.109375, 0.081, -0.9770508, 0.081, 0.0419922, 0.0031154, 0.0078889, 0.081, -0.2719727, 0.081, -0.9516602, 0.081, 0.0668945, , , , , , , , , , , , , , , , , , , , , , 
0.0036346, 0.0213169, 0.0945, -0.2880859, 0.0945, -0.9394531, 0.0945, 0.1474609, 0.0036346, -0.0035248, 0.0945, 0.3388672, 0.0945, -0.9008789, 0.0945, -0.2016602, 0.0036346, -0.0072175, 0.0945, 0.0996094, 0.0945, -0.9746094, 0.0945, 0.0424805, 0.0036346, 0.0082246, 0.0945, -0.2866211, 0.0945, -0.9414062, 0.0945, 0.0703125, , , , , , , , , , , , , , , , , , , , , , 
0.0041538, 0.0196384, 0.108, -0.2895508, 0.108, -0.9335938, 0.108, 0.1518555, 0.0041538, -0.002182, 0.108, 0.3364258, 0.108, -0.8994141, 0.108, -0.2050781, 0.0041538, -0.0087282, 0.108, 0.0976562, 0.108, -0.9785156, 0.108, 0.0449219, 0.0041538, 0.0077211, 0.108, -0.2929688, 0.108, -0.9360352, 0.108, 0.0717773, , , , , , , , , , , , , , , , , , , , , , 
0.0046731, 0.0193027, 0.1215, -0.2885742, 0.1215, -0.9379883, 0.1215, 0.1494141, 0.0046731, -0.0028534, 0.1215, 0.3486328, 0.1215, -0.9003906, 0.1215, -0.2021484, 0.0046731, -0.0082246, 0.1215, 0.1054688, 0.1215, -0.9848633, 0.1215, 0.0512695, 0.0046731, 0.0068818, 0.1215, -0.2871094, 0.1215, -0.9399414, 0.1215, 0.074707, , , , , , , , , , , , , , , , , , , , , , 
0.0051923, 0.021149, 0.135, -0.2949219, 0.135, -0.940918, 0.135, 0.1494141, 0.0051923, -0.005539, 0.135, 0.3632812, 0.135, -0.9038086, 0.135, -0.1889648, 0.0051923, -0.0072175, 0.135, 0.1137695, 0.135, -0.9873047, 0.135, 0.0556641, 0.0051923, 0.005539, 0.135, -0.2788086, 0.135, -0.9453125, 0.135, 0.0727539, , , , , , , , , , , , , , , , , , , , , , 
0.0057115, 0.0186313, 0.1485, -0.2963867, 0.1485, -0.9394531, 0.1485, 0.1489258, 0.0057115, -0.0085603, 0.1485, 0.3696289, 0.1485, -0.9077148, 0.1485, -0.1826172, 0.0057115, -0.0085603, 0.1485, 0.1166992, 0.1485, -0.9882812, 0.1485, 0.0585938, 0.0057115, 0.0028534, 0.1485, -0.2739258, 0.1485, -0.9487305, 0.1485, 0.0664062, , , , , , , , , , , , , , , , , , , , , , 
0.0062308, 0.0166171, 0.162, -0.2939453, 0.162, -0.9458008, 0.162, 0.1538086, 0.0062308, -0.0087282, 0.162, 0.3745117, 0.162, -0.9077148, 0.162, -0.1835938, 0.0062308, -0.008896, 0.162, 0.1230469, 0.162, -0.9868164, 0.162, 0.0576172, 0.0062308, -0.0016785, 0.162, -0.2719727, 0.162, -0.9555664, 0.162, 0.0605469, , , , , , , , , , , , , , , , , , , , , , 
0.00675, 0.0162814, 0.1755, -0.2919922, 0.1755, -0.9516602, 0.1755, 0.159668, 0.00675, -0.0060426, 0.1755, 0.3847656, 0.1755, -0.9091797, 0.1755, -0.190918, 0.00675, -0.0109102, 0.1755, 0.1240234, 0.1755, -0.9941406, 0.1755, 0.0610352, 0.00675, -0.0063783, 0.1755, -0.277832, 0.1755, -0.9624023, 0.1755, 0.050293, , , , , , , , , , , , , , , , , , , , , , 
0.0072692, 0.0159457, 0.189, -0.3032227, 0.189, -0.9692383, 0.189, 0.1630859, 0.0072692, -0.0068818, 0.189, 0.3891602, 0.189, -0.9257812, 0.189, -0.1943359, 0.0072692, -0.012253, 0.189, 0.1123047, 0.189, -1.015625, 0.189, 0.0610352, 0.0072692, -0.008896, 0.189, -0.2792969, 0.189, -0.9711914, 0.189, 0.0512695, , , , , , , , , , , , , , , , , , , , , , 
0.0077885, 0.014435, 0.2025, -0.3120117, 0.2025, -0.9799805, 0.2025, 0.1601562, 0.0077885, -0.0095674, 0.2025, 0.3876953, 0.2025, -0.9453125, 0.2025, -0.1938477, 0.0077885, -0.0125887, 0.2025, 0.1064453, 0.2025, -1.0410156, 0.2025, 0.0683594, 0.0077885, -0.0099031, 0.2025, -0.2836914, 0.2025, -0.9907227, 0.2025, 0.0522461, , , , , , , , , , , , , , , , , , , , , , 
0.0083077, 0.0090639, 0.216, -0.3256836, 0.216, -0.9946289, 0.216, 0.1572266, 0.0083077, -0.0085603, 0.216, 0.3891602, 0.216, -0.9614258, 0.216, -0.1860352, 0.0083077, -0.0115816, 0.216, 0.1049805, 0.216, -1.0551758, 0.216, 0.0737305, 0.0083077, -0.0078889, 0.216, -0.2832031, 0.216, -1.0073242, 0.216, 0.0527344, , , , , , , , , , , , , , , , , , , , , , 
0.0088269, 0.0035248, 0.2295, -0.3266602, 0.2295, -0.996582, 0.2295, 0.1630859, 0.0088269, -0.0072175, 0.2295, 0.4003906, 0.2295, -0.9614258, 0.2295, -0.1811523, 0.0088269, -0.0109102, 0.2295, 0.1118164, 0.2295, -1.046875, 0.2295, 0.0683594, 0.0088269, -0.0041962, 0.2295, -0.2797852, 0.2295, -1.0039062, 0.2295, 0.0566406, , , , , , , , , , , , , , , , , , , , , , 
0.0093462, 0.0008392, 0.243, -0.3149414, 0.243, -0.9912109, 0.243, 0.1665039, 0.0093462, -0.0082246, 0.243, 0.4135742, 0.243, -0.9516602, 0.243, -0.1870117, 0.0093462, -0.0105745, 0.243, 0.128418, 0.243, -1.0307617, 0.243, 0.0625, 0.0093462, 0.0008392, 0.243, -0.2788086, 0.243, -0.9912109, 0.243, 0.0634766, , , , , , , , , , , , , , , , , , , , , , 
0.0098654, 0.0026856, 0.2565, -0.284668, 0.2565, -0.9824219, 0.2565, 0.1704102, 0.0098654, -0.0090639, 0.2565, 0.4130859, 0.2565, -0.9365234, 0.2565, -0.1982422, 0.0098654, -0.0095674, 0.2565, 0.1386719, 0.2565, -1.0219727, 0.2565, 0.0585938, 0.0098654, 0.005539, 0.2565, -0.2802734, 0.2565, -0.9760742, 0.2565, 0.0786133, , , , , , , , , , , , , , , , , , , , , , 
0.0103846, 0.0025177, 0.27, -0.2641602, 0.27, -0.9746094, 0.27, 0.1791992, 0.0103846, -0.0083925, 0.27, 0.4023438, 0.27, -0.9267578, 0.27, -0.2089844, 0.0103846, -0.0077211, 0.27, 0.1489258, 0.27, -1.0068359, 0.27, 0.0532227, 0.0103846, 0.0090639, 0.27, -0.277832, 0.27, -0.9716797, 0.27, 0.0874023, , , , , , , , , , , , , , , , , , , , , , 
0.0109038, -0.0001678, 0.2835, -0.2763672, 0.2835, -0.9716797, 0.2835, 0.1743164, 0.0109038, -0.0070497, 0.2835, 0.3916016, 0.2835, -0.9272461, 0.2835, -0.2158203, 0.0109038, -0.0078889, 0.2835, 0.1455078, 0.2835, -1.0009766, 0.2835, 0.0512695, 0.0109038, 0.0132601, 0.2835, -0.2758789, 0.2835, -0.965332, 0.2835, 0.0913086, , , , , , , , , , , , , , , , , , , , , , 
0.0114231, -0.0001678, 0.297, -0.2944336, 0.297, -0.9658203, 0.297, 0.1723633, 0.0114231, -0.0065461, 0.297, 0.3730469, 0.297, -0.9248047, 0.297, -0.2202148, 0.0114231, -0.0082246, 0.297, 0.1381836, 0.297, -1.0058594, 0.297, 0.0561523, 0.0114231, 0.0166171, 0.297, -0.2783203, 0.297, -0.9711914, 0.297, 0.0859375, , , , , , , , , , , , , , , , , , , , , , 
0.0119423, 0.0005035, 0.3105, -0.3168945, 0.3105, -0.9755859, 0.3105, 0.1787109, 0.0119423, -0.0065461, 0.3105, 0.359375, 0.3105, -0.9316406, 0.3105, -0.2241211, 0.0119423, -0.005539, 0.3105, 0.1279297, 0.3105, -1.0209961, 0.3105, 0.0576172, 0.0119423, 0.0206455, 0.3105, -0.2890625, 0.3105, -0.9863281, 0.3105, 0.0776367, , , , , , , , , , , , , , , , , , , , , , 
0.0124615, 0.0025177, 0.324, -0.3393555, 0.324, -1.0019531, 0.324, 0.1723633, 0.0124615, -0.0072175, 0.324, 0.3652344, 0.324, -0.9506836, 0.324, -0.2192383, 0.0124615, -0.0038605, 0.324, 0.1142578, 0.324, -1.0449219, 0.324, 0.059082, 0.0124615, 0.026688, 0.324, -0.3046875, 0.324, -1.012207, 0.324, 0.0693359, , , , , , , , , , , , , , , , , , , , , , 
0.0129808, 0.0005035, 0.3375, -0.3427734, 0.3375, -1.0229492, 0.3375, 0.1611328, 0.0129808, -0.0063783, 0.3375, 0.3886719, 0.3375, -0.9770508, 0.3375, -0.2036133, 0.0129808, -0.0068818, 0.3375, 0.0932617, 0.3375, -1.0732422, 0.3375, 0.0576172, 0.0129808, 0.030045, 0.3375, -0.3095703, 0.3375, -1.0258789, 0.3375, 0.0644531, , , , , , , , , , , , , , , , , , , , , , 
0.0135, -0.0018463, 0.351, -0.3198242, 0.351, -1.0336914, 0.351, 0.1655273, 0.0135, -0.0057069, 0.351, 0.4101562, 0.351, -0.9912109, 0.351, -0.1875, 0.0135, -0.0083925, 0.351, 0.0834961, 0.351, -1.0771484, 0.351, 0.0473633, 0.0135, 0.0330663, 0.351, -0.3012695, 0.351, -1.0268555, 0.351, 0.0615234, , , , , , , , , , , , , , , , , , , , , , 
0.0140192, 0.0008392, 0.3645, -0.3056641, 0.3645, -1.0327148, 0.3645, 0.1674805, 0.0140192, -0.0072175, 0.3645, 0.4238281, 0.3645, -0.9902344, 0.3645, -0.1821289, 0.0140192, -0.0068818, 0.3645, 0.0947266, 0.3645, -1.0595703, 0.3645, 0.0263672, 0.0140192, 0.0357519, 0.3645, -0.2792969, 0.3645, -1.0185547, 0.3645, 0.0576172, , , , , , , , , , , , , , , , , , , , , , 
0.0145385, 0.0052033, 0.378, -0.2739258, 0.378, -1.0083008, 0.378, 0.1655273, 0.0145385, -0.0095674, 0.378, 0.4150391, 0.378, -0.9575195, 0.378, -0.1933594, 0.0145385, -0.0045319, 0.378, 0.1147461, 0.378, -1.0180664, 0.378, 0.0151367, 0.0145385, 0.0384375, 0.378, -0.2475586, 0.378, -0.9941406, 0.378, 0.0620117, , , , , , , , , , , , , , , , , , , , , , 
0.0150577, 0.0085603, 0.3915, -0.2475586, 0.3915, -0.9726562, 0.3915, 0.1601562, 0.0150577, -0.0102388, 0.3915, 0.3813477, 0.3915, -0.9077148, 0.3915, -0.2114258, 0.0150577, -0.0052033, 0.3915, 0.1225586, 0.3915, -0.9921875, 0.3915, 0.0136719, 0.0150577, 0.0391089, 0.3915, -0.2314453, 0.3915, -0.9516602, 0.3915, 0.0712891, , , , , , , , , , , , , , , , , , , , , , 
0.0155769, 0.0082246, 0.405, -0.2319336, 0.405, -0.9296875, 0.405, 0.159668, 0.0155769, -0.0097353, 0.405, 0.3310547, 0.405, -0.862793, 0.405, -0.2260742, 0.0155769, -0.0070497, 0.405, 0.1381836, 0.405, -0.940918, 0.405, 0.0136719, 0.0155769, 0.0377661, 0.405, -0.2255859, 0.405, -0.909668, 0.405, 0.0791016, , , , , , , , , , , , , , , , , , , , , , 
0.0160962, 0.0068818, 0.4185, -0.2446289, 0.4185, -0.8945312, 0.4185, 0.1533203, 0.0160962, -0.008896, 0.4185, 0.3081055, 0.4185, -0.8447266, 0.4185, -0.2324219, 0.0160962, -0.0068818, 0.4185, 0.1518555, 0.4185, -0.9072266, 0.4185, 0.019043, 0.0160962, 0.0320592, 0.4185, -0.2211914, 0.4185, -0.8793945, 0.4185, 0.0839844, , , , , , , , , , , , , , , , , , , , , , 
0.0166154, 0.0092317, 0.432, -0.2700195, 0.432, -0.8676758, 0.432, 0.1450195, 0.0166154, -0.0095674, 0.432, 0.28125, 0.432, -0.8203125, 0.432, -0.2353516, 0.0166154, -0.0068818, 0.432, 0.1469727, 0.432, -0.8911133, 0.432, 0.0297852, 0.0166154, 0.0256809, 0.432, -0.2250977, 0.432, -0.8691406, 0.432, 0.0810547, , , , , , , , , , , , , , , , , , , , , , 
0.0171346, 0.0119173, 0.4455, -0.2929688, 0.4455, -0.862793, 0.4455, 0.1474609, 0.0171346, -0.0102388, 0.4455, 0.2802734, 0.4455, -0.8154297, 0.4455, -0.2255859, 0.0171346, -0.0062104, 0.4455, 0.1269531, 0.4455, -0.8984375, 0.4455, 0.0454102, 0.0171346, 0.0218204, 0.4455, -0.2436523, 0.4455, -0.8730469, 0.4455, 0.0693359, , , , , , , , , , , , , , , , , , , , , , 
0.0176538, 0.0159457, 0.459, -0.3041992, 0.459, -0.8740234, 0.459, 0.1508789, 0.0176538, -0.0095674, 0.459, 0.3095703, 0.459, -0.8295898, 0.459, -0.2080078, 0.0176538, -0.005539, 0.459, 0.1054688, 0.459, -0.925293, 0.459, 0.0541992, 0.0176538, 0.0179599, 0.459, -0.2573242, 0.459, -0.8911133, 0.459, 0.0541992, , , , , , , , , , , , , , , , , , , , , , 
0.0181731, 0.0199741, 0.4725, -0.2998047, 0.4725, -0.890625, 0.4725, 0.1586914, 0.0181731, -0.008896, 0.4725, 0.3608398, 0.4725, -0.847168, 0.4725, -0.1870117, 0.0181731, -0.0057069, 0.4725, 0.0859375, 0.4725, -0.9433594, 0.4725, 0.0615234, 0.0181731, 0.01561, 0.4725, -0.2626953, 0.4725, -0.8994141, 0.4725, 0.046875, , , , , , , , , , , , , , , , , , , , , , 
0.0186923, 0.0246738, 0.486, -0.2851562, 0.486, -0.8959961, 0.486, 0.1625977, 0.0186923, -0.0085603, 0.486, 0.4023438, 0.486, -0.8554688, 0.486, -0.1743164, 0.0186923, -0.0072175, 0.486, 0.0791016, 0.486, -0.9453125, 0.486, 0.0605469, 0.0186923, 0.0139315, 0.486, -0.265625, 0.486, -0.8950195, 0.486, 0.0478516, , , , , , , , , , , , , , , , , , , , , , 
0.0192115, 0.0265202, 0.4995, -0.2612305, 0.4995, -0.8935547, 0.4995, 0.1689453, 0.0192115, -0.0075532, 0.4995, 0.4145508, 0.4995, -0.8535156, 0.4995, -0.1777344, 0.0192115, -0.0078889, 0.4995, 0.0966797, 0.4995, -0.9433594, 0.4995, 0.0581055, 0.0192115, 0.0132601, 0.4995, -0.2700195, 0.4995, -0.890625, 0.4995, 0.0537109, , , , , , , , , , , , , , , , , , , , , , 
0.0197308, 0.0246738, 0.513, -0.2509766, 0.513, -0.9013672, 0.513, 0.1782227, 0.0197308, -0.0075532, 0.513, 0.3930664, 0.513, -0.855957, 0.513, -0.2021484, 0.0197308, -0.0065461, 0.513, 0.125, 0.513, -0.956543, 0.513, 0.0615234, 0.0197308, 0.0109102, 0.513, -0.2900391, 0.513, -0.8979492, 0.513, 0.0634766, , , , , , , , , , , , , , , , , , , , , , 
0.02025, 0.0234989, 0.5265, -0.2841797, 0.5265, -0.9335938, 0.5265, 0.171875, 0.02025, -0.0082246, 0.5265, 0.3754883, 0.5265, -0.8808594, 0.5265, -0.2207031, 0.02025, -0.005539, 0.5265, 0.1293945, 0.5265, -0.9736328, 0.5265, 0.0649414, 0.02025, 0.0104067, 0.5265, -0.3066406, 0.5265, -0.9248047, 0.5265, 0.0766602, , , , , , , , , , , , , , , , , , , , , , 
0.0207692, 0.0248417, 0.54, -0.3125, 0.54, -0.9560547, 0.54, 0.1689453, 0.0207692, -0.0085603, 0.54, 0.3662109, 0.54, -0.9033203, 0.54, -0.2192383, 0.0207692, -0.0063783, 0.54, 0.121582, 0.54, -1.0317383, 0.54, 0.0634766, 0.0207692, 0.0099031, 0.54, -0.3164062, 0.54, -0.9794922, 0.54, 0.0810547, , , , , , , , , , , , , , , , , , , , , , 
0.0212885, 0.0271916, 0.5535, -0.3613281, 0.5535, -1.019043, 0.5535, 0.1567383, 0.0212885, -0.0085603, 0.5535, 0.3632812, 0.5535, -0.9736328, 0.5535, -0.206543, 0.0212885, -0.0068818, 0.5535, 0.1010742, 0.5535, -1.109375, 0.5535, 0.0595703, 0.0212885, 0.0085603, 0.5535, -0.3168945, 0.5535, -1.0551758, 0.5535, 0.0737305, , , , , , , , , , , , , , , , , , , , , , 
0.0218077, 0.0219883, 0.567, -0.394043, 0.567, -1.0844727, 0.567, 0.1494141, 0.0218077, -0.0095674, 0.567, 0.3803711, 0.567, -1.0551758, 0.567, -0.1865234, 0.0218077, -0.0072175, 0.567, 0.0751953, 0.567, -1.1723633, 0.567, 0.0449219, 0.0218077, 0.0092317, 0.567, -0.2983398, 0.567, -1.1103516, 0.567, 0.0664062, , , , , , , , , , , , , , , , , , , , , , 
0.0223269, 0.0172885, 0.5805, -0.3720703, 0.5805, -1.1293945, 0.5805, 0.1416016, 0.0223269, -0.0102388, 0.5805, 0.4194336, 0.5805, -1.0991211, 0.5805, -0.1728516, 0.0223269, -0.0082246, 0.5805, 0.0649414, 0.5805, -1.1850586, 0.5805, 0.0263672, 0.0223269, 0.0085603, 0.5805, -0.2631836, 0.5805, -1.1201172, 0.5805, 0.0629883, , , , , , , , , , , , , , , , , , , , , , 
0.0228462, 0.0179599, 0.594, -0.2939453, 0.594, -1.1274414, 0.594, 0.1494141, 0.0228462, -0.0102388, 0.594, 0.4462891, 0.594, -1.0874023, 0.594, -0.1767578, 0.0228462, -0.008896, 0.594, 0.0991211, 0.594, -1.128418, 0.594, 0.0014648, 0.0228462, 0.0097353, 0.594, -0.2216797, 0.594, -1.0830078, 0.594, 0.0683594, , , , , , , , , , , , , , , , , , , , , , 
0.0233654, 0.0213169, 0.6075, -0.1904297, 0.6075, -1.0693359, 0.6075, 0.1591797, 0.0233654, -0.0109102, 0.6075, 0.421875, 0.6075, -1.0214844, 0.6075, -0.2080078, 0.0233654, -0.0075532, 0.6075, 0.1699219, 0.6075, -1.0332031, 0.6075, -0.0170898, 0.0233654, 0.0125887, 0.6075, -0.1914062, 0.6075, -1.0200195, 0.6075, 0.0834961, , , , , , , , , , , , , , , , , , , , , , 
0.0238846, 0.0243381, 0.621, -0.1303711, 0.621, -0.9951172, 0.621, 0.1704102, 0.0238846, -0.0114137, 0.621, 0.3540039, 0.621, -0.9365234, 0.621, -0.262207, 0.0238846, -0.0063783, 0.621, 0.2294922, 0.621, -0.9448242, 0.621, -0.0131836, 0.0238846, 0.0119173, 0.621, -0.1879883, 0.621, -0.9580078, 0.621, 0.1040039, , , , , , , , , , , , , , , , , , , , , , 
0.0244038, 0.0260166, 0.6345, -0.1557617, 0.6345, -0.9389648, 0.6345, 0.1713867, 0.0244038, -0.0095674, 0.6345, 0.2817383, 0.6345, -0.8662109, 0.6345, -0.300293, 0.0244038, -0.0062104, 0.6345, 0.2402344, 0.6345, -0.8930664, 0.6345, 0, 0.0244038, 0.0082246, 0.6345, -0.2001953, 0.6345, -0.9130859, 0.6345, 0.1147461, , , , , , , , , , , , , , , , , , , , , , 
0.0249231, 0.0226596, 0.648, -0.2246094, 0.648, -0.9023438, 0.648, 0.1591797, 0.0249231, -0.0075532, 0.648, 0.2368164, 0.648, -0.8393555, 0.648, -0.2924805, 0.0249231, -0.0085603, 0.648, 0.2241211, 0.648, -0.8881836, 0.648, 0.012207, 0.0249231, 0.0075532, 0.648, -0.2094727, 0.648, -0.9008789, 0.648, 0.1147461, , , , , , , , , , , , , , , , , , , , , , 
0.0254423, 0.0193027, 0.6615, -0.2895508, 0.6615, -0.894043, 0.6615, 0.1503906, 0.0254423, -0.0078889, 0.6615, 0.2368164, 0.6615, -0.8388672, 0.6615, -0.2783203, 0.0254423, -0.0099031, 0.6615, 0.1748047, 0.6615, -0.9145508, 0.6615, 0.0375977, 0.0254423, 0.0065461, 0.6615, -0.2333984, 0.6615, -0.8955078, 0.6615, 0.1074219, , , , , , , , , , , , , , , , , , , , , , 
0.0259615, 0.0176242, 0.675, -0.3334961, 0.675, -0.9082031, 0.675, 0.1494141, 0.0259615, -0.0095674, 0.675, 0.2705078, 0.675, -0.8564453, 0.675, -0.2363281, 0.0259615, -0.0078889, 0.675, 0.1210938, 0.675, -0.9541016, 0.675, 0.0566406, 0.0259615, 0.0028534, 0.675, -0.2612305, 0.675, -0.9160156, 0.675, 0.0922852, , , , , , , , , , , , , , , , , , , , , , 
0.0264808, 0.0166171, 0.6885, -0.3476562, 0.6885, -0.9272461, 0.6885, 0.1630859, 0.0264808, -0.0109102, 0.6885, 0.3374023, 0.6885, -0.8852539, 0.6885, -0.1914062, 0.0264808, -0.0075532, 0.6885, 0.0825195, 0.6885, -0.9887695, 0.6885, 0.0712891, 0.0264808, -0.0025177, 0.6885, -0.2851562, 0.6885, -0.9453125, 0.6885, 0.065918, , , , , , , , , , , , , , , , , , , , , , 
0.027, 0.0203098, 0.702, -0.34375, 0.702, -0.9370117, 0.702, 0.1655273, 0.027, -0.008896, 0.702, 0.4091797, 0.702, -0.9082031, 0.702, -0.1674805, 0.027, -0.010071, 0.702, 0.0654297, 0.702, -1.0131836, 0.702, 0.0859375, 0.027, -0.0075532, 0.702, -0.3081055, 0.702, -0.9628906, 0.702, 0.0419922, , , , , , , , , , , , , , , , , , , , , , 
0.0275192, 0.0240024, 0.7155, -0.3237305, 0.7155, -0.9516602, 0.7155, 0.1757812, 0.0275192, -0.008896, 0.7155, 0.4633789, 0.7155, -0.9169922, 0.7155, -0.1650391, 0.0275192, -0.0109102, 0.7155, 0.065918, 0.7155, -1.0273438, 0.7155, 0.105957, 0.0275192, -0.0090639, 0.7155, -0.3276367, 0.7155, -0.9624023, 0.7155, 0.0317383, , , , , , , , , , , , , , , , , , , , , , 
0.0280385, 0.023331, 0.729, -0.2963867, 0.729, -0.9589844, 0.729, 0.1821289, 0.0280385, -0.0092317, 0.729, 0.4833984, 0.729, -0.9189453, 0.729, -0.1669922, 0.0280385, -0.008896, 0.729, 0.078125, 0.729, -1.0283203, 0.729, 0.1108398, 0.0280385, -0.0085603, 0.729, -0.3413086, 0.729, -0.9589844, 0.729, 0.0317383, , , , , , , , , , , , , , , , , , , , , , 
0.0285577, 0.0172885, 0.7425, -0.2807617, 0.7425, -0.9575195, 0.7425, 0.1904297, 0.0285577, -0.0099031, 0.7425, 0.4658203, 0.7425, -0.9169922, 0.7425, -0.1782227, 0.0285577, -0.0075532, 0.7425, 0.0883789, 0.7425, -1.0209961, 0.7425, 0.1098633, 0.0285577, -0.0068818, 0.7425, -0.34375, 0.7425, -0.9594727, 0.7425, 0.0361328, , , , , , , , , , , , , , , , , , , , , , 
0.0290769, 0.0068818, 0.756, -0.2885742, 0.756, -0.9467773, 0.756, 0.1845703, 0.0290769, -0.0099031, 0.756, 0.4301758, 0.756, -0.9082031, 0.756, -0.1904297, 0.0290769, -0.0070497, 0.756, 0.0932617, 0.756, -1.0083008, 0.756, 0.1074219, 0.0290769, -0.0052033, 0.756, -0.340332, 0.756, -0.9570312, 0.756, 0.0444336, , , , , , , , , , , , , , , , , , , , , , 
0.0295962, -0.0025177, 0.7695, -0.3095703, 0.7695, -0.9423828, 0.7695, 0.1811523, 0.0295962, -0.0090639, 0.7695, 0.3911133, 0.7695, -0.8994141, 0.7695, -0.1982422, 0.0295962, -0.0075532, 0.7695, 0.0908203, 0.7695, -0.9980469, 0.7695, 0.1064453, 0.0295962, -0.0008392, 0.7695, -0.340332, 0.7695, -0.9501953, 0.7695, 0.0546875, , , , , , , , , , , , , , , , , , , , , , 
0.0301154, -0.005539, 0.783, -0.3349609, 0.783, -0.934082, 0.783, 0.1757812, 0.0301154, -0.0083925, 0.783, 0.3774414, 0.783, -0.8955078, 0.783, -0.2041016, 0.0301154, -0.0070497, 0.783, 0.0864258, 0.783, -0.996582, 0.783, 0.0996094, 0.0301154, 0.0063783, 0.783, -0.3310547, 0.783, -0.9448242, 0.783, 0.0605469, , , , , , , , , , , , , , , , , , , , , , 
0.0306346, -0.0065461, 0.7965, -0.3398438, 0.7965, -0.9287109, 0.7965, 0.1772461, 0.0306346, -0.0072175, 0.7965, 0.3608398, 0.7965, -0.8935547, 0.7965, -0.2124023, 0.0306346, -0.0072175, 0.7965, 0.0844727, 0.7965, -0.9853516, 0.7965, 0.0834961, 0.0306346, 0.0099031, 0.7965, -0.3178711, 0.7965, -0.934082, 0.7965, 0.0644531, , , , , , , , , , , , , , , , , , , , , , 
0.0311538, -0.0112459, 0.81, -0.3198242, 0.81, -0.9272461, 0.81, 0.1796875, 0.0311538, -0.0072175, 0.81, 0.3647461, 0.81, -0.8813477, 0.81, -0.215332, 0.0311538, -0.0077211, 0.81, 0.0864258, 0.81, -0.9736328, 0.81, 0.0732422, 0.0311538, 0.0125887, 0.81, -0.3134766, 0.81, -0.9321289, 0.81, 0.0683594, , , , , , , , , , , , , , , , , , , , , , 
0.0316731, -0.0166171, 0.8235, -0.2958984, 0.8235, -0.9316406, 0.8235, 0.1904297, 0.0316731, -0.0085603, 0.8235, 0.3857422, 0.8235, -0.8793945, 0.8235, -0.2119141, 0.0316731, -0.008896, 0.8235, 0.1015625, 0.8235, -0.9707031, 0.8235, 0.0678711, 0.0316731, 0.0186313, 0.8235, -0.300293, 0.8235, -0.9326172, 0.8235, 0.0712891, , , , , , , , , , , , , , , , , , , , , , 
0.0321923, -0.01561, 0.837, -0.2875977, 0.837, -0.940918, 0.837, 0.1918945, 0.0321923, -0.0083925, 0.837, 0.4091797, 0.837, -0.8901367, 0.837, -0.206543, 0.0321923, -0.008896, 0.837, 0.1210938, 0.837, -0.9770508, 0.837, 0.0742188, 0.0321923, 0.0261845, 0.837, -0.2880859, 0.837, -0.9384766, 0.837, 0.0727539, , , , , , , , , , , , , , , , , , , , , , 
0.0327115, -0.0082246, 0.8505, -0.2895508, 0.8505, -0.9501953, 0.8505, 0.1899414, 0.0327115, -0.0075532, 0.8505, 0.4238281, 0.8505, -0.8974609, 0.8505, -0.2050781, 0.0327115, -0.0075532, 0.8505, 0.1337891, 0.8505, -0.9790039, 0.8505, 0.0795898, 0.0327115, 0.0317235, 0.8505, -0.2797852, 0.8505, -0.9467773, 0.8505, 0.0683594, , , , , , , , , , , , , , , , , , , , , , 
0.0332308, -0.0035248, 0.864, -0.2963867, 0.864, -0.9545898, 0.864, 0.1889648, 0.0332308, -0.0077211, 0.864, 0.4213867, 0.864, -0.9086914, 0.864, -0.2045898, 0.0332308, -0.0065461, 0.864, 0.1362305, 0.864, -0.9897461, 0.864, 0.0839844, 0.0332308, 0.0347448, 0.864, -0.2817383, 0.864, -0.9555664, 0.864, 0.0639648, , , , , , , , , , , , , , , , , , , , , , 
0.03375, 0.0038605, 0.8775, -0.3041992, 0.8775, -0.9570312, 0.8775, 0.1938477, 0.03375, -0.0085603, 0.8775, 0.421875, 0.8775, -0.9101562, 0.8775, -0.2011719, 0.03375, -0.0062104, 0.8775, 0.1333008, 0.8775, -0.9951172, 0.8775, 0.090332, 0.03375, 0.0364233, 0.8775, -0.2851562, 0.8775, -0.9589844, 0.8775, 0.0561523, , , , , , , , , , , , , , , , , , , , , , 
0.0342692, 0.0132601, 0.891, -0.3110352, 0.891, -0.9555664, 0.891, 0.1967773, 0.0342692, -0.0072175, 0.891, 0.421875, 0.891, -0.9082031, 0.891, -0.2016602, 0.0342692, -0.0041962, 0.891, 0.121582, 0.891, -0.9970703, 0.891, 0.0908203, 0.0342692, 0.0387732, 0.891, -0.2885742, 0.891, -0.9589844, 0.891, 0.0512695, , , , , , , , , , , , , , , , , , , , , , 
0.0347885, 0.0238346, 0.9045, -0.3120117, 0.9045, -0.9462891, 0.9045, 0.2001953, 0.0347885, -0.005539, 0.9045, 0.4233398, 0.9045, -0.90625, 0.9045, -0.2026367, 0.0347885, -0.0015106, 0.9045, 0.1079102, 0.9045, -0.9931641, 0.9045, 0.0952148, 0.0347885, 0.0417945, 0.9045, -0.2954102, 0.9045, -0.9560547, 0.9045, 0.0493164, , , , , , , , , , , , , , , , , , , , , , 
0.0353077, 0.0276951, 0.918, -0.3110352, 0.918, -0.9389648, 0.918, 0.1933594, 0.0353077, -0.0035248, 0.918, 0.4213867, 0.918, -0.8974609, 0.918, -0.2050781, 0.0353077, -0.003357, 0.918, 0.1044922, 0.918, -0.9882812, 0.918, 0.0991211, 0.0353077, 0.0428016, 0.918, -0.3071289, 0.918, -0.9487305, 0.918, 0.0463867, , , , , , , , , , , , , , , , , , , , , , 
0.0358269, 0.026688, 0.9315, -0.3173828, 0.9315, -0.9296875, 0.9315, 0.1904297, 0.0358269, -0.0028534, 0.9315, 0.4160156, 0.9315, -0.8901367, 0.9315, -0.2001953, 0.0358269, -0.0068818, 0.9315, 0.1020508, 0.9315, -0.9829102, 0.9315, 0.112793, 0.0358269, 0.0391089, 0.9315, -0.3222656, 0.9315, -0.9389648, 0.9315, 0.0473633, , , , , , , , , , , , , , , , , , , , , , 
0.0363462, 0.0253452, 0.945, -0.324707, 0.945, -0.918457, 0.945, 0.1938477, 0.0363462, -0.0030213, 0.945, 0.409668, 0.945, -0.8818359, 0.945, -0.1943359, 0.0363462, -0.0092317, 0.945, 0.1030273, 0.945, -0.9760742, 0.945, 0.1225586, 0.0363462, 0.0317235, 0.945, -0.3422852, 0.945, -0.9306641, 0.945, 0.0512695, , , , , , , , , , , , , , , , , , , , , , 
0.0368654, 0.0270237, 0.9585, -0.3227539, 0.9585, -0.9106445, 0.9585, 0.1967773, 0.0368654, -0.005539, 0.9585, 0.4130859, 0.9585, -0.878418, 0.9585, -0.1938477, 0.0368654, -0.0095674, 0.9585, 0.1010742, 0.9585, -0.9692383, 0.9585, 0.1279297, 0.0368654, 0.0246738, 0.9585, -0.3481445, 0.9585, -0.9262695, 0.9585, 0.0566406, , , , , , , , , , , , , , , , , , , , , , 
0.0373846, 0.030045, 0.972, -0.3095703, 0.972, -0.902832, 0.972, 0.1972656, 0.0373846, -0.0085603, 0.972, 0.4287109, 0.972, -0.8681641, 0.972, -0.1914062, 0.0373846, -0.0095674, 0.972, 0.0981445, 0.972, -0.9560547, 0.972, 0.1318359, 0.0373846, 0.0199741, 0.972, -0.355957, 0.972, -0.9125977, 0.972, 0.0605469, , , , , , , , , , , , , , , , , , , , , , 
0.0379038, 0.0344091, 0.9855, -0.2949219, 0.9855, -0.8911133, 0.9855, 0.1977539, 0.0379038, -0.0082246, 0.9855, 0.4331055, 0.9855, -0.8608398, 0.9855, -0.1889648, 0.0379038, -0.010071, 0.9855, 0.1040039, 0.9855, -0.9453125, 0.9855, 0.1347656, 0.0379038, 0.0166171, 0.9855, -0.3583984, 0.9855, -0.9038086, 0.9855, 0.0600586, , , , , , , , , , , , , , , , , , , , , , 
0.0384231, 0.0350805, 0.999, -0.2983398, 0.999, -0.8823242, 0.999, 0.2001953, 0.0384231, -0.0062104, 0.999, 0.4291992, 0.999, -0.8564453, 0.999, -0.1850586, 0.0384231, -0.0105745, 0.999, 0.1088867, 0.999, -0.9399414, 0.999, 0.1411133, 0.0384231, 0.0135958, 0.999, -0.3623047, 0.999, -0.9013672, 0.999, 0.0620117, , , , , , , , , , , , , , , , , , , , , , 
0.0389423, 0.030045, 1.0125, -0.3164062, 1.0125, -0.8754883, 1.0125, 0.190918, 0.0389423, -0.0062104, 1.0125, 0.4057617, 1.0125, -0.8496094, 1.0125, -0.1835938, 0.0389423, -0.0115816, 1.0125, 0.1069336, 1.0125, -0.9370117, 1.0125, 0.1464844, 0.0389423, 0.0115816, 1.0125, -0.3671875, 1.0125, -0.8964844, 1.0125, 0.0605469, , , , , , , , , , , , , , , , , , , , , , 
0.0394615, 0.0253452, 1.026, -0.3295898, 1.026, -0.8647461, 1.026, 0.1821289, 0.0394615, -0.0065461, 1.026, 0.394043, 1.026, -0.8491211, 1.026, -0.1845703, 0.0394615, -0.0125887, 1.026, 0.0966797, 1.026, -0.9335938, 1.026, 0.1518555, 0.0394615, 0.0105745, 1.026, -0.3696289, 1.026, -0.8891602, 1.026, 0.0595703, , , , , , , , , , , , , , , , , , , , , , 
0.0399808, 0.0218204, 1.0395, -0.3330078, 1.0395, -0.8608398, 1.0395, 0.1826172, 0.0399808, -0.0063783, 1.0395, 0.3842773, 1.0395, -0.8427734, 1.0395, -0.1884766, 0.0399808, -0.0139315, 1.0395, 0.0932617, 1.0395, -0.9287109, 1.0395, 0.152832, 0.0399808, 0.0102388, 1.0395, -0.3701172, 1.0395, -0.8813477, 1.0395, 0.0610352, , , , , , , , , , , , , , , , , , , , , , 
0.0405, 0.0196384, 1.053, -0.3256836, 1.053, -0.8525391, 1.053, 0.1875, 0.0405, -0.0062104, 1.053, 0.3857422, 1.053, -0.8310547, 1.053, -0.1845703, 0.0405, -0.0129244, 1.053, 0.0888672, 1.053, -0.9189453, 1.053, 0.1508789, 0.0405, 0.0115816, 1.053, -0.3652344, 1.053, -0.8720703, 1.053, 0.0688477, , , , , , , , , , , , , , , , , , , , , , 
0.0410192, 0.0204776, 1.0665, -0.3100586, 1.0665, -0.8452148, 1.0665, 0.190918, 0.0410192, -0.0068818, 1.0665, 0.3959961, 1.0665, -0.8183594, 1.0665, -0.1845703, 0.0410192, -0.0109102, 1.0665, 0.1030273, 1.0665, -0.8989258, 1.0665, 0.1420898, 0.0410192, 0.0130922, 1.0665, -0.3564453, 1.0665, -0.8632812, 1.0665, 0.0668945, , , , , , , , , , , , , , , , , , , , , , 
0.0415385, 0.023331, 1.08, -0.2939453, 1.08, -0.8422852, 1.08, 0.1928711, 0.0415385, -0.0085603, 1.08, 0.4106445, 1.08, -0.809082, 1.08, -0.1875, 0.0415385, -0.0112459, 1.08, 0.1166992, 1.08, -0.8920898, 1.08, 0.1386719, 0.0415385, 0.0125887, 1.08, -0.3496094, 1.08, -0.8603516, 1.08, 0.0620117, , , , , , , , , , , , , , , , , , , , , , 
0.0420577, 0.0258488, 1.0935, -0.2958984, 1.0935, -0.8339844, 1.0935, 0.1870117, 0.0420577, -0.0109102, 1.0935, 0.409668, 1.0935, -0.8115234, 1.0935, -0.1650391, 0.0420577, -0.0130922, 1.0935, 0.1186523, 1.0935, -0.8911133, 1.0935, 0.1420898, 0.0420577, 0.0112459, 1.0935, -0.3383789, 1.0935, -0.8574219, 1.0935, 0.0620117, , , , , , , , , , , , , , , , , , , , , , 
0.0425769, 0.0270237, 1.107, -0.3139648, 1.107, -0.8183594, 1.107, 0.1738281, 0.0425769, -0.0102388, 1.107, 0.4052734, 1.107, -0.8032227, 1.107, -0.1552734, 0.0425769, -0.0139315, 1.107, 0.1152344, 1.107, -0.8847656, 1.107, 0.1459961, 0.0425769, 0.0092317, 1.107, -0.3339844, 1.107, -0.8530273, 1.107, 0.0620117, , , , , , , , , , , , , , , , , , , , , , 
0.0430962, 0.0261845, 1.1205, -0.3125, 1.1205, -0.8051758, 1.1205, 0.1674805, 0.0430962, -0.0085603, 1.1205, 0.394043, 1.1205, -0.7832031, 1.1205, -0.1630859, 0.0430962, -0.0125887, 1.1205, 0.1054688, 1.1205, -0.8666992, 1.1205, 0.1337891, 0.0430962, 0.0075532, 1.1205, -0.3334961, 1.1205, -0.8344727, 1.1205, 0.0585938, , , , , , , , , , , , , , , , , , , , , , 
0.0436154, 0.0236667, 1.134, -0.2768555, 1.134, -0.7963867, 1.134, 0.1674805, 0.0436154, -0.0082246, 1.134, 0.3823242, 1.134, -0.7631836, 1.134, -0.1665039, 0.0436154, -0.012253, 1.134, 0.0966797, 1.134, -0.8408203, 1.134, 0.125, 0.0436154, 0.006714, 1.134, -0.3261719, 1.134, -0.8105469, 1.134, 0.0595703, , , , , , , , , , , , , , , , , , , , , , 
0.0441346, 0.0176242, 1.1475, -0.2446289, 1.1475, -0.7763672, 1.1475, 0.1694336, 0.0441346, -0.0093996, 1.1475, 0.3862305, 1.1475, -0.7382812, 1.1475, -0.1591797, 0.0441346, -0.0127565, 1.1475, 0.1030273, 1.1475, -0.8129883, 1.1475, 0.1108398, 0.0441346, 0.0078889, 1.1475, -0.3071289, 1.1475, -0.7885742, 1.1475, 0.0571289, , , , , , , , , , , , , , , , , , , , , , 
0.0446538, 0.0149386, 1.161, -0.2514648, 1.161, -0.7524414, 1.161, 0.1601562, 0.0446538, -0.0097353, 1.161, 0.3852539, 1.161, -0.7275391, 1.161, -0.1513672, 0.0446538, -0.011078, 1.161, 0.1176758, 1.161, -0.7885742, 1.161, 0.0991211, 0.0446538, 0.0078889, 1.161, -0.2827148, 1.161, -0.7695312, 1.161, 0.0546875, , , , , , , , , , , , , , , , , , , , , , 
0.0451731, 0.0135958, 1.1745, -0.2788086, 1.1745, -0.7265625, 1.1745, 0.144043, 0.0451731, -0.0105745, 1.1745, 0.362793, 1.1745, -0.7055664, 1.1745, -0.1474609, 0.0451731, -0.0075532, 1.1745, 0.1206055, 1.1745, -0.7773438, 1.1745, 0.0966797, 0.0451731, 0.0058747, 1.1745, -0.2631836, 1.1745, -0.7597656, 1.1745, 0.0498047, , , , , , , , , , , , , , , , , , , , , , 
0.0456923, 0.0085603, 1.188, -0.2924805, 1.188, -0.7158203, 1.188, 0.1362305, 0.0456923, -0.0109102, 1.188, 0.3295898, 1.188, -0.690918, 1.188, -0.1572266, 0.0456923, -0.0058747, 1.188, 0.121582, 1.188, -0.7646484, 1.188, 0.0976562, 0.0456923, -0.0005035, 1.188, -0.2607422, 1.188, -0.7470703, 1.188, 0.0410156, , , , , , , , , , , , , , , , , , , , , , 
0.0462115, 0.0038605, 1.2015, -0.2958984, 1.2015, -0.7138672, 1.2015, 0.1342773, 0.0462115, -0.0105745, 1.2015, 0.3173828, 1.2015, -0.6835938, 1.2015, -0.152832, 0.0462115, -0.0065461, 1.2015, 0.0981445, 1.2015, -0.7631836, 1.2015, 0.090332, 0.0462115, -0.008896, 1.2015, -0.2661133, 1.2015, -0.7373047, 1.2015, 0.0317383, , , , , , , , , , , , , , , , , , , , , , 
0.0467308, 0.0038605, 1.215, -0.2988281, 1.215, -0.715332, 1.215, 0.1303711, 0.0467308, -0.008896, 1.215, 0.3300781, 1.215, -0.6884766, 1.215, -0.1328125, 0.0467308, -0.0072175, 1.215, 0.0761719, 1.215, -0.7758789, 1.215, 0.0864258, 0.0467308, -0.0142672, 1.215, -0.2612305, 1.215, -0.7397461, 1.215, 0.0234375, , , , , , , , , , , , , , , , , , , , , , 
0.04725, 0.0052033, 1.2285, -0.3085938, 1.2285, -0.7124023, 1.2285, 0.1225586, 0.04725, -0.0085603, 1.2285, 0.3491211, 1.2285, -0.6831055, 1.2285, -0.109375, 0.04725, -0.008896, 1.2285, 0.0649414, 1.2285, -0.7758789, 1.2285, 0.0805664, 0.04725, -0.01561, 1.2285, -0.2319336, 1.2285, -0.7338867, 1.2285, 0.0219727, , , , , , , , , , , , , , , , , , , , , , 
0.0477692, 0.0063783, 1.242, -0.2836914, 1.242, -0.6953125, 1.242, 0.1064453, 0.0477692, -0.0092317, 1.242, 0.3525391, 1.242, -0.6640625, 1.242, -0.0996094, 0.0477692, -0.0109102, 1.242, 0.0771484, 1.242, -0.7446289, 1.242, 0.0703125, 0.0477692, -0.0169528, 1.242, -0.1987305, 1.242, -0.7148438, 1.242, 0.0185547, , , , , , , , , , , , , , , , , , , , , , 
0.0482885, 0.008896, 1.2555, -0.2451172, 1.2555, -0.6762695, 1.2555, 0.0991211, 0.0482885, -0.0095674, 1.2555, 0.331543, 1.2555, -0.6430664, 1.2555, -0.0976562, 0.0482885, -0.0109102, 1.2555, 0.0981445, 1.2555, -0.7045898, 1.2555, 0.050293, 0.0482885, -0.0179599, 1.2555, -0.1831055, 1.2555, -0.7036133, 1.2555, 0.0170898, , , , , , , , , , , , , , , , , , , , , , 
0.0488077, 0.0099031, 1.269, -0.2133789, 1.269, -0.6542969, 1.269, 0.0888672, 0.0488077, -0.0095674, 1.269, 0.3076172, 1.269, -0.6162109, 1.269, -0.1044922, 0.0488077, -0.0102388, 1.269, 0.1079102, 1.269, -0.6694336, 1.269, 0.0336914, 0.0488077, -0.0139315, 1.269, -0.1606445, 1.269, -0.6811523, 1.269, 0.0175781, , , , , , , , , , , , , , , , , , , , , , 
0.0493269, 0.0083925, 1.2825, -0.2080078, 1.2825, -0.6381836, 1.2825, 0.0878906, 0.0493269, -0.0092317, 1.2825, 0.2949219, 1.2825, -0.6035156, 1.2825, -0.112793, 0.0493269, -0.0125887, 1.2825, 0.1176758, 1.2825, -0.6508789, 1.2825, 0.0136719, 0.0493269, -0.0062104, 1.2825, -0.1459961, 1.2825, -0.6606445, 1.2825, 0.0136719, , , , , , , , , , , , , , , , , , , , , , 
0.0498462, 0.0031891, 1.296, -0.2436523, 1.296, -0.6508789, 1.296, 0.0805664, 0.0498462, -0.008896, 1.296, 0.2802734, 1.296, -0.5986328, 1.296, -0.1191406, 0.0498462, -0.0135958, 1.296, 0.1049805, 1.296, -0.6689453, 1.296, 0, 0.0498462, 0.0010071, 1.296, -0.1352539, 1.296, -0.6582031, 1.296, 0.003418, , , , , , , , , , , , , , , , , , , , , , 
0.0503654, -0.0015106, 1.3095, -0.2807617, 1.3095, -0.6655273, 1.3095, 0.0561523, 0.0503654, -0.0095674, 1.3095, 0.2739258, 1.3095, -0.6162109, 1.3095, -0.1020508, 0.0503654, -0.011078, 1.3095, 0.0883789, 1.3095, -0.6889648, 1.3095, -0.0019531, 0.0503654, 0.0065461, 1.3095, -0.1225586, 1.3095, -0.6660156, 1.3095, -0.0053711, , , , , , , , , , , , , , , , , , , , , , 
0.0508846, -0.0011749, 1.323, -0.2744141, 1.323, -0.644043, 1.323, 0.0332031, 0.0508846, -0.0095674, 1.323, 0.2788086, 1.323, -0.6176758, 1.323, -0.0615234, 0.0508846, -0.0105745, 1.323, 0.0517578, 1.323, -0.7080078, 1.323, -0.015625, 0.0508846, 0.0117494, 1.323, -0.0913086, 1.323, -0.6572266, 1.323, 0.0004883, , , , , , , , , , , , , , , , , , , , , , 
0.0514038, -0.0006714, 1.3365, -0.2163086, 1.3365, -0.6123047, 1.3365, 0.03125, 0.0514038, -0.0082246, 1.3365, 0.2802734, 1.3365, -0.581543, 1.3365, -0.0571289, 0.0514038, -0.0105745, 1.3365, 0.0234375, 1.3365, -0.6674805, 1.3365, -0.0429688, 0.0514038, 0.0166171, 1.3365, -0.0649414, 1.3365, -0.6225586, 1.3365, -0.0019531, , , , , , , , , , , , , , , , , , , , , , 
0.0519231, 0.0008392, 1.35, -0.1547852, 1.35, -0.5805664, 1.35, 0.0532227, 0.0519231, -0.0075532, 1.35, 0.2539062, 1.35, -0.5429688, 1.35, -0.0927734, 0.0519231, -0.0090639, 1.35, 0.0288086, 1.35, -0.5888672, 1.35, -0.0688477, 0.0519231, 0.0236667, 1.35, -0.0390625, 1.35, -0.5820312, 1.35, -0.0009766, , , , , , , , , , , , , , , , , , , , , , 
0.0524423, 0.0001678, 1.3635, -0.1660156, 1.3635, -0.5673828, 1.3635, 0.0693359, 0.0524423, -0.005539, 1.3635, 0.2006836, 1.3635, -0.5356445, 1.3635, -0.1254883, 0.0524423, -0.0072175, 1.3635, 0.0546875, 1.3635, -0.5410156, 1.3635, -0.0849609, 0.0524423, 0.030045, 1.3635, -0.0366211, 1.3635, -0.5625, 1.3635, 0.0009766, , , , , , , , , , , , , , , , , , , , , , 
0.0529615, -0.0035248, 1.377, -0.1977539, 1.377, -0.5800781, 1.377, 0.0625, 0.0529615, -0.0062104, 1.377, 0.1621094, 1.377, -0.5551758, 1.377, -0.1411133, 0.0529615, -0.0070497, 1.377, 0.0864258, 1.377, -0.5908203, 1.377, -0.0869141, 0.0529615, 0.033402, 1.377, -0.0507812, 1.377, -0.5922852, 1.377, -0.0087891, , , , , , , , , , , , , , , , , , , , , , 
0.0534808, -0.005539, 1.3905, -0.2749023, 1.3905, -0.6313477, 1.3905, 0.0253906, 0.0534808, -0.0090639, 1.3905, 0.1977539, 1.3905, -0.6005859, 1.3905, -0.0927734, 0.0534808, -0.0072175, 1.3905, 0.0883789, 1.3905, -0.6855469, 1.3905, -0.0644531, 0.0534808, 0.0354162, 1.3905, -0.0576172, 1.3905, -0.6469727, 1.3905, -0.0180664, , , , , , , , , , , , , , , , , , , , , , 
0.054, -0.0011749, 1.404, -0.3110352, 1.404, -0.671875, 1.404, -0.0009766, 0.054, -0.008896, 1.404, 0.2246094, 1.404, -0.6196289, 1.404, -0.0551758, 0.054, -0.0050355, 1.404, 0.0683594, 1.404, -0.7470703, 1.404, -0.0527344, 0.054, 0.0364233, 1.404, -0.0185547, 1.404, -0.671875, 1.404, -0.0068359, , , , , , , , , , , , , , , , , , , , , , 
0.0545192, 0.0023499, 1.4175, -0.2612305, 1.4175, -0.6572266, 1.4175, -0.0205078, 0.0545192, -0.0095674, 1.4175, 0.2485352, 1.4175, -0.6171875, 1.4175, -0.0249023, 0.0545192, -0.0028534, 1.4175, 0.0551758, 1.4175, -0.6987305, 1.4175, -0.1040039, 0.0545192, 0.0372625, 1.4175, 0.015625, 1.4175, -0.6674805, 1.4175, 0.0009766, , , , , , , , , , , , , , , , , , , , , , 
0.0550385, 0.0038605, 1.431, -0.1650391, 1.431, -0.6489258, 1.431, 0.0083008, 0.0550385, -0.0095674, 1.431, 0.2290039, 1.431, -0.590332, 1.431, -0.0634766, 0.0550385, -0.0015106, 1.431, 0.0566406, 1.431, -0.6254883, 1.431, -0.1831055, 0.0550385, 0.0381018, 1.431, 0.0766602, 1.431, -0.6503906, 1.431, -0.0078125, , , , , , , , , , , , , , , , , , , , , , 
0.0555577, 0.0078889, 1.4445, -0.1386719, 1.4445, -0.6743164, 1.4445, 0.0336914, 0.0555577, -0.008896, 1.4445, 0.2011719, 1.4445, -0.6162109, 1.4445, -0.1152344, 0.0555577, -0.0008392, 1.4445, 0.0615234, 1.4445, -0.6206055, 1.4445, -0.2128906, 0.0555577, 0.0354162, 1.4445, 0.1166992, 1.4445, -0.652832, 1.4445, -0.0283203, , , , , , , , , , , , , , , , , , , , , , 
0.0560769, 0.0149386, 1.458, -0.2128906, 1.458, -0.7182617, 1.458, 0.0180664, 0.0560769, -0.0082246, 1.458, 0.1943359, 1.458, -0.6811523, 1.458, -0.1054688, 0.0560769, -0.0023499, 1.458, 0.0649414, 1.458, -0.6845703, 1.458, -0.2211914, 0.0560769, 0.0283665, 1.458, 0.1328125, 1.458, -0.6948242, 1.458, -0.0473633, , , , , , , , , , , , , , , , , , , , , , 
0.0565962, 0.0196384, 1.4715, -0.2607422, 1.4715, -0.7490234, 1.4715, -0.0249023, 0.0565962, -0.0082246, 1.4715, 0.2172852, 1.4715, -0.722168, 1.4715, -0.0698242, 0.0565962, -0.0048676, 1.4715, 0.0566406, 1.4715, -0.7719727, 1.4715, -0.1757812, 0.0565962, 0.0229953, 1.4715, 0.1293945, 1.4715, -0.7255859, 1.4715, -0.0507812, , , , , , , , , , , , , , , , , , , , , , 
0.0571154, 0.0236667, 1.485, -0.215332, 1.485, -0.7666016, 1.485, -0.0258789, 0.0571154, -0.008896, 1.485, 0.2104492, 1.485, -0.7250977, 1.485, -0.0561523, 0.0571154, -0.0048676, 1.485, 0.0683594, 1.485, -0.8012695, 1.485, -0.1313477, 0.0571154, 0.018967, 1.485, 0.1108398, 1.485, -0.7207031, 1.485, -0.0371094, , , , , , , , , , , , , , , , , , , , , , 
0.0576346, 0.026688, 1.4985, -0.1430664, 1.4985, -0.7958984, 1.4985, 0.0205078, 0.0576346, -0.0085603, 1.4985, 0.2011719, 1.4985, -0.7280273, 1.4985, -0.0878906, 0.0576346, -0.0041962, 1.4985, 0.1201172, 1.4985, -0.7543945, 1.4985, -0.1518555, 0.0576346, 0.0152743, 1.4985, 0.0952148, 1.4985, -0.7167969, 1.4985, -0.0219727, , , , , , , , , , , , , , , , , , , , , , 
0.0581538, 0.030045, 1.512, -0.1723633, 1.512, -0.8364258, 1.512, 0.0200195, 0.0581538, -0.0075532, 1.512, 0.2192383, 1.512, -0.7695312, 1.512, -0.1079102, 0.0581538, -0.0062104, 1.512, 0.1391602, 1.512, -0.7460938, 1.512, -0.2109375, 0.0581538, 0.0137636, 1.512, 0.0957031, 1.512, -0.7680664, 1.512, -0.0214844, , , , , , , , , , , , , , , , , , , , , , 
0.0586731, 0.0320592, 1.5255, -0.3046875, 1.5255, -0.8823242, 1.5255, -0.0048828, 0.0586731, -0.0075532, 1.5255, 0.2275391, 1.5255, -0.8056641, 1.5255, -0.1040039, 0.0586731, -0.008896, 1.5255, 0.097168, 1.5255, -0.8613281, 1.5255, -0.2553711, 0.0586731, 0.0132601, 1.5255, 0.1313477, 1.5255, -0.8837891, 1.5255, -0.0483398, , , , , , , , , , , , , , , , , , , , , , 
0.0591923, 0.0293736, 1.539, -0.3613281, 1.539, -0.9008789, 1.539, -0.034668, 0.0591923, -0.0078889, 1.539, 0.2119141, 1.539, -0.8657227, 1.539, -0.0810547, 0.0591923, -0.0078889, 1.539, 0.027832, 1.539, -1.0029297, 1.539, -0.2387695, 0.0591923, 0.0109102, 1.539, 0.1899414, 1.539, -0.9980469, 1.539, -0.059082, , , , , , , , , , , , , , , , , , , , , , 
0.0597115, 0.0256809, 1.5525, -0.3964844, 1.5525, -0.9458008, 1.5525, -0.0595703, 0.0597115, -0.0075532, 1.5525, 0.1816406, 1.5525, -0.9106445, 1.5525, -0.050293, 0.0597115, -0.0082246, 1.5525, -0.0043945, 1.5525, -1.0654297, 1.5525, -0.2148438, 0.0597115, 0.0078889, 1.5525, 0.215332, 1.5525, -1.0263672, 1.5525, -0.059082, , , , , , , , , , , , , , , , , , , , , , 
0.0602308, 0.0206455, 1.566, -0.3339844, 1.566, -0.9926758, 1.566, -0.0302734, 0.0602308, -0.0085603, 1.566, 0.2026367, 1.566, -0.9467773, 1.566, -0.043457, 0.0602308, -0.008896, 1.566, -0.0014648, 1.566, -1.065918, 1.566, -0.2148438, 0.0602308, 0.0078889, 1.566, 0.2119141, 1.566, -1.0087891, 1.566, -0.0654297, , , , , , , , , , , , , , , , , , , , , , 
0.06075, 0.0164492, 1.5795, -0.2670898, 1.5795, -1.0366211, 1.5795, 0.0151367, 0.06075, -0.0077211, 1.5795, 0.2705078, 1.5795, -0.9838867, 1.5795, -0.0595703, 0.06075, -0.0099031, 1.5795, 0.0229492, 1.5795, -1.0332031, 1.5795, -0.2426758, 0.06075, 0.0075532, 1.5795, 0.1987305, 1.5795, -0.9682617, 1.5795, -0.0913086, , , , , , , , , , , , , , , , , , , , , , 
0.0612692, 0.0169528, 1.593, -0.2475586, 1.593, -1.0634766, 1.593, -0.0004883, 0.0612692, -0.0062104, 1.593, 0.3276367, 1.593, -1.0239258, 1.593, -0.0766602, 0.0612692, -0.0119173, 1.593, 0.0620117, 1.593, -1.0366211, 1.593, -0.2558594, 0.0612692, 0.0072175, 1.593, 0.2041016, 1.593, -0.9873047, 1.593, -0.1235352, , , , , , , , , , , , , , , , , , , , , , 
0.0617885, 0.0213169, 1.6065, -0.2875977, 1.6065, -1.0888672, 1.6065, -0.0053711, 0.0617885, -0.0060426, 1.6065, 0.3291016, 1.6065, -1.0605469, 1.6065, -0.074707, 0.0617885, -0.0129244, 1.6065, 0.105957, 1.6065, -1.0805664, 1.6065, -0.253418, 0.0617885, 0.0065461, 1.6065, 0.2314453, 1.6065, -1.0615234, 1.6065, -0.1118164, , , , , , , , , , , , , , , , , , , , , , 
0.0623077, 0.0186313, 1.62, -0.2988281, 1.62, -1.1074219, 1.62, -0.0249023, 0.0623077, -0.0068818, 1.62, 0.2739258, 1.62, -1.0800781, 1.62, -0.0625, 0.0623077, -0.0112459, 1.62, 0.1489258, 1.62, -1.1147461, 1.62, -0.2568359, 0.0623077, 0.0025177, 1.62, 0.2509766, 1.62, -1.1225586, 1.62, -0.0541992, , , , , , , , , , , , , , , , , , , , , , 
0.0628269, 0.01561, 1.6335, -0.2797852, 1.6335, -1.1386719, 1.6335, -0.0048828, 0.0628269, -0.0082246, 1.6335, 0.2485352, 1.6335, -1.0986328, 1.6335, -0.0742188, 0.0628269, -0.0082246, 1.6335, 0.1542969, 1.6335, -1.1313477, 1.6335, -0.2592773, 0.0628269, 0.0030213, 1.6335, 0.2275391, 1.6335, -1.1328125, 1.6335, -0.0161133, , , , , , , , , , , , , , , , , , , , , , 
0.0633462, 0.0162814, 1.647, -0.2646484, 1.647, -1.1850586, 1.647, 0.0234375, 0.0633462, -0.0078889, 1.647, 0.2646484, 1.647, -1.1103516, 1.647, -0.0869141, 0.0633462, -0.0058747, 1.647, 0.1411133, 1.647, -1.1425781, 1.647, -0.2529297, 0.0633462, 0.0052033, 1.647, 0.2021484, 1.647, -1.1264648, 1.647, -0.0195312, , , , , , , , , , , , , , , , , , , , , , 
0.0638654, 0.0172885, 1.6605, -0.2573242, 1.6605, -1.2060547, 1.6605, 0.0380859, 0.0638654, -0.0063783, 1.6605, 0.3208008, 1.6605, -1.1435547, 1.6605, -0.105957, 0.0638654, -0.0068818, 1.6605, 0.1235352, 1.6605, -1.1494141, 1.6605, -0.2451172, 0.0638654, 0.0065461, 1.6605, 0.2080078, 1.6605, -1.1337891, 1.6605, -0.0283203, , , , , , , , , , , , , , , , , , , , , , 
0.0643846, 0.0159457, 1.674, -0.2802734, 1.674, -1.2041016, 1.674, 0.0180664, 0.0643846, -0.0072175, 1.674, 0.3417969, 1.674, -1.1733398, 1.674, -0.1171875, 0.0643846, -0.0092317, 1.674, 0.1191406, 1.674, -1.1713867, 1.674, -0.2373047, 0.0643846, 0.0072175, 1.674, 0.2128906, 1.674, -1.1630859, 1.674, -0.050293, , , , , , , , , , , , , , , , , , , , , , 
0.0649038, 0.0125887, 1.6875, -0.3193359, 1.6875, -1.1992188, 1.6875, 0.0239258, 0.0649038, -0.0063783, 1.6875, 0.2973633, 1.6875, -1.1850586, 1.6875, -0.1088867, 0.0649038, -0.0102388, 1.6875, 0.1259766, 1.6875, -1.2045898, 1.6875, -0.2338867, 0.0649038, 0.0048676, 1.6875, 0.2202148, 1.6875, -1.2001953, 1.6875, -0.0615234, , , , , , , , , , , , , , , , , , , , , , 
0.0654231, 0.0109102, 1.701, -0.3242188, 1.701, -1.199707, 1.701, 0.0126953, 0.0654231, -0.0038605, 1.701, 0.2485352, 1.701, -1.2050781, 1.701, -0.1000977, 0.0654231, -0.0092317, 1.701, 0.1435547, 1.701, -1.2197266, 1.701, -0.2260742, 0.0654231, 0.0013428, 1.701, 0.2026367, 1.701, -1.2363281, 1.701, -0.0400391, , , , , , , , , , , , , , , , , , , , , , 
0.0659423, 0.0119173, 1.7145, -0.3125, 1.7145, -1.2436523, 1.7145, 0.0405273, 0.0659423, -0.0025177, 1.7145, 0.2783203, 1.7145, -1.2211914, 1.7145, -0.1166992, 0.0659423, -0.0075532, 1.7145, 0.1889648, 1.7145, -1.2363281, 1.7145, -0.2036133, 0.0659423, -0.0041962, 1.7145, 0.1860352, 1.7145, -1.2504883, 1.7145, -0.0234375, , , , , , , , , , , , , , , , , , , , , , 
0.0664615, 0.0125887, 1.728, -0.2915039, 1.728, -1.2836914, 1.728, 0.0380859, 0.0664615, -0.0035248, 1.728, 0.3417969, 1.728, -1.2392578, 1.728, -0.1254883, 0.0664615, -0.0068818, 1.728, 0.2211914, 1.728, -1.2373047, 1.728, -0.1977539, 0.0664615, -0.0082246, 1.728, 0.1635742, 1.728, -1.2558594, 1.728, -0.0048828, , , , , , , , , , , , , , , , , , , , , , 
0.0669808, 0.0115816, 1.7415, -0.293457, 1.7415, -1.2856445, 1.7415, 0.0566406, 0.0669808, -0.005539, 1.7415, 0.3510742, 1.7415, -1.2368164, 1.7415, -0.1347656, 0.0669808, -0.0072175, 1.7415, 0.1777344, 1.7415, -1.2231445, 1.7415, -0.2167969, 0.0669808, -0.0105745, 1.7415, 0.1733398, 1.7415, -1.237793, 1.7415, -0.0209961, , , , , , , , , , , , , , , , , , , , , , 
0.0675, 0.0092317, 1.755, -0.2744141, 1.755, -1.2373047, 1.755, 0.0615234, 0.0675, -0.0065461, 1.755, 0.3413086, 1.755, -1.2128906, 1.755, -0.1293945, 0.0675, -0.0083925, 1.755, 0.1254883, 1.755, -1.2255859, 1.755, -0.2172852, 0.0675, -0.0099031, 1.755, 0.2011719, 1.755, -1.2265625, 1.755, -0.0424805, , , , , , , , , , , , , , , , , , , , , , 
0.0680192, 0.0078889, 1.7685, -0.300293, 1.7685, -1.234375, 1.7685, 0.1069336, 0.0680192, -0.0075532, 1.7685, 0.3251953, 1.7685, -1.2016602, 1.7685, -0.1474609, 0.0680192, -0.0095674, 1.7685, 0.1508789, 1.7685, -1.2304688, 1.7685, -0.1875, 0.0680192, -0.0082246, 1.7685, 0.2011719, 1.7685, -1.230957, 1.7685, -0.043457, , , , , , , , , , , , , , , , , , , , , , 
0.0685385, 0.0099031, 1.782, -0.2954102, 1.782, -1.2416992, 1.782, 0.0952148, 0.0685385, -0.0068818, 1.782, 0.3227539, 1.782, -1.1987305, 1.782, -0.1669922, 0.0685385, -0.0085603, 1.782, 0.2050781, 1.782, -1.230957, 1.782, -0.1523438, 0.0685385, -0.0065461, 1.782, 0.1640625, 1.782, -1.2441406, 1.782, -0.03125, , , , , , , , , , , , , , , , , , , , , , 
0.0690577, 0.0104067, 1.7955, -0.2758789, 1.7955, -1.2373047, 1.7955, 0.0986328, 0.0690577, -0.005539, 1.7955, 0.3447266, 1.7955, -1.1967773, 1.7955, -0.1879883, 0.0690577, -0.0092317, 1.7955, 0.2451172, 1.7955, -1.2119141, 1.7955, -0.1313477, 0.0690577, -0.0045319, 1.7955, 0.128418, 1.7955, -1.2304688, 1.7955, -0.0131836, , , , , , , , , , , , , , , , , , , , , , 
0.0695769, 0.0048676, 1.809, -0.2919922, 1.809, -1.2397461, 1.809, 0.1538086, 0.0695769, -0.0048676, 1.809, 0.371582, 1.809, -1.1860352, 1.809, -0.1777344, 0.0695769, -0.0102388, 1.809, 0.2553711, 1.809, -1.1962891, 1.809, -0.1479492, 0.0695769, -0.0011749, 1.809, 0.1376953, 1.809, -1.2119141, 1.809, 0.0014648, , , , , , , , , , , , , , , , , , , , , , 
0.0700962, 0.0060426, 1.8225, -0.2905273, 1.8225, -1.2294922, 1.8225, 0.1591797, 0.0700962, -0.0041962, 1.8225, 0.4057617, 1.8225, -1.1816406, 1.8225, -0.1635742, 0.0700962, -0.008896, 1.8225, 0.2363281, 1.8225, -1.1987305, 1.8225, -0.1616211, 0.0700962, 0.0035248, 1.8225, 0.1635742, 1.8225, -1.2143555, 1.8225, 0.0019531, , , , , , , , , , , , , , , , , , , , , , 
0.0706154, 0.0102388, 1.836, -0.2856445, 1.836, -1.2138672, 1.836, 0.1801758, 0.0706154, -0.0035248, 1.836, 0.4633789, 1.836, -1.175293, 1.836, -0.1484375, 0.0706154, -0.0068818, 1.836, 0.2250977, 1.836, -1.2021484, 1.836, -0.1464844, 0.0706154, 0.0099031, 1.836, 0.1533203, 1.836, -1.2275391, 1.836, -0.0029297, , , , , , , , , , , , , , , , , , , , , , 
0.0711346, 0.0099031, 1.8495, -0.2949219, 1.8495, -1.2021484, 1.8495, 0.1816406, 0.0711346, -0.0052033, 1.8495, 0.4882812, 1.8495, -1.1713867, 1.8495, -0.1425781, 0.0711346, -0.0052033, 1.8495, 0.2197266, 1.8495, -1.2114258, 1.8495, -0.1342773, 0.0711346, 0.0146029, 1.8495, 0.1103516, 1.8495, -1.2353516, 1.8495, -0.003418, , , , , , , , , , , , , , , , , , , , , , 
0.0716538, 0.0058747, 1.863, -0.2958984, 1.863, -1.2036133, 1.863, 0.1713867, 0.0716538, -0.0065461, 1.863, 0.4868164, 1.863, -1.1640625, 1.863, -0.1455078, 0.0716538, -0.0035248, 1.863, 0.2006836, 1.863, -1.2329102, 1.863, -0.1083984, 0.0716538, 0.0182956, 1.863, 0.0688477, 1.863, -1.2416992, 1.863, 0.0004883, , , , , , , , , , , , , , , , , , , , , , 
0.0721731, 0.0031891, 1.8765, -0.28125, 1.8765, -1.2294922, 1.8765, 0.1723633, 0.0721731, -0.0068818, 1.8765, 0.4785156, 1.8765, -1.1772461, 1.8765, -0.1367188, 0.0721731, -0.0031891, 1.8765, 0.2001953, 1.8765, -1.2402344, 1.8765, -0.0830078, 0.0721731, 0.0224918, 1.8765, 0.0517578, 1.8765, -1.2475586, 1.8765, -0.0063477, , , , , , , , , , , , , , , , , , , , , , 
0.0726923, 0.0062104, 1.89, -0.3071289, 1.89, -1.2539062, 1.89, 0.1640625, 0.0726923, -0.0072175, 1.89, 0.4755859, 1.89, -1.1894531, 1.89, -0.1313477, 0.0726923, -0.0045319, 1.89, 0.2094727, 1.89, -1.230957, 1.89, -0.1030273, 0.0726923, 0.030045, 1.89, 0.0473633, 1.89, -1.2587891, 1.89, -0.0102539, , , , , , , , , , , , , , , , , , , , , , 
0.0732115, 0.0045319, 1.9035, -0.4160156, 1.9035, -1.2148438, 1.9035, 0.1645508, 0.0732115, -0.0082246, 1.9035, 0.4736328, 1.9035, -1.1811523, 1.9035, -0.1279297, 0.0732115, -0.0052033, 1.9035, 0.2099609, 1.9035, -1.2387695, 1.9035, -0.1166992, 0.0732115, 0.0354162, 1.9035, 0.0766602, 1.9035, -1.2670898, 1.9035, 0.0097656, , , , , , , , , , , , , , , , , , , , , , 
0.0737308, 0.0008392, 1.917, -0.4628906, 1.917, -1.184082, 1.917, 0.1738281, 0.0737308, -0.0082246, 1.917, 0.4389648, 1.917, -1.1728516, 1.917, -0.0981445, 0.0737308, -0.0031891, 1.917, 0.2270508, 1.917, -1.2490234, 1.917, -0.1103516, 0.0737308, 0.0372625, 1.917, 0.0981445, 1.917, -1.2543945, 1.917, -0.0029297, , , , , , , , , , , , , , , , , , , , , , 
0.07425, 0.0018463, 1.9305, -0.4819336, 1.9305, -1.1831055, 1.9305, 0.1933594, 0.07425, -0.0082246, 1.9305, 0.4365234, 1.9305, -1.1650391, 1.9305, -0.0888672, 0.07425, -0.0015106, 1.9305, 0.2177734, 1.9305, -1.2626953, 1.9305, -0.0908203, 0.07425, 0.0391089, 1.9305, 0.1088867, 1.9305, -1.253418, 1.9305, -0.0126953, , , , , , , , , , , , , , , , , , , , , , 
0.0747692, 0.0072175, 1.944, -0.4873047, 1.944, -1.1811523, 1.944, 0.1640625, 0.0747692, -0.0109102, 1.944, 0.4907227, 1.944, -1.1582031, 1.944, -0.0751953, 0.0747692, -0.0016785, 1.944, 0.2104492, 1.944, -1.2841797, 1.944, -0.0874023, 0.0747692, 0.04448, 1.944, 0.0878906, 1.944, -1.2866211, 1.944, -0.0083008, , , , , , , , , , , , , , , , , , , , , , 
0.0752885, 0.0125887, 1.9575, -0.4956055, 1.9575, -1.2006836, 1.9575, 0.1542969, 0.0752885, -0.0115816, 1.9575, 0.5195312, 1.9575, -1.1782227, 1.9575, -0.0429688, 0.0752885, -0.0028534, 1.9575, 0.2089844, 1.9575, -1.2885742, 1.9575, -0.0869141, 0.0752885, 0.0441444, 1.9575, 0.0634766, 1.9575, -1.3164062, 1.9575, -0.0102539, , , , , , , , , , , , , , , , , , , , , , 
0.0758077, 0.0146029, 1.971, -0.5302734, 1.971, -1.2055664, 1.971, 0.1645508, 0.0758077, -0.011078, 1.971, 0.503418, 1.971, -1.2104492, 1.971, -0.0170898, 0.0758077, -0.005539, 1.971, 0.2001953, 1.971, -1.2919922, 1.971, -0.0839844, 0.0758077, 0.0364233, 1.971, 0.0517578, 1.971, -1.3237305, 1.971, -0.015625, , , , , , , , , , , , , , , , , , , , , , 
0.0763269, 0.0142672, 1.9845, -0.5820312, 1.9845, -1.2167969, 1.9845, 0.184082, 0.0763269, -0.011078, 1.9845, 0.4638672, 1.9845, -1.2211914, 1.9845, -0.0161133, 0.0763269, -0.0068818, 1.9845, 0.2070312, 1.9845, -1.3061523, 1.9845, -0.0883789, 0.0763269, 0.0275273, 1.9845, 0.0683594, 1.9845, -1.3334961, 1.9845, -0.0273438, , , , , , , , , , , , , , , , , , , , , , 
0.0768462, 0.0149386, 1.998, -0.5820312, 1.998, -1.2182617, 1.998, 0.199707, 0.0768462, -0.0102388, 1.998, 0.4848633, 1.998, -1.21875, 1.998, -0.0341797, 0.0768462, -0.0065461, 1.998, 0.237793, 1.998, -1.3393555, 1.998, -0.0874023, 0.0768462, 0.0223239, 1.998, 0.0908203, 1.998, -1.3466797, 1.998, -0.0107422, , , , , , , , , , , , , , , , , , , , , , 
0.0773654, 0.0129244, 2.0115, -0.5820312, 2.0115, -1.2041016, 2.0115, 0.1928711, 0.0773654, -0.0082246, 2.0115, 0.5664062, 2.0115, -1.2255859, 2.0115, 0.0161133, 0.0773654, -0.0058747, 2.0115, 0.2568359, 2.0115, -1.3666992, 2.0115, -0.074707, 0.0773654, 0.0199741, 2.0115, 0.0986328, 2.0115, -1.3671875, 2.0115, 0.015625, , , , , , , , , , , , , , , , , , , , , , 
0.0778846, 0.0095674, 2.025, -0.5732422, 2.025, -1.2016602, 2.025, 0.1865234, 0.0778846, -0.008896, 2.025, 0.612793, 2.025, -1.2382812, 2.025, 0.050293, 0.0778846, -0.0048676, 2.025, 0.2836914, 2.025, -1.3491211, 2.025, -0.0317383, 0.0778846, 0.0169528, 2.025, 0.0761719, 2.025, -1.3779297, 2.025, 0.0219727, , , , , , , , , , , , , , , , , , , , , , 
0.0784038, 0.0135958, 2.0385, -0.5551758, 2.0385, -1.1972656, 2.0385, 0.1977539, 0.0784038, -0.0082246, 2.0385, 0.6542969, 2.0385, -1.2363281, 2.0385, 0.0444336, 0.0784038, -0.0057069, 2.0385, 0.3349609, 2.0385, -1.3183594, 2.0385, -0.0112305, 0.0784038, 0.0125887, 2.0385, -0.0029297, 2.0385, -1.3681641, 2.0385, 0.0332031, , , , , , , , , , , , , , , , , , , , , , 
0.0789231, 0.0186313, 2.052, -0.5219727, 2.052, -1.1616211, 2.052, 0.2119141, 0.0789231, -0.0068818, 2.052, 0.6162109, 2.052, -1.2163086, 2.052, 0.0449219, 0.0789231, -0.008896, 2.052, 0.3500977, 2.052, -1.2929688, 2.052, -0.0043945, 0.0789231, 0.0124208, 2.052, -0.0566406, 2.052, -1.3378906, 2.052, 0.0507812, , , , , , , , , , , , , , , , , , , , , , 
0.0794423, 0.0203098, 2.0655, -0.5581055, 2.0655, -1.1191406, 2.0655, 0.1904297, 0.0794423, -0.0075532, 2.0655, 0.5854492, 2.0655, -1.159668, 2.0655, 0.0356445, 0.0794423, -0.0109102, 2.0655, 0.2871094, 2.0655, -1.2670898, 2.0655, -0.0029297, 0.0794423, 0.0127565, 2.0655, -0.0620117, 2.0655, -1.3120117, 2.0655, 0.0698242, , , , , , , , , , , , , , , , , , , , , , 
0.0799615, 0.018967, 2.079, -0.6386719, 2.079, -1.0825195, 2.079, 0.2080078, 0.0799615, -0.0095674, 2.079, 0.5776367, 2.079, -1.09375, 2.079, 0.0234375, 0.0799615, -0.0092317, 2.079, 0.2456055, 2.079, -1.2578125, 2.079, 0.0029297, 0.0799615, 0.0124208, 2.079, -0.0625, 2.079, -1.284668, 2.079, 0.0766602, , , , , , , , , , , , , , , , , , , , , , 
0.0804808, 0.017792, 2.0925, -0.7172852, 2.0925, -1.0483398, 2.0925, 0.2548828, 0.0804808, -0.008896, 2.0925, 0.5634766, 2.0925, -1.0742188, 2.0925, 0.0297852, 0.0804808, -0.0068818, 2.0925, 0.234375, 2.0925, -1.2602539, 2.0925, 0.015625, 0.0804808, 0.0114137, 2.0925, -0.0805664, 2.0925, -1.28125, 2.0925, 0.0668945, , , , , , , , , , , , , , , , , , , , , , 
0.081, 0.0193027, 2.106, -0.7021484, 2.106, -1.0185547, 2.106, 0.2216797, 0.081, -0.0078889, 2.106, 0.5693359, 2.106, -1.059082, 2.106, 0.0424805, 0.081, -0.0068818, 2.106, 0.2236328, 2.106, -1.2626953, 2.106, 0.0385742, 0.081, 0.0109102, 2.106, -0.1035156, 2.106, -1.2905273, 2.106, 0.043457, , , , , , , , , , , , , , , , , , , , , , 
0.0815192, 0.018967, 2.1195, -0.6743164, 2.1195, -1.0136719, 2.1195, 0.2226562, 0.0815192, -0.0075532, 2.1195, 0.574707, 2.1195, -1.0380859, 2.1195, 0.0522461, 0.0815192, -0.0077211, 2.1195, 0.2563477, 2.1195, -1.2451172, 2.1195, 0.0585938, 0.0815192, 0.0082246, 2.1195, -0.1010742, 2.1195, -1.2822266, 2.1195, 0.003418, , , , , , , , , , , , , , , , , , , , , , 
0.0820385, 0.0169528, 2.133, -0.675293, 2.133, -1.0268555, 2.133, 0.2275391, 0.0820385, -0.0075532, 2.133, 0.6508789, 2.133, -1.0644531, 2.133, 0.1254883, 0.0820385, -0.0062104, 2.133, 0.2910156, 2.133, -1.2553711, 2.133, 0.0854492, 0.0820385, 0.0057069, 2.133, -0.0703125, 2.133, -1.2475586, 2.133, -0.0234375, , , , , , , , , , , , , , , , , , , , , , 
0.0825577, 0.0157778, 2.1465, -0.6499023, 2.1465, -1.0498047, 2.1465, 0.1855469, 0.0825577, -0.0068818, 2.1465, 0.6777344, 2.1465, -1.0898438, 2.1465, 0.1342773, 0.0825577, -0.0050355, 2.1465, 0.2944336, 2.1465, -1.2495117, 2.1465, 0.078125, 0.0825577, 0.0038605, 2.1465, -0.0327148, 2.1465, -1.2299805, 2.1465, -0.0180664, , , , , , , , , , , , , , , , , , , , , , 
0.0830769, 0.01561, 2.16, -0.6816406, 2.16, -1.1030273, 2.16, 0.1586914, 0.0830769, -0.0068818, 2.16, 0.6494141, 2.16, -1.137207, 2.16, 0.0688477, 0.0830769, -0.005539, 2.16, 0.269043, 2.16, -1.2280273, 2.16, 0.0463867, 0.0830769, 0.0031891, 2.16, 0.0083008, 2.16, -1.2724609, 2.16, -0.019043, , , , , , , , , , , , , , , , , , , , , , 
0.0835962, 0.0142672, 2.1735, -0.652832, 2.1735, -1.1557617, 2.1735, 0.3554688, 0.0835962, -0.0082246, 2.1735, 0.6660156, 2.1735, -1.0288086, 2.1735, -0.0874023, 0.0835962, -0.0068818, 2.1735, 0.2915039, 2.1735, -1.293457, 2.1735, 0.1020508, 0.0835962, 0.0038605, 2.1735, 0.0263672, 2.1735, -1.2919922, 2.1735, -0.0463867, , , , , , , , , , , , , , , , , , , , , , 
0.0841154, 0.0162814, 2.187, -0.1411133, 2.187, -1.246582, 2.187, 0.362793, 0.0841154, -0.0082246, 2.187, 0.6352539, 2.187, -0.8930664, 2.187, -0.3544922, 0.0841154, -0.0068818, 2.187, 0.3041992, 2.187, -1.3886719, 2.187, 0.0922852, 0.0841154, 0.0045319, 2.187, 0.0185547, 2.187, -1.309082, 2.187, -0.1186523, , , , , , , , , , , , , , , , , , , , , , 
0.0846346, 0.0206455, 2.2005, 0.230957, 2.2005, -1.4155273, 2.2005, 0.4018555, 0.0846346, -0.0077211, 2.2005, 0.6005859, 2.2005, -1.1049805, 2.2005, -0.2744141, 0.0846346, -0.0063783, 2.2005, 0.3125, 2.2005, -1.2915039, 2.2005, -0.1489258, 0.0846346, 0.0031891, 2.2005, -0.0063477, 2.2005, -1.3374023, 2.2005, -0.1235352, , , , , , , , , , , , , , , , , , , , , , 
0.0851538, 0.0231632, 2.214, -0.0761719, 2.214, -1.4418945, 2.214, 0.3969727, 0.0851538, -0.0068818, 2.214, 0.8496094, 2.214, -1.4423828, 2.214, 0.0668945, 0.0851538, -0.0065461, 2.214, 0.434082, 2.214, -1.2558594, 2.214, -0.3422852, 0.0851538, 0.0005035, 2.214, 0.1689453, 2.214, -1.3989258, 2.214, 0.0493164, , , , , , , , , , , , , , , , , , , , , , 
0.0856731, 0.0224918, 2.2275, -0.7407227, 2.2275, -1.4350586, 2.2275, 0.1870117, 0.0856731, -0.0072175, 2.2275, 0.918457, 2.2275, -1.4921875, 2.2275, -0.4716797, 0.0856731, -0.0075532, 2.2275, 0.4956055, 2.2275, -1.3569336, 2.2275, -0.3364258, 0.0856731, -0.0028534, 2.2275, 0.4287109, 2.2275, -1.4716797, 2.2275, 0.1333008, , , , , , , , , , , , , , , , , , , , , , 
0.0861923, 0.0182956, 2.241, -0.4077148, 2.241, -1.6342773, 2.241, 0.3706055, 0.0861923, -0.0062104, 2.241, 0.6020508, 2.241, -1.5385742, 2.241, -0.1196289, 0.0861923, -0.0090639, 2.241, 0.4584961, 2.241, -1.4702148, 2.241, -0.3041992, 0.0861923, -0.0062104, 2.241, 0.4638672, 2.241, -1.503418, 2.241, 0.0439453, , , , , , , , , , , , , , , , , , , , , , 
0.0867115, 0.0146029, 2.2545, -0.3125, 2.2545, -1.5473633, 2.2545, 0.3295898, 0.0867115, -0.0052033, 2.2545, 0.5229492, 2.2545, -1.472168, 2.2545, -0.2954102, 0.0867115, -0.0099031, 2.2545, 0.2944336, 2.2545, -1.4311523, 2.2545, -0.2407227, 0.0867115, -0.0072175, 2.2545, 0.3095703, 2.2545, -1.4887695, 2.2545, 0.0444336, , , , , , , , , , , , , , , , , , , , , , 
0.0872308, 0.0119173, 2.268, -0.534668, 2.268, -1.3945312, 2.268, 0.2841797, 0.0872308, -0.0063783, 2.268, 0.5053711, 2.268, -1.4213867, 2.268, -0.3193359, 0.0872308, -0.0095674, 2.268, 0.3081055, 2.268, -1.4228516, 2.268, -0.1967773, 0.0872308, -0.0062104, 2.268, 0.1010742, 2.268, -1.5268555, 2.268, 0.1113281, , , , , , , , , , , , , , , , , , , , , , 
0.08775, 0.0075532, 2.2815, -0.5981445, 2.2815, -1.387207, 2.2815, 0.246582, 0.08775, -0.0072175, 2.2815, 0.6010742, 2.2815, -1.4492188, 2.2815, -0.0859375, 0.08775, -0.0083925, 2.2815, 0.4033203, 2.2815, -1.4248047, 2.2815, -0.1894531, 0.08775, -0.0083925, 2.2815, -0.0249023, 2.2815, -1.5947266, 2.2815, 0.2021484, , , , , , , , , , , , , , , , , , , , , , 
0.0882692, 0.0068818, 2.295, -0.5117188, 2.295, -1.3432617, 2.295, 0.1347656, 0.0882692, -0.0062104, 2.295, 0.5932617, 2.295, -1.4057617, 2.295, -0.1176758, 0.0882692, -0.0083925, 2.295, 0.4018555, 2.295, -1.4125977, 2.295, -0.1489258, 0.0882692, -0.0083925, 2.295, -0.0302734, 2.295, -1.5883789, 2.295, 0.2583008, , , , , , , , , , , , , , , , , , , , , , 
0.0887885, 0.0105745, 2.3085, -0.5, 2.3085, -1.3364258, 2.3085, 0.1132812, 0.0887885, -0.0031891, 2.3085, 0.4355469, 2.3085, -1.3959961, 2.3085, 0.0283203, 0.0887885, -0.0092317, 2.3085, 0.2709961, 2.3085, -1.3730469, 2.3085, -0.1723633, 0.0887885, -0.0048676, 2.3085, -0.0317383, 2.3085, -1.4907227, 2.3085, 0.2172852, , , , , , , , , , , , , , , , , , , , , , 
0.0893077, 0.0102388, 2.322, -0.5488281, 2.322, -1.3598633, 2.322, 0.0830078, 0.0893077, -0.0035248, 2.322, 0.4384766, 2.322, -1.3369141, 2.322, 0.0551758, 0.0893077, -0.0102388, 2.322, 0.1298828, 2.322, -1.3413086, 2.322, -0.2255859, 0.0893077, -0.0011749, 2.322, -0.0390625, 2.322, -1.434082, 2.322, 0.168457, , , , , , , , , , , , , , , , , , , , , , 
0.0898269, 0.0092317, 2.3355, -0.6235352, 2.3355, -1.3457031, 2.3355, 0.1132812, 0.0898269, -0.0048676, 2.3355, 0.6459961, 2.3355, -1.28125, 2.3355, 0.137207, 0.0898269, -0.0087282, 2.3355, 0.0625, 2.3355, -1.34375, 2.3355, -0.206543, 0.0898269, 0.0035248, 2.3355, -0.0234375, 2.3355, -1.3417969, 2.3355, 0.0537109, , , , , , , , , , , , , , , , , , , , , , 
0.0903462, 0.0085603, 2.349, -0.6518555, 2.349, -1.2939453, 2.349, 0.128418, 0.0903462, -0.0065461, 2.349, 0.8110352, 2.349, -1.2172852, 2.349, 0.1264648, 0.0903462, -0.0078889, 2.349, 0.0610352, 2.349, -1.3579102, 2.349, -0.1904297, 0.0903462, 0.0087282, 2.349, 0.0581055, 2.349, -1.28125, 2.349, -0.0703125, , , , , , , , , , , , , , , , , , , , , , 
0.0908654, 0.0062104, 2.3625, -0.6376953, 2.3625, -1.2587891, 2.3625, 0.1430664, 0.0908654, -0.0092317, 2.3625, 0.8076172, 2.3625, -1.1904297, 2.3625, 0.1435547, 0.0908654, -0.0068818, 2.3625, 0.0893555, 2.3625, -1.3676758, 2.3625, -0.1723633, 0.0908654, 0.0119173, 2.3625, 0.1621094, 2.3625, -1.2592773, 2.3625, -0.1811523, , , , , , , , , , , , , , , , , , , , , , 
0.0913846, -0.0008392, 2.376, -0.6323242, 2.376, -1.2294922, 2.376, 0.1425781, 0.0913846, -0.0112459, 2.376, 0.7177734, 2.376, -1.1728516, 2.376, 0.1054688, 0.0913846, -0.0075532, 2.376, 0.1630859, 2.376, -1.3432617, 2.376, -0.1860352, 0.0913846, 0.0166171, 2.376, 0.2797852, 2.376, -1.2802734, 2.376, -0.2285156, , , , , , , , , , , , , , , , , , , , , , 
0.0919038, -0.005539, 2.3895, -0.6713867, 2.3895, -1.1611328, 2.3895, 0.1914062, 0.0919038, -0.0105745, 2.3895, 0.6152344, 2.3895, -1.1323242, 2.3895, 0.0844727, 0.0919038, -0.0085603, 2.3895, 0.2597656, 2.3895, -1.3100586, 2.3895, -0.2163086, 0.0919038, 0.0216526, 2.3895, 0.409668, 2.3895, -1.3105469, 2.3895, -0.1845703, , , , , , , , , , , , , , , , , , , , , , 
0.0924231, -0.005539, 2.403, -0.7143555, 2.403, -1.0927734, 2.403, 0.1699219, 0.0924231, -0.0083925, 2.403, 0.590332, 2.403, -1.1035156, 2.403, 0.0844727, 0.0924231, -0.008896, 2.403, 0.3520508, 2.403, -1.2636719, 2.403, -0.2236328, 0.0924231, 0.0290379, 2.403, 0.5009766, 2.403, -1.3120117, 2.403, -0.0961914, , , , , , , , , , , , , , , , , , , , , , 
0.0929423, -0.0015106, 2.4165, -0.7016602, 2.4165, -1.043457, 2.4165, 0.1547852, 0.0929423, -0.0068818, 2.4165, 0.5844727, 2.4165, -1.0488281, 2.4165, 0.1035156, 0.0929423, -0.0093996, 2.4165, 0.4086914, 2.4165, -1.2124023, 2.4165, -0.2094727, 0.0929423, 0.0377661, 2.4165, 0.4770508, 2.4165, -1.2631836, 2.4165, -0.0083008, , , , , , , , , , , , , , , , , , , , , , 
0.0934615, -0.0008392, 2.43, -0.6689453, 2.43, -1.0253906, 2.43, 0.1484375, 0.0934615, -0.0068818, 2.43, 0.609375, 2.43, -1.015625, 2.43, 0.1450195, 0.0934615, -0.008896, 2.43, 0.425293, 2.43, -1.1845703, 2.43, -0.2094727, 0.0934615, 0.043473, 2.43, 0.3261719, 2.43, -1.1899414, 2.43, 0.0336914, , , , , , , , , , , , , , , , , , , , , , 
0.0939808, -0.0038605, 2.4435, -0.6601562, 2.4435, -1.0234375, 2.4435, 0.1318359, 0.0939808, -0.0070497, 2.4435, 0.6777344, 2.4435, -0.9960938, 2.4435, 0.1542969, 0.0939808, -0.0087282, 2.4435, 0.3642578, 2.4435, -1.1708984, 2.4435, -0.2163086, 0.0939808, 0.0431373, 2.4435, 0.1601562, 2.4435, -1.1435547, 2.4435, 0.0415039, , , , , , , , , , , , , , , , , , , , , , 
0.0945, -0.0041962, 2.457, -0.6308594, 2.457, -1.0083008, 2.457, 0.1342773, 0.0945, -0.0058747, 2.457, 0.6958008, 2.457, -0.9785156, 2.457, 0.1586914, 0.0945, -0.0072175, 2.457, 0.2514648, 2.457, -1.1484375, 2.457, -0.2583008, 0.0945, 0.0428016, 2.457, 0.0830078, 2.457, -1.137207, 2.457, 0.046875, , , , , , , , , , , , , , , , , , , , , , 
0.0950192, -0.0003357, 2.4705, -0.6411133, 2.4705, -0.9980469, 2.4705, 0.1303711, 0.0950192, -0.0068818, 2.4705, 0.6743164, 2.4705, -0.9833984, 2.4705, 0.1757812, 0.0950192, -0.0060426, 2.4705, 0.1333008, 2.4705, -1.1293945, 2.4705, -0.2915039, 0.0950192, 0.043473, 2.4705, 0.0898438, 2.4705, -1.1459961, 2.4705, 0.0556641, , , , , , , , , , , , , , , , , , , , , , 
0.0955385, 0.0031891, 2.484, -0.6870117, 2.484, -0.9741211, 2.484, 0.1381836, 0.0955385, -0.0099031, 2.484, 0.6225586, 2.484, -0.9731445, 2.484, 0.1572266, 0.0955385, -0.0062104, 2.484, 0.0947266, 2.484, -1.1235352, 2.484, -0.2841797, 0.0955385, 0.0428016, 2.484, 0.1083984, 2.484, -1.1469727, 2.484, 0.0600586, , , , , , , , , , , , , , , , , , , , , , 
0.0960577, 0.0045319, 2.4975, -0.6928711, 2.4975, -0.9267578, 2.4975, 0.121582, 0.0960577, -0.0105745, 2.4975, 0.5825195, 2.4975, -0.9233398, 2.4975, 0.1567383, 0.0960577, -0.0082246, 2.4975, 0.0786133, 2.4975, -1.1196289, 2.4975, -0.2641602, 0.0960577, 0.0379339, 2.4975, 0.1298828, 2.4975, -1.1337891, 2.4975, 0.0712891, , , , , , , , , , , , , , , , , , , , , , 
0.0965769, 0.0060426, 2.511, -0.6523438, 2.511, -0.8842773, 2.511, 0.1030273, 0.0965769, -0.0102388, 2.511, 0.5703125, 2.511, -0.8735352, 2.511, 0.1606445, 0.0965769, -0.0073854, 2.511, 0.1157227, 2.511, -1.1025391, 2.511, -0.2749023, 0.0965769, 0.0293736, 2.511, 0.1206055, 2.511, -1.0966797, 2.511, 0.0800781, , , , , , , , , , , , , , , , , , , , , , 
0.0970962, 0.0083925, 2.5245, -0.6103516, 2.5245, -0.8706055, 2.5245, 0.1054688, 0.0970962, -0.0102388, 2.5245, 0.5698242, 2.5245, -0.8569336, 2.5245, 0.1650391, 0.0970962, -0.005539, 2.5245, 0.1430664, 2.5245, -1.0673828, 2.5245, -0.2856445, 0.0970962, 0.0219883, 2.5245, 0.1186523, 2.5245, -1.0483398, 2.5245, 0.074707, , , , , , , , , , , , , , , , , , , , , , 
0.0976154, 0.014435, 2.538, -0.5966797, 2.538, -0.871582, 2.538, 0.0966797, 0.0976154, -0.0102388, 2.538, 0.574707, 2.538, -0.8398438, 2.538, 0.1772461, 0.0976154, -0.0048676, 2.538, 0.1425781, 2.538, -1.0239258, 2.538, -0.3037109, 0.0976154, 0.0172885, 2.538, 0.1425781, 2.538, -0.9921875, 2.538, 0.0585938, , , , , , , , , , , , , , , , , , , , , , 
0.0981346, 0.0243381, 2.5515, -0.6098633, 2.5515, -0.8706055, 2.5515, 0.0834961, 0.0981346, -0.0104067, 2.5515, 0.5766602, 2.5515, -0.8325195, 2.5515, 0.2021484, 0.0981346, -0.0075532, 2.5515, 0.1381836, 2.5515, -0.9838867, 2.5515, -0.3188477, 0.0981346, 0.0146029, 2.5515, 0.190918, 2.5515, -0.9375, 2.5515, 0.0395508, , , , , , , , , , , , , , , , , , , , , , 
0.0986538, 0.0357519, 2.565, -0.6010742, 2.565, -0.8461914, 2.565, 0.0649414, 0.0986538, -0.0097353, 2.565, 0.5737305, 2.565, -0.8125, 2.565, 0.1977539, 0.0986538, -0.0109102, 2.565, 0.1411133, 2.565, -0.9423828, 2.565, -0.3359375, 0.0986538, 0.0132601, 2.565, 0.2597656, 2.565, -0.8999023, 2.565, 0.0175781, , , , , , , , , , , , , , , , , , , , , , 
0.0991731, 0.043473, 2.5785, -0.5756836, 2.5785, -0.8212891, 2.5785, 0.0791016, 0.0991731, -0.0085603, 2.5785, 0.5864258, 2.5785, -0.7792969, 2.5785, 0.1943359, 0.0991731, -0.0115816, 2.5785, 0.1582031, 2.5785, -0.9179688, 2.5785, -0.3530273, 0.0991731, 0.0115816, 2.5785, 0.3271484, 2.5785, -0.8730469, 2.5785, -0.0117188, , , , , , , , , , , , , , , , , , , , , , 
0.0996923, 0.0463264, 2.592, -0.5737305, 2.592, -0.7939453, 2.592, 0.0927734, 0.0996923, -0.0072175, 2.592, 0.578125, 2.592, -0.7480469, 2.592, 0.1782227, 0.0996923, -0.0105745, 2.592, 0.1894531, 2.592, -0.8925781, 2.592, -0.3544922, 0.0996923, 0.0102388, 2.592, 0.3808594, 2.592, -0.8613281, 2.592, -0.0429688, , , , , , , , , , , , , , , , , , , , , , 
0.1002115, 0.0481727, 2.6055, -0.5878906, 2.6055, -0.7617188, 2.6055, 0.0917969, 0.1002115, -0.0063783, 2.6055, 0.5327148, 2.6055, -0.71875, 2.6055, 0.1650391, 0.1002115, -0.0099031, 2.6055, 0.2265625, 2.6055, -0.8745117, 2.6055, -0.3461914, 0.1002115, 0.0102388, 2.6055, 0.4135742, 2.6055, -0.8676758, 2.6055, -0.065918, , , , , , , , , , , , , , , , , , , , , , 
0.1007308, 0.0513619, 2.619, -0.5844727, 2.619, -0.7426758, 2.619, 0.0966797, 0.1007308, -0.0062104, 2.619, 0.512207, 2.619, -0.699707, 2.619, 0.1704102, 0.1007308, -0.0095674, 2.619, 0.2353516, 2.619, -0.8666992, 2.619, -0.3466797, 0.1007308, 0.0097353, 2.619, 0.40625, 2.619, -0.8803711, 2.619, -0.0634766, , , , , , , , , , , , , , , , , , , , , , 
0.10125, 0.0488441, 2.6325, -0.5566406, 2.6325, -0.7304688, 2.6325, 0.0869141, 0.10125, -0.0072175, 2.6325, 0.5180664, 2.6325, -0.6826172, 2.6325, 0.1582031, 0.10125, -0.0102388, 2.6325, 0.2451172, 2.6325, -0.8476562, 2.6325, -0.3530273, 0.10125, 0.0085603, 2.6325, 0.3955078, 2.6325, -0.8823242, 2.6325, -0.0556641, , , , , , , , , , , , , , , , , , , , , , 
0.1017692, 0.0411231, 2.646, -0.5405273, 2.646, -0.7119141, 2.646, 0.0751953, 0.1017692, -0.0077211, 2.646, 0.5283203, 2.646, -0.6791992, 2.646, 0.1640625, 0.1017692, -0.0105745, 2.646, 0.2416992, 2.646, -0.8295898, 2.646, -0.3544922, 0.1017692, 0.0065461, 2.646, 0.3745117, 2.646, -0.8613281, 2.646, -0.0361328, , , , , , , , , , , , , , , , , , , , , , 
0.1022885, 0.0340734, 2.6595, -0.5439453, 2.6595, -0.6948242, 2.6595, 0.0800781, 0.1022885, -0.0070497, 2.6595, 0.5351562, 2.6595, -0.6723633, 2.6595, 0.168457, 0.1022885, -0.0099031, 2.6595, 0.2207031, 2.6595, -0.8120117, 2.6595, -0.3671875, 0.1022885, 0.0038605, 2.6595, 0.3457031, 2.6595, -0.8271484, 2.6595, -0.0161133, , , , , , , , , , , , , , , , , , , , , , 
0.1028077, 0.0213169, 2.673, -0.5488281, 2.673, -0.6811523, 2.673, 0.0766602, 0.1028077, -0.0075532, 2.673, 0.5283203, 2.673, -0.6552734, 2.673, 0.1811523, 0.1028077, -0.0112459, 2.673, 0.1782227, 2.673, -0.7993164, 2.673, -0.3779297, 0.1028077, 0.0038605, 2.673, 0.2929688, 2.673, -0.8134766, 2.673, -0.0166016, , , , , , , , , , , , , , , , , , , , , , 
0.1033269, 0.0135958, 2.6865, -0.5844727, 2.6865, -0.6689453, 2.6865, 0.0634766, 0.1033269, -0.0097353, 2.6865, 0.5219727, 2.6865, -0.6328125, 2.6865, 0.2070312, 0.1033269, -0.0115816, 2.6865, 0.1479492, 2.6865, -0.7998047, 2.6865, -0.3637695, 0.1033269, 0.0052033, 2.6865, 0.2573242, 2.6865, -0.8110352, 2.6865, -0.0195312, , , , , , , , , , , , , , , , , , , , , , 
0.1038462, 0.0146029, 2.7, -0.6181641, 2.7, -0.6523438, 2.7, 0.0366211, 0.1038462, -0.0095674, 2.7, 0.5195312, 2.7, -0.6240234, 2.7, 0.2172852, 0.1038462, -0.0090639, 2.7, 0.1201172, 2.7, -0.8120117, 2.7, -0.3574219, 0.1038462, 0.0052033, 2.7, 0.2363281, 2.7, -0.824707, 2.7, -0.0068359, , , , , , , , , , , , , , , , , , , , , , 
0.1043654, 0.0181277, 2.7135, -0.6162109, 2.7135, -0.6513672, 2.7135, 0.0478516, 0.1043654, -0.0075532, 2.7135, 0.512207, 2.7135, -0.6235352, 2.7135, 0.2021484, 0.1043654, -0.0072175, 2.7135, 0.1035156, 2.7135, -0.815918, 2.7135, -0.3452148, 0.1043654, 0.0058747, 2.7135, 0.2290039, 2.7135, -0.8066406, 2.7135, -0.0112305, , , , , , , , , , , , , , , , , , , , , , 
0.1048846, 0.0166171, 2.727, -0.5786133, 2.727, -0.6508789, 2.727, 0.0595703, 0.1048846, -0.0065461, 2.727, 0.5039062, 2.727, -0.6079102, 2.727, 0.1855469, 0.1048846, -0.0075532, 2.727, 0.1054688, 2.727, -0.7871094, 2.727, -0.3427734, 0.1048846, 0.0068818, 2.727, 0.2216797, 2.727, -0.7675781, 2.727, -0.0136719, , , , , , , , , , , , , , , , , , , , , , 
0.1054038, 0.0159457, 2.7405, -0.5444336, 2.7405, -0.6396484, 2.7405, 0.0668945, 0.1054038, -0.0065461, 2.7405, 0.5078125, 2.7405, -0.5878906, 2.7405, 0.1889648, 0.1054038, -0.0099031, 2.7405, 0.1098633, 2.7405, -0.7592773, 2.7405, -0.3530273, 0.1054038, 0.0028534, 2.7405, 0.2236328, 2.7405, -0.7475586, 2.7405, -0.0078125, , , , , , , , , , , , , , , , , , , , , , 
0.1059231, 0.0166171, 2.754, -0.5454102, 2.754, -0.6240234, 2.754, 0.0791016, 0.1059231, -0.0068818, 2.754, 0.5410156, 2.754, -0.5708008, 2.754, 0.1918945, 0.1059231, -0.012253, 2.754, 0.128418, 2.754, -0.7119141, 2.754, -0.3706055, 0.1059231, -0.0038605, 2.754, 0.2299805, 2.754, -0.7695312, 2.754, 0.0029297, , , , , , , , , , , , , , , , , , , , , , 
0.1064423, 0.0146029, 2.7675, -0.5834961, 2.7675, -0.6000977, 2.7675, 0.0688477, 0.1064423, -0.0072175, 2.7675, 0.5634766, 2.7675, -0.5576172, 2.7675, 0.1962891, 0.1064423, -0.0129244, 2.7675, 0.1572266, 2.7675, -0.7138672, 2.7675, -0.3652344, 0.1064423, -0.0072175, 2.7675, 0.2397461, 2.7675, -0.7807617, 2.7675, 0.0078125, , , , , , , , , , , , , , , , , , , , , , 
0.1069615, 0.0099031, 2.781, -0.6054688, 2.781, -0.5864258, 2.781, 0.0922852, 0.1069615, -0.0062104, 2.781, 0.5756836, 2.781, -0.5380859, 2.781, 0.1821289, 0.1069615, -0.0109102, 2.781, 0.1826172, 2.781, -0.7504883, 2.781, -0.3413086, 0.1069615, -0.0075532, 2.781, 0.2446289, 2.781, -0.7739258, 2.781, 0.0053711, , , , , , , , , , , , , , , , , , , , , , 
0.1074808, 0.0057069, 2.7945, -0.5883789, 2.7945, -0.5712891, 2.7945, 0.1181641, 0.1074808, -0.0062104, 2.7945, 0.5141602, 2.7945, -0.5205078, 2.7945, 0.1484375, 0.1074808, -0.0095674, 2.7945, 0.1884766, 2.7945, -0.7612305, 2.7945, -0.3198242, 0.1074808, -0.0085603, 2.7945, 0.2495117, 2.7945, -0.7416992, 2.7945, -0.0009766, , , , , , , , , , , , , , , , , , , , , , 
0.108, 0.0038605, 2.808, -0.5390625, 2.808, -0.5444336, 2.808, 0.059082, 0.108, -0.0077211, 2.808, 0.4526367, 2.808, -0.4956055, 2.808, 0.1342773, 0.108, -0.0102388, 2.808, 0.1972656, 2.808, -0.7319336, 2.808, -0.3330078, 0.108, -0.0095674, 2.808, 0.2451172, 2.808, -0.7246094, 2.808, -0.0048828, , , , , , , , , , , , , , , , , , , , , , 
0.1085192, 0.0078889, 2.8215, -0.5356445, 2.8215, -0.5229492, 2.8215, 0.0322266, 0.1085192, -0.0075532, 2.8215, 0.4526367, 2.8215, -0.4853516, 2.8215, 0.203125, 0.1085192, -0.012253, 2.8215, 0.184082, 2.8215, -0.6870117, 2.8215, -0.3535156, 0.1085192, -0.0085603, 2.8215, 0.2514648, 2.8215, -0.7353516, 2.8215, -0.0136719, , , , , , , , , , , , , , , , , , , , , , 
0.1090385, 0.0109102, 2.835, -0.5678711, 2.835, -0.5205078, 2.835, 0.0605469, 0.1090385, -0.005539, 2.835, 0.5019531, 2.835, -0.4794922, 2.835, 0.2172852, 0.1090385, -0.0115816, 2.835, 0.1723633, 2.835, -0.6796875, 2.835, -0.3374023, 0.1090385, -0.0048676, 2.835, 0.2626953, 2.835, -0.7509766, 2.835, -0.0253906, , , , , , , , , , , , , , , , , , , , , , 
0.1095577, 0.0085603, 2.8485, -0.5864258, 2.8485, -0.5141602, 2.8485, 0.0253906, 0.1095577, -0.0058747, 2.8485, 0.5620117, 2.8485, -0.46875, 2.8485, 0.2265625, 0.1095577, -0.008896, 2.8485, 0.1782227, 2.8485, -0.6938477, 2.8485, -0.3320312, 0.1095577, -0.0001678, 2.8485, 0.2456055, 2.8485, -0.7514648, 2.8485, -0.0424805, , , , , , , , , , , , , , , , , , , , , , 
0.1100769, 0.0072175, 2.862, -0.5541992, 2.862, -0.5161133, 2.862, 0.0161133, 0.1100769, -0.0085603, 2.862, 0.5737305, 2.862, -0.4672852, 2.862, 0.2226562, 0.1100769, -0.0068818, 2.862, 0.1694336, 2.862, -0.7177734, 2.862, -0.3374023, 0.1100769, 0.0050355, 2.862, 0.2246094, 2.862, -0.7392578, 2.862, -0.0600586, , , , , , , , , , , , , , , , , , , , , , 
0.1105962, 0.0099031, 2.8755, -0.5454102, 2.8755, -0.5151367, 2.8755, 0.0351562, 0.1105962, -0.0099031, 2.8755, 0.5703125, 2.8755, -0.4707031, 2.8755, 0.2460938, 0.1105962, -0.0058747, 2.8755, 0.1640625, 2.8755, -0.730957, 2.8755, -0.3393555, 0.1105962, 0.0085603, 2.8755, 0.2285156, 2.8755, -0.7333984, 2.8755, -0.0498047, , , , , , , , , , , , , , , , , , , , , , 
0.1111154, 0.0097353, 2.889, -0.5737305, 2.889, -0.5107422, 2.889, 0.0415039, 0.1111154, -0.0102388, 2.889, 0.5620117, 2.889, -0.4736328, 2.889, 0.2558594, 0.1111154, -0.0041962, 2.889, 0.1557617, 2.889, -0.7407227, 2.889, -0.3549805, 0.1111154, 0.0129244, 2.889, 0.2475586, 2.889, -0.7265625, 2.889, -0.0292969, , , , , , , , , , , , , , , , , , , , , , 
0.1116346, 0.0085603, 2.9025, -0.621582, 2.9025, -0.5039062, 2.9025, 0.0214844, 0.1116346, -0.0099031, 2.9025, 0.5356445, 2.9025, -0.4746094, 2.9025, 0.2402344, 0.1116346, -0.0028534, 2.9025, 0.15625, 2.9025, -0.7128906, 2.9025, -0.3652344, 0.1116346, 0.018967, 2.9025, 0.2661133, 2.9025, -0.7226562, 2.9025, -0.0200195, , , , , , , , , , , , , , , , , , , , , , 
0.1121538, 0.0095674, 2.916, -0.6381836, 2.916, -0.4936523, 2.916, 0.0288086, 0.1121538, -0.0119173, 2.916, 0.5390625, 2.916, -0.4667969, 2.916, 0.2592773, 0.1121538, -0.0041962, 2.916, 0.1850586, 2.916, -0.6762695, 2.916, -0.3828125, 0.1121538, 0.0240024, 2.916, 0.2553711, 2.916, -0.7329102, 2.916, -0.0131836, , , , , , , , , , , , , , , , , , , , , , 
0.1126731, 0.011078, 2.9295, -0.6367188, 2.9295, -0.4887695, 2.9295, 0.0322266, 0.1126731, -0.0129244, 2.9295, 0.5634766, 2.9295, -0.4609375, 2.9295, 0.2783203, 0.1126731, -0.0048676, 2.9295, 0.2094727, 2.9295, -0.6591797, 2.9295, -0.390625, 0.1126731, 0.0280308, 2.9295, 0.2407227, 2.9295, -0.7431641, 2.9295, -0.0180664, , , , , , , , , , , , , , , , , , , , , , 
0.1131923, 0.0065461, 2.943, -0.6645508, 2.943, -0.4848633, 2.943, -0.0043945, 0.1131923, -0.012253, 2.943, 0.5864258, 2.943, -0.4609375, 2.943, 0.3032227, 0.1131923, -0.0052033, 2.943, 0.2006836, 2.943, -0.6899414, 2.943, -0.362793, 0.1131923, 0.0310521, 2.943, 0.2304688, 2.943, -0.7446289, 2.943, -0.019043, , , , , , , , , , , , , , , , , , , , , , 
0.1137115, -0.0015106, 2.9565, -0.668457, 2.9565, -0.4619141, 2.9565, 0.003418, 0.1137115, -0.0129244, 2.9565, 0.597168, 2.9565, -0.4365234, 2.9565, 0.2817383, 0.1137115, -0.005539, 2.9565, 0.1694336, 2.9565, -0.7275391, 2.9565, -0.3486328, 0.1137115, 0.0354162, 2.9565, 0.2128906, 2.9565, -0.7431641, 2.9565, -0.0224609, , , , , , , , , , , , , , , , , , , , , , 
0.1142308, -0.003357, 2.97, -0.6650391, 2.97, -0.4418945, 2.97, 0.0327148, 0.1142308, -0.0125887, 2.97, 0.5761719, 2.97, -0.4042969, 2.97, 0.2792969, 0.1142308, -0.0045319, 2.97, 0.1464844, 2.97, -0.7412109, 2.97, -0.3491211, 0.1142308, 0.0392767, 2.97, 0.2143555, 2.97, -0.7392578, 2.97, -0.0205078, , , , , , , , , , , , , , , , , , , , , , 
0.11475, 0.0008392, 2.9835, -0.6572266, 2.9835, -0.4208984, 2.9835, 0.0019531, 0.11475, -0.0115816, 2.9835, 0.5317383, 2.9835, -0.3774414, 2.9835, 0.277832, 0.11475, -0.0038605, 2.9835, 0.1494141, 2.9835, -0.7197266, 2.9835, -0.3515625, 0.11475, 0.0399481, 2.9835, 0.2060547, 2.9835, -0.7260742, 2.9835, -0.0126953, , , , , , , , , , , , , , , , , , , , , , 
0.1152692, 0.0085603, 2.997, -0.6582031, 2.997, -0.3847656, 2.997, 0.0185547, 0.1152692, -0.0092317, 2.997, 0.5185547, 2.997, -0.3554688, 2.997, 0.2631836, 0.1152692, -0.0052033, 2.997, 0.1904297, 2.997, -0.6958008, 2.997, -0.3354492, 0.1152692, 0.0387732, 2.997, 0.1860352, 2.997, -0.7246094, 2.997, -0.0068359, , , , , , , , , , , , , , , , , , , , , , 
0.1157885, 0.0159457, 3.0105, -0.6689453, 3.0105, -0.359375, 3.0105, 0.0126953, 0.1157885, -0.0077211, 3.0105, 0.5664062, 3.0105, -0.3364258, 3.0105, 0.2739258, 0.1157885, -0.0058747, 3.0105, 0.2124023, 3.0105, -0.6967773, 3.0105, -0.3256836, 0.1157885, 0.033402, 3.0105, 0.1831055, 3.0105, -0.7363281, 3.0105, -0.0170898, , , , , , , , , , , , , , , , , , , , , , 
0.1163077, 0.0146029, 3.024, -0.6943359, 3.024, -0.34375, 3.024, 0.0019531, 0.1163077, -0.0082246, 3.024, 0.5786133, 3.024, -0.3286133, 3.024, 0.2773438, 0.1163077, -0.0052033, 3.024, 0.2192383, 3.024, -0.7089844, 3.024, -0.3276367, 0.1163077, 0.026688, 3.024, 0.1762695, 3.024, -0.7641602, 3.024, -0.0234375, , , , , , , , , , , , , , , , , , , , , , 
0.1168269, 0.014435, 3.0375, -0.7109375, 3.0375, -0.3422852, 3.0375, 0.0151367, 0.1168269, -0.0104067, 3.0375, 0.5620117, 3.0375, -0.3134766, 3.0375, 0.2998047, 0.1168269, -0.0045319, 3.0375, 0.1860352, 3.0375, -0.7324219, 3.0375, -0.3085938, 0.1168269, 0.0223239, 3.0375, 0.1621094, 3.0375, -0.793457, 3.0375, -0.0273438, , , , , , , , , , , , , , , , , , , , , , 
0.1173462, 0.0152743, 3.051, -0.715332, 3.051, -0.3369141, 3.051, -0.0009766, 0.1173462, -0.0112459, 3.051, 0.5620117, 3.051, -0.3095703, 3.051, 0.3183594, 0.1173462, -0.005539, 3.051, 0.1640625, 3.051, -0.7729492, 3.051, -0.2788086, 0.1173462, 0.0206455, 3.051, 0.1469727, 3.051, -0.796875, 3.051, -0.0117188, , , , , , , , , , , , , , , , , , , , , , 
0.1178654, 0.0159457, 3.0645, -0.6958008, 3.0645, -0.3115234, 3.0645, 0.0205078, 0.1178654, -0.0102388, 3.0645, 0.5917969, 3.0645, -0.3017578, 3.0645, 0.2885742, 0.1178654, -0.0062104, 3.0645, 0.1928711, 3.0645, -0.7890625, 3.0645, -0.2895508, 0.1178654, 0.0184634, 3.0645, 0.1274414, 3.0645, -0.777832, 3.0645, -0.0097656, , , , , , , , , , , , , , , , , , , , , , 
0.1183846, 0.01561, 3.078, -0.7158203, 3.078, -0.3188477, 3.078, 0.0927734, 0.1183846, -0.0082246, 3.078, 0.7358398, 3.078, -0.315918, 3.078, 0.3388672, 0.1183846, -0.0045319, 3.078, 0.2036133, 3.078, -0.7783203, 3.078, -0.2998047, 0.1183846, 0.014435, 3.078, 0.1044922, 3.078, -0.7792969, 3.078, 0.0014648, , , , , , , , , , , , , , , , , , , , , , 
0.1189038, 0.0169528, 3.0915, -0.7353516, 3.0915, -0.324707, 3.0915, 0.0776367, 0.1189038, -0.0068818, 3.0915, 0.7836914, 3.0915, -0.3359375, 3.0915, 0.2416992, 0.1189038, -0.0052033, 3.0915, 0.2075195, 3.0915, -0.7558594, 3.0915, -0.3037109, 0.1189038, 0.0119173, 3.0915, 0.1015625, 3.0915, -0.784668, 3.0915, 0.0195312, , , , , , , , , , , , , , , , , , , , , , 
0.1194231, 0.0196384, 3.105, -0.7045898, 3.105, -0.2900391, 3.105, 0.0883789, 0.1194231, -0.0068818, 3.105, 0.6845703, 3.105, -0.3027344, 3.105, 0.2255859, 0.1194231, -0.0082246, 3.105, 0.2089844, 3.105, -0.7680664, 3.105, -0.2744141, 0.1194231, 0.0104067, 3.105, 0.0737305, 3.105, -0.8115234, 3.105, 0.0493164, , , , , , , , , , , , , , , , , , , , , , 
0.1199423, 0.0193027, 3.1185, -0.6762695, 3.1185, -0.2392578, 3.1185, 0.1259766, 0.1199423, -0.0068818, 3.1185, 0.6479492, 3.1185, -0.2543945, 3.1185, 0.2661133, 0.1199423, -0.0095674, 3.1185, 0.206543, 3.1185, -0.7963867, 3.1185, -0.2290039, 0.1199423, 0.0085603, 3.1185, 0.0297852, 3.1185, -0.8359375, 3.1185, 0.0678711, , , , , , , , , , , , , , , , , , , , , , 
0.1204615, 0.0199741, 3.132, -0.737793, 3.132, -0.1982422, 3.132, 0.1176758, 0.1204615, -0.0075532, 3.132, 0.6928711, 3.132, -0.2197266, 3.132, 0.2421875, 0.1204615, -0.0095674, 3.132, 0.2104492, 3.132, -0.8081055, 3.132, -0.2128906, 0.1204615, 0.005539, 3.132, -0.0053711, 3.132, -0.8320312, 3.132, 0.0810547, , , , , , , , , , , , , , , , , , , , , , 
0.1209808, 0.0213169, 3.1455, -0.7983398, 3.1455, -0.2041016, 3.1455, 0.1142578, 0.1209808, -0.0092317, 3.1455, 0.7250977, 3.1455, -0.2148438, 3.1455, 0.2407227, 0.1209808, -0.008896, 3.1455, 0.2128906, 3.1455, -0.8178711, 3.1455, -0.2109375, 0.1209808, 0.0045319, 3.1455, -0.027832, 3.1455, -0.8144531, 3.1455, 0.0805664, , , , , , , , , , , , , , , , , , , , , , 
0.1215, 0.0219883, 3.159, -0.8115234, 3.159, -0.237793, 3.159, 0.1337891, 0.1215, -0.0095674, 3.159, 0.777832, 3.159, -0.2368164, 3.159, 0.277832, 0.1215, -0.0095674, 3.159, 0.1943359, 3.159, -0.8193359, 3.159, -0.2211914, 0.1215, 0.0058747, 3.159, -0.0249023, 3.159, -0.8232422, 3.159, 0.0683594, , , , , , , , , , , , , , , , , , , , , , 
0.1220192, 0.0186313, 3.1725, -0.8071289, 3.1725, -0.2387695, 3.1725, 0.1450195, 0.1220192, -0.0082246, 3.1725, 0.7895508, 3.1725, -0.2666016, 3.1725, 0.269043, 0.1220192, -0.0115816, 3.1725, 0.1977539, 3.1725, -0.8046875, 3.1725, -0.2231445, 0.1220192, 0.0072175, 3.1725, 0.0004883, 3.1725, -0.8476562, 3.1725, 0.0791016, , , , , , , , , , , , , , , , , , , , , , 
0.1225385, 0.0135958, 3.186, -0.8046875, 3.186, -0.2148438, 3.186, 0.1381836, 0.1225385, -0.0062104, 3.186, 0.7714844, 3.186, -0.2509766, 3.186, 0.2705078, 0.1225385, -0.0112459, 3.186, 0.2285156, 3.186, -0.8120117, 3.186, -0.2104492, 0.1225385, 0.0058747, 3.186, -0.0175781, 3.186, -0.8691406, 3.186, 0.0751953, , , , , , , , , , , , , , , , , , , , , , 
0.1230577, 0.0119173, 3.1995, -0.8115234, 3.1995, -0.1816406, 3.1995, 0.1206055, 0.1230577, -0.0062104, 3.1995, 0.7807617, 3.1995, -0.2016602, 3.1995, 0.2836914, 0.1230577, -0.0102388, 3.1995, 0.2319336, 3.1995, -0.8364258, 3.1995, -0.2001953, 0.1230577, 0.0038605, 3.1995, -0.0458984, 3.1995, -0.8837891, 3.1995, 0.0576172, , , , , , , , , , , , , , , , , , , , , , 
0.1235769, 0.0139315, 3.213, -0.8222656, 3.213, -0.1694336, 3.213, 0.1269531, 0.1235769, -0.0072175, 3.213, 0.8012695, 3.213, -0.1655273, 3.213, 0.2832031, 0.1235769, -0.008896, 3.213, 0.2089844, 3.213, -0.8730469, 3.213, -0.1782227, 0.1235769, 0.0048676, 3.213, -0.0493164, 3.213, -0.8945312, 3.213, 0.0522461, , , , , , , , , , , , , , , , , , , , , , 
0.1240962, 0.0151064, 3.2265, -0.8549805, 3.2265, -0.1474609, 3.2265, 0.1318359, 0.1240962, -0.0072175, 3.2265, 0.8154297, 3.2265, -0.159668, 3.2265, 0.2973633, 0.1240962, -0.0095674, 3.2265, 0.1860352, 3.2265, -0.9023438, 3.2265, -0.1655273, 0.1240962, 0.0082246, 3.2265, -0.0463867, 3.2265, -0.8935547, 3.2265, 0.0512695, , , , , , , , , , , , , , , , , , , , , , 
0.1246154, 0.0132601, 3.24, -0.8798828, 3.24, -0.1430664, 3.24, 0.1269531, 0.1246154, -0.0050355, 3.24, 0.8349609, 3.24, -0.1782227, 3.24, 0.2988281, 0.1246154, -0.0095674, 3.24, 0.2011719, 3.24, -0.9042969, 3.24, -0.1816406, 0.1246154, 0.0082246, 3.24, -0.0507812, 3.24, -0.8950195, 3.24, 0.059082, , , , , , , , , , , , , , , , , , , , , , 
0.1251346, 0.0105745, 3.2535, -0.8525391, 3.2535, -0.1557617, 3.2535, 0.1411133, 0.1251346, -0.0052033, 3.2535, 0.8359375, 3.2535, -0.1850586, 3.2535, 0.293457, 0.1251346, -0.0077211, 3.2535, 0.2338867, 3.2535, -0.8964844, 3.2535, -0.2055664, 0.1251346, 0.0041962, 3.2535, -0.0537109, 3.2535, -0.9194336, 3.2535, 0.0761719, , , , , , , , , , , , , , , , , , , , , , 
0.1256538, 0.0078889, 3.267, -0.8442383, 3.267, -0.1616211, 3.267, 0.1484375, 0.1256538, -0.0072175, 3.267, 0.84375, 3.267, -0.1806641, 3.267, 0.2963867, 0.1256538, -0.0073854, 3.267, 0.25, 3.267, -0.8959961, 3.267, -0.2041016, 0.1256538, -0.0011749, 3.267, -0.0424805, 3.267, -0.9453125, 3.267, 0.0830078, , , , , , , , , , , , , , , , , , , , , , 
0.1261731, 0.0043641, 3.2805, -0.8725586, 3.2805, -0.1557617, 3.2805, 0.1352539, 0.1261731, -0.0078889, 3.2805, 0.8608398, 3.2805, -0.1665039, 3.2805, 0.2978516, 0.1261731, -0.0090639, 3.2805, 0.2709961, 3.2805, -0.90625, 3.2805, -0.1835938, 0.1261731, -0.0068818, 3.2805, -0.043457, 3.2805, -0.9575195, 3.2805, 0.0878906, , , , , , , , , , , , , , , , , , , , , , 
0.1266923, 0.0018463, 3.294, -0.9003906, 3.294, -0.1298828, 3.294, 0.1381836, 0.1266923, -0.0068818, 3.294, 0.8725586, 3.294, -0.159668, 3.294, 0.2949219, 0.1266923, -0.0117494, 3.294, 0.2587891, 3.294, -0.9262695, 3.294, -0.1845703, 0.1266923, -0.0109102, 3.294, -0.0615234, 3.294, -0.956543, 3.294, 0.081543, , , , , , , , , , , , , , , , , , , , , , 
0.1272115, 0.0031891, 3.3075, -0.8955078, 3.3075, -0.1259766, 3.3075, 0.1660156, 0.1272115, -0.0062104, 3.3075, 0.8710938, 3.3075, -0.1411133, 3.3075, 0.2734375, 0.1272115, -0.0142672, 3.3075, 0.2373047, 3.3075, -0.9384766, 3.3075, -0.1870117, 0.1272115, -0.0115816, 3.3075, -0.0698242, 3.3075, -0.9506836, 3.3075, 0.0932617, , , , , , , , , , , , , , , , , , , , , , 
0.1277308, 0.0060426, 3.321, -0.8813477, 3.321, -0.1538086, 3.321, 0.1699219, 0.1277308, -0.0075532, 3.321, 0.855957, 3.321, -0.128418, 3.321, 0.2412109, 0.1277308, -0.0149386, 3.321, 0.2197266, 3.321, -0.9282227, 3.321, -0.2050781, 0.1277308, -0.0130922, 3.321, -0.0708008, 3.321, -0.9555664, 3.321, 0.0854492, , , , , , , , , , , , , , , , , , , , , , 
0.12825, 0.0062104, 3.3345, -0.9023438, 3.3345, -0.1621094, 3.3345, 0.1538086, 0.12825, -0.008896, 3.3345, 0.8232422, 3.3345, -0.1318359, 3.3345, 0.2763672, 0.12825, -0.0137636, 3.3345, 0.2324219, 3.3345, -0.9301758, 3.3345, -0.2094727, 0.12825, -0.0132601, 3.3345, -0.0532227, 3.3345, -0.9819336, 3.3345, 0.09375, , , , , , , , , , , , , , , , , , , , , , 
0.1287692, 0.0078889, 3.348, -0.9448242, 3.348, -0.1391602, 3.348, 0.1367188, 0.1287692, -0.0078889, 3.348, 0.8417969, 3.348, -0.1499023, 3.348, 0.3022461, 0.1287692, -0.011078, 3.348, 0.2680664, 3.348, -0.9536133, 3.348, -0.1972656, 0.1287692, -0.0102388, 3.348, -0.0366211, 3.348, -1.0043945, 3.348, 0.1035156, , , , , , , , , , , , , , , , , , , , , , 
0.1292885, 0.0092317, 3.3615, -0.9643555, 3.3615, -0.1230469, 3.3615, 0.1479492, 0.1292885, -0.0070497, 3.3615, 0.9038086, 3.3615, -0.15625, 3.3615, 0.3227539, 0.1292885, -0.0109102, 3.3615, 0.3017578, 3.3615, -0.9628906, 3.3615, -0.2006836, 0.1292885, -0.0035248, 3.3615, -0.0454102, 3.3615, -1.0107422, 3.3615, 0.1098633, , , , , , , , , , , , , , , , , , , , , , 
0.1298077, 0.0031891, 3.375, -0.9570312, 3.375, -0.1293945, 3.375, 0.1523438, 0.1298077, -0.0058747, 3.375, 0.9233398, 3.375, -0.1499023, 3.375, 0.3208008, 0.1298077, -0.0132601, 3.375, 0.309082, 3.375, -0.9648438, 3.375, -0.2045898, 0.1298077, 0.0045319, 3.375, -0.0512695, 3.375, -1.019043, 3.375, 0.1064453, , , , , , , , , , , , , , , , , , , , , , 
0.1303269, -0.0018463, 3.3885, -0.9301758, 3.3885, -0.1455078, 3.3885, 0.1279297, 0.1303269, -0.0041962, 3.3885, 0.9179688, 3.3885, -0.1464844, 3.3885, 0.3217773, 0.1303269, -0.0137636, 3.3885, 0.2910156, 3.3885, -0.9672852, 3.3885, -0.2236328, 0.1303269, 0.0082246, 3.3885, -0.0483398, 3.3885, -1.0185547, 3.3885, 0.1040039, , , , , , , , , , , , , , , , , , , , , , 
0.1308462, 0.0005035, 3.402, -0.9140625, 3.402, -0.1420898, 3.402, 0.1386719, 0.1308462, -0.0043641, 3.402, 0.9042969, 3.402, -0.1391602, 3.402, 0.3120117, 0.1308462, -0.012253, 3.402, 0.2744141, 3.402, -0.9702148, 3.402, -0.2231445, 0.1308462, 0.0105745, 3.402, -0.0463867, 3.402, -1.0185547, 3.402, 0.1132812, , , , , , , , , , , , , , , , , , , , , , 
0.1313654, 0.0050355, 3.4155, -0.9272461, 3.4155, -0.1245117, 3.4155, 0.1547852, 0.1313654, -0.0052033, 3.4155, 0.8920898, 3.4155, -0.1210938, 3.4155, 0.2983398, 0.1313654, -0.0095674, 3.4155, 0.2548828, 3.4155, -0.9726562, 3.4155, -0.2148438, 0.1313654, 0.0171206, 3.4155, -0.0512695, 3.4155, -1.0107422, 3.4155, 0.112793, , , , , , , , , , , , , , , , , , , , , , 
0.1318846, 0.0050355, 3.429, -0.9667969, 3.429, -0.1259766, 3.429, 0.1513672, 0.1318846, -0.0068818, 3.429, 0.8857422, 3.429, -0.1186523, 3.429, 0.3061523, 0.1318846, -0.0075532, 3.429, 0.2617188, 3.429, -0.9667969, 3.429, -0.2070312, 0.1318846, 0.0256809, 3.429, -0.0517578, 3.429, -1.0083008, 3.429, 0.1088867, , , , , , , , , , , , , , , , , , , , , , 
0.1324038, -0.0001678, 3.4425, -0.9755859, 3.4425, -0.1279297, 3.4425, 0.1650391, 0.1324038, -0.008896, 3.4425, 0.8710938, 3.4425, -0.1108398, 3.4425, 0.2856445, 0.1324038, -0.0082246, 3.4425, 0.2832031, 3.4425, -0.956543, 3.4425, -0.2114258, 0.1324038, 0.0320592, 3.4425, -0.0556641, 3.4425, -1.003418, 3.4425, 0.1118164, , , , , , , , , , , , , , , , , , , , , , 
0.1329231, -0.0018463, 3.456, -0.940918, 3.456, -0.128418, 3.456, 0.1591797, 0.1329231, -0.0078889, 3.456, 0.8852539, 3.456, -0.1035156, 3.456, 0.2890625, 0.1329231, -0.0077211, 3.456, 0.2910156, 3.456, -0.9501953, 3.456, -0.2080078, 0.1329231, 0.0352483, 3.456, -0.059082, 3.456, -0.9970703, 3.456, 0.1230469, , , , , , , , , , , , , , , , , , , , , , 
0.1334423, 0.0001678, 3.4695, -0.9018555, 3.4695, -0.1171875, 3.4695, 0.1894531, 0.1334423, -0.0075532, 3.4695, 0.9038086, 3.4695, -0.1049805, 3.4695, 0.2841797, 0.1334423, -0.0068818, 3.4695, 0.2963867, 3.4695, -0.9516602, 3.4695, -0.2036133, 0.1334423, 0.0381018, 3.4695, -0.0556641, 3.4695, -0.9975586, 3.4695, 0.1264648, , , , , , , , , , , , , , , , , , , , , , 
0.1339615, 0.0028534, 3.483, -0.9023438, 3.483, -0.1181641, 3.483, 0.184082, 0.1339615, -0.008896, 3.483, 0.9179688, 3.483, -0.1088867, 3.483, 0.2822266, 0.1339615, -0.005539, 3.483, 0.2978516, 3.483, -0.9506836, 3.483, -0.2124023, 0.1339615, 0.0406195, 3.483, -0.0410156, 3.483, -0.9980469, 3.483, 0.1166992, , , , , , , , , , , , , , , , , , , , , , 
0.1344808, 0.0078889, 3.4965, -0.9160156, 3.4965, -0.1210938, 3.4965, 0.159668, 0.1344808, -0.0095674, 3.4965, 0.9150391, 3.4965, -0.1088867, 3.4965, 0.2836914, 0.1344808, -0.0041962, 3.4965, 0.2900391, 3.4965, -0.9516602, 3.4965, -0.2114258, 0.1344808, 0.0428016, 3.4965, -0.03125, 3.4965, -1.0004883, 3.4965, 0.1137695, , , , , , , , , , , , , , , , , , , , , , 
0.135, 0.01561, 3.51, -0.9238281, 3.51, -0.125, 3.51, 0.1728516, 0.135, -0.0082246, 3.51, 0.9091797, 3.51, -0.1044922, 3.51, 0.2841797, 0.135, -0.0035248, 3.51, 0.2958984, 3.51, -0.9609375, 3.51, -0.199707, 0.135, 0.0424659, 3.51, -0.0390625, 3.51, -1.0043945, 3.51, 0.1079102, , , , , , , , , , , , , , , , , , , , , , 
0.1355192, 0.0199741, 3.5235, -0.9536133, 3.5235, -0.1245117, 3.5235, 0.1704102, 0.1355192, -0.0075532, 3.5235, 0.8876953, 3.5235, -0.0927734, 3.5235, 0.2939453, 0.1355192, -0.0038605, 3.5235, 0.3012695, 3.5235, -0.9702148, 3.5235, -0.1953125, 0.1355192, 0.0379339, 3.5235, -0.0390625, 3.5235, -0.996582, 3.5235, 0.1152344, , , , , , , , , , , , , , , , , , , , , , 
0.1360385, 0.0179599, 3.537, -0.9658203, 3.537, -0.1235352, 3.537, 0.1655273, 0.1360385, -0.0095674, 3.537, 0.887207, 3.537, -0.0839844, 3.537, 0.3027344, 0.1360385, -0.0041962, 3.537, 0.3076172, 3.537, -0.9609375, 3.537, -0.1992188, 0.1360385, 0.0320592, 3.537, -0.0380859, 3.537, -0.9853516, 3.537, 0.1147461, , , , , , , , , , , , , , , , , , , , , , 
0.1365577, 0.014435, 3.5505, -0.9550781, 3.5505, -0.1201172, 3.5505, 0.1689453, 0.1365577, -0.0099031, 3.5505, 0.9086914, 3.5505, -0.0810547, 3.5505, 0.2978516, 0.1365577, -0.0041962, 3.5505, 0.2895508, 3.5505, -0.9414062, 3.5505, -0.2114258, 0.1365577, 0.026688, 3.5505, -0.043457, 3.5505, -0.9848633, 3.5505, 0.1108398, , , , , , , , , , , , , , , , , , , , , , 
0.1370769, 0.0172885, 3.564, -0.9169922, 3.564, -0.1113281, 3.564, 0.1762695, 0.1370769, -0.0082246, 3.564, 0.9213867, 3.564, -0.0795898, 3.564, 0.3115234, 0.1370769, -0.0045319, 3.564, 0.2631836, 3.564, -0.9418945, 3.564, -0.2099609, 0.1370769, 0.023331, 3.564, -0.0527344, 3.564, -0.9868164, 3.564, 0.109375, , , , , , , , , , , , , , , , , , , , , , 
0.1375962, 0.0250095, 3.5775, -0.9077148, 3.5775, -0.1035156, 3.5775, 0.1650391, 0.1375962, -0.0082246, 3.5775, 0.918457, 3.5775, -0.0805664, 3.5775, 0.3115234, 0.1375962, -0.0058747, 3.5775, 0.2578125, 3.5775, -0.9609375, 3.5775, -0.1894531, 0.1375962, 0.021149, 3.5775, -0.0537109, 3.5775, -0.9833984, 3.5775, 0.1069336, , , , , , , , , , , , , , , , , , , , , , 
0.1381154, 0.0276951, 3.591, -0.9355469, 3.591, -0.1064453, 3.591, 0.1630859, 0.1381154, -0.0083925, 3.591, 0.9091797, 3.591, -0.0830078, 3.591, 0.3012695, 0.1381154, -0.0045319, 3.591, 0.2753906, 3.591, -0.9677734, 3.591, -0.1928711, 0.1381154, 0.0186313, 3.591, -0.0541992, 3.591, -0.9931641, 3.591, 0.112793, , , , , , , , , , , , , , , , , , , , , , 
0.1386346, 0.0285344, 3.6045, -0.9697266, 3.6045, -0.1142578, 3.6045, 0.168457, 0.1386346, -0.0068818, 3.6045, 0.9106445, 3.6045, -0.0888672, 3.6045, 0.3129883, 0.1386346, -0.0035248, 3.6045, 0.3066406, 3.6045, -0.9624023, 3.6045, -0.1962891, 0.1386346, 0.0176242, 3.6045, -0.0493164, 3.6045, -0.9990234, 3.6045, 0.1264648, , , , , , , , , , , , , , , , , , , , , , 
0.1391538, 0.0313878, 3.618, -0.9741211, 3.618, -0.1235352, 3.618, 0.1782227, 0.1391538, -0.0062104, 3.618, 0.9067383, 3.618, -0.0883789, 3.618, 0.3100586, 0.1391538, -0.0062104, 3.618, 0.3237305, 3.618, -0.9526367, 3.618, -0.2001953, 0.1391538, 0.0152743, 3.618, -0.0385742, 3.618, -1.0014648, 3.618, 0.1225586, , , , , , , , , , , , , , , , , , , , , , 
0.1396731, 0.0320592, 3.6315, -0.9501953, 3.6315, -0.1196289, 3.6315, 0.1796875, 0.1396731, -0.0072175, 3.6315, 0.9077148, 3.6315, -0.0854492, 3.6315, 0.2993164, 0.1396731, -0.0085603, 3.6315, 0.3203125, 3.6315, -0.9550781, 3.6315, -0.1958008, 0.1396731, 0.0125887, 3.6315, -0.0390625, 3.6315, -0.9995117, 3.6315, 0.1196289, , , , , , , , , , , , , , , , , , , , , , 
0.1401923, 0.0327306, 3.645, -0.9350586, 3.645, -0.0976562, 3.645, 0.1801758, 0.1401923, -0.0068818, 3.645, 0.9169922, 3.645, -0.0834961, 3.645, 0.3037109, 0.1401923, -0.0102388, 3.645, 0.3022461, 3.645, -0.9643555, 3.645, -0.1801758, 0.1401923, 0.0102388, 3.645, -0.0566406, 3.645, -0.9980469, 3.645, 0.1220703, , , , , , , , , , , , , , , , , , , , , , 
0.1407115, 0.0340734, 3.6585, -0.9433594, 3.6585, -0.0908203, 3.6585, 0.1801758, 0.1407115, -0.0065461, 3.6585, 0.9370117, 3.6585, -0.0800781, 3.6585, 0.3134766, 0.1407115, -0.0109102, 3.6585, 0.2919922, 3.6585, -0.96875, 3.6585, -0.1748047, 0.1407115, 0.0085603, 3.6585, -0.0771484, 3.6585, -0.987793, 3.6585, 0.1230469, , , , , , , , , , , , , , , , , , , , , , 
0.1412308, 0.0347448, 3.672, -0.9521484, 3.672, -0.1015625, 3.672, 0.1728516, 0.1412308, -0.0068818, 3.672, 0.9399414, 3.672, -0.0800781, 3.672, 0.3149414, 0.1412308, -0.0115816, 3.672, 0.277832, 3.672, -0.9677734, 3.672, -0.1816406, 0.1412308, 0.0097353, 3.672, -0.0805664, 3.672, -0.9819336, 3.672, 0.1289062, , , , , , , , , , , , , , , , , , , , , , 
0.14175, 0.0350805, 3.6855, -0.9545898, 3.6855, -0.1083984, 3.6855, 0.1674805, 0.14175, -0.0082246, 3.6855, 0.9287109, 3.6855, -0.0888672, 3.6855, 0.3227539, 0.14175, -0.0112459, 3.6855, 0.277832, 3.6855, -0.949707, 3.6855, -0.1826172, 0.14175, 0.0105745, 3.6855, -0.0727539, 3.6855, -0.9755859, 3.6855, 0.1289062, , , , , , , , , , , , , , , , , , , , , , 
0.1422692, 0.0391089, 3.699, -0.9560547, 3.699, -0.1113281, 3.699, 0.1806641, 0.1422692, -0.0082246, 3.699, 0.9248047, 3.699, -0.0913086, 3.699, 0.3227539, 0.1422692, -0.0102388, 3.699, 0.2880859, 3.699, -0.9389648, 3.699, -0.1831055, 0.1422692, 0.0092317, 3.699, -0.0668945, 3.699, -0.9741211, 3.699, 0.125, , , , , , , , , , , , , , , , , , , , , , 
0.1427885, 0.0424659, 3.7125, -0.9541016, 3.7125, -0.1083984, 3.7125, 0.1772461, 0.1427885, -0.0077211, 3.7125, 0.9145508, 3.7125, -0.0776367, 3.7125, 0.3139648, 0.1427885, -0.0102388, 3.7125, 0.2919922, 3.7125, -0.9428711, 3.7125, -0.190918, 0.1427885, 0.0052033, 3.7125, -0.0595703, 3.7125, -0.9750977, 3.7125, 0.1142578, , , , , , , , , , , , , , , , , , , , , , 
0.1433077, 0.0340734, 3.726, -0.953125, 3.726, -0.097168, 3.726, 0.1699219, 0.1433077, -0.0082246, 3.726, 0.9213867, 3.726, -0.0595703, 3.726, 0.3193359, 0.1433077, -0.0102388, 3.726, 0.284668, 3.726, -0.9516602, 3.726, -0.1894531, 0.1433077, 0.0028534, 3.726, -0.0605469, 3.726, -0.9746094, 3.726, 0.1103516, , , , , , , , , , , , , , , , , , , , , , 
0.1438269, 0.0246738, 3.7395, -0.9516602, 3.7395, -0.0820312, 3.7395, 0.1801758, 0.1438269, -0.008896, 3.7395, 0.9350586, 3.7395, -0.0532227, 3.7395, 0.3129883, 0.1438269, -0.0090639, 3.7395, 0.2822266, 3.7395, -0.9589844, 3.7395, -0.1704102, 0.1438269, 0.0038605, 3.7395, -0.0585938, 3.7395, -0.9702148, 3.7395, 0.1108398, , , , , , , , , , , , , , , , , , , , , , 
0.1443462, 0.023331, 3.753, -0.9467773, 3.753, -0.0800781, 3.753, 0.1757812, 0.1443462, -0.0085603, 3.753, 0.9345703, 3.753, -0.0537109, 3.753, 0.3134766, 0.1443462, -0.0090639, 3.753, 0.2861328, 3.753, -0.9599609, 3.753, -0.1630859, 0.1443462, 0.0057069, 3.753, -0.0634766, 3.753, -0.9711914, 3.753, 0.1118164, , , , , , , , , , , , , , , , , , , , , , 
0.1448654, 0.023331, 3.7665, -0.9404297, 3.7665, -0.0805664, 3.7665, 0.1728516, 0.1448654, -0.0070497, 3.7665, 0.9296875, 3.7665, -0.0595703, 3.7665, 0.315918, 0.1448654, -0.0090639, 3.7665, 0.2988281, 3.7665, -0.956543, 3.7665, -0.1704102, 0.1448654, 0.0075532, 3.7665, -0.0654297, 3.7665, -0.9731445, 3.7665, 0.112793, , , , , , , , , , , , , , , , , , , , , , 
0.1453846, 0.0206455, 3.78, -0.9414062, 3.78, -0.0961914, 3.78, 0.1928711, 0.1453846, -0.0078889, 3.78, 0.9238281, 3.78, -0.0683594, 3.78, 0.3022461, 0.1453846, -0.008896, 3.78, 0.3032227, 3.78, -0.9458008, 3.78, -0.1708984, 0.1453846, 0.0065461, 3.78, -0.0712891, 3.78, -0.9726562, 3.78, 0.1206055, , , , , , , , , , , , , , , , , , , , , , 
0.1459038, 0.0191348, 3.7935, -0.9428711, 3.7935, -0.1171875, 3.7935, 0.1845703, 0.1459038, -0.0102388, 3.7935, 0.9272461, 3.7935, -0.0786133, 3.7935, 0.2998047, 0.1459038, -0.0112459, 3.7935, 0.2993164, 3.7935, -0.9433594, 3.7935, -0.175293, 0.1459038, 0.0003357, 3.7935, -0.0751953, 3.7935, -0.9804688, 3.7935, 0.1269531, , , , , , , , , , , , , , , , , , , , , , 
0.1464231, 0.0179599, 3.807, -0.9541016, 3.807, -0.1186523, 3.807, 0.1918945, 0.1464231, -0.0097353, 3.807, 0.9311523, 3.807, -0.0888672, 3.807, 0.3105469, 0.1464231, -0.0112459, 3.807, 0.2954102, 3.807, -0.9526367, 3.807, -0.1777344, 0.1464231, -0.0043641, 3.807, -0.0693359, 3.807, -0.9916992, 3.807, 0.1323242, , , , , , , , , , , , , , , , , , , , , , 
0.1469423, 0.0166171, 3.8205, -0.9736328, 3.8205, -0.1098633, 3.8205, 0.1835938, 0.1469423, -0.0072175, 3.8205, 0.9301758, 3.8205, -0.0834961, 3.8205, 0.3095703, 0.1469423, -0.0104067, 3.8205, 0.2949219, 3.8205, -0.9648438, 3.8205, -0.1748047, 0.1469423, -0.0062104, 3.8205, -0.0708008, 3.8205, -0.9970703, 3.8205, 0.1362305, , , , , , , , , , , , , , , , , , , , , , 
0.1474615, 0.0152743, 3.834, -0.9702148, 3.834, -0.0976562, 3.834, 0.1796875, 0.1474615, -0.0058747, 3.834, 0.9233398, 3.834, -0.0756836, 3.834, 0.3071289, 0.1474615, -0.0099031, 3.834, 0.2998047, 3.834, -0.9711914, 3.834, -0.1733398, 0.1474615, -0.0083925, 3.834, -0.0712891, 3.834, -0.9921875, 3.834, 0.1352539, , , , , , , , , , , , , , , , , , , , , , 
0.1479808, 0.0132601, 3.8475, -0.9492188, 3.8475, -0.1054688, 3.8475, 0.1923828, 0.1479808, -0.0062104, 3.8475, 0.9375, 3.8475, -0.0864258, 3.8475, 0.3071289, 0.1479808, -0.0095674, 3.8475, 0.3071289, 3.8475, -0.9672852, 3.8475, -0.1738281, 0.1479808, -0.0109102, 3.8475, -0.0654297, 3.8475, -0.9907227, 3.8475, 0.1352539, , , , , , , , , , , , , , , , , , , , , , 
0.1485, 0.0099031, 3.861, -0.9350586, 3.861, -0.1245117, 3.861, 0.1914062, 0.1485, -0.005539, 3.861, 0.9414062, 3.861, -0.0961914, 3.861, 0.3027344, 0.1485, -0.0092317, 3.861, 0.3105469, 3.861, -0.9570312, 3.861, -0.1801758, 0.1485, -0.0105745, 3.861, -0.0585938, 3.861, -0.9892578, 3.861, 0.1347656, , , , , , , , , , , , , , , , , , , , , , 
0.1490192, 0.0038605, 3.8745, -0.940918, 3.8745, -0.1254883, 3.8745, 0.1821289, 0.1490192, -0.0043641, 3.8745, 0.9345703, 3.8745, -0.1025391, 3.8745, 0.3085938, 0.1490192, -0.008896, 3.8745, 0.3178711, 3.8745, -0.9487305, 3.8745, -0.1875, 0.1490192, -0.005539, 3.8745, -0.0566406, 3.8745, -0.9951172, 3.8745, 0.1352539, , , , , , , , , , , , , , , , , , , , , , 
0.1495385, -0.0003357, 3.888, -0.9521484, 3.888, -0.1210938, 3.888, 0.1845703, 0.1495385, -0.005539, 3.888, 0.9316406, 3.888, -0.1010742, 3.888, 0.3144531, 0.1495385, -0.0090639, 3.888, 0.3193359, 3.888, -0.9584961, 3.888, -0.1796875, 0.1495385, 0.0008392, 3.888, -0.0522461, 3.888, -1, 3.888, 0.1313477, , , , , , , , , , , , , , , , , , , , , , 
0.1500577, 0.0005035, 3.9015, -0.9672852, 3.9015, -0.1152344, 3.9015, 0.1821289, 0.1500577, -0.0078889, 3.9015, 0.9306641, 3.9015, -0.090332, 3.9015, 0.3129883, 0.1500577, -0.0095674, 3.9015, 0.3071289, 3.9015, -0.9638672, 3.9015, -0.168457, 0.1500577, 0.0058747, 3.9015, -0.0551758, 3.9015, -0.9926758, 3.9015, 0.1245117, , , , , , , , , , , , , , , , , , , , , , 
0.1505769, 0.0025177, 3.915, -0.9575195, 3.915, -0.1074219, 3.915, 0.1811523, 0.1505769, -0.0083925, 3.915, 0.9204102, 3.915, -0.0795898, 3.915, 0.3046875, 0.1505769, -0.0083925, 3.915, 0.2905273, 3.915, -0.9604492, 3.915, -0.1733398, 0.1505769, 0.0105745, 3.915, -0.0771484, 3.915, -0.9897461, 3.915, 0.1308594, , , , , , , , , , , , , , , , , , , , , , 
0.1510962, 0.0001678, 3.9285, -0.9453125, 3.9285, -0.1054688, 3.9285, 0.1835938, 0.1510962, -0.0072175, 3.9285, 0.9125977, 3.9285, -0.0722656, 3.9285, 0.3027344, 0.1510962, -0.0072175, 3.9285, 0.2841797, 3.9285, -0.9589844, 3.9285, -0.1762695, 0.1510962, 0.01561, 3.9285, -0.0854492, 3.9285, -0.9882812, 3.9285, 0.1328125, , , , , , , , , , , , , , , , , , , , , , 
0.1516154, -0.0003357, 3.942, -0.9345703, 3.942, -0.0976562, 3.942, 0.1879883, 0.1516154, -0.005539, 3.942, 0.9243164, 3.942, -0.0737305, 3.942, 0.3032227, 0.1516154, -0.0068818, 3.942, 0.2841797, 3.942, -0.9560547, 3.942, -0.1665039, 0.1516154, 0.0199741, 3.942, -0.0864258, 3.942, -0.9873047, 3.942, 0.1318359, , , , , , , , , , , , , , , , , , , , , , 
0.1521346, 0.0010071, 3.9555, -0.9306641, 3.9555, -0.0976562, 3.9555, 0.1923828, 0.1521346, -0.0062104, 3.9555, 0.9355469, 3.9555, -0.0776367, 3.9555, 0.2958984, 0.1521346, -0.0058747, 3.9555, 0.2880859, 3.9555, -0.9526367, 3.9555, -0.1650391, 0.1521346, 0.024506, 3.9555, -0.0825195, 3.9555, -0.9750977, 3.9555, 0.1298828, , , , , , , , , , , , , , , , , , , , , , 
0.1526538, 0.0038605, 3.969, -0.9287109, 3.969, -0.1030273, 3.969, 0.1918945, 0.1526538, -0.0058747, 3.969, 0.9174805, 3.969, -0.0786133, 3.969, 0.2885742, 0.1526538, -0.0038605, 3.969, 0.2939453, 3.969, -0.9492188, 3.969, -0.1630859, 0.1526538, 0.0280308, 3.969, -0.0771484, 3.969, -0.9741211, 3.969, 0.1293945, , , , , , , , , , , , , , , , , , , , , , 
0.1531731, 0.005539, 3.9825, -0.9355469, 3.9825, -0.1020508, 3.9825, 0.1884766, 0.1531731, -0.0062104, 3.9825, 0.9086914, 3.9825, -0.065918, 3.9825, 0.2963867, 0.1531731, -0.0018463, 3.9825, 0.3007812, 3.9825, -0.9477539, 3.9825, -0.1708984, 0.1531731, 0.03122, 3.9825, -0.074707, 3.9825, -0.980957, 3.9825, 0.1313477, , , , , , , , , , , , , , , , , , , , , , 
0.1536923, 0.0065461, 3.996, -0.9526367, 3.996, -0.097168, 3.996, 0.1938477, 0.1536923, -0.0065461, 3.996, 0.918457, 3.996, -0.0551758, 3.996, 0.3056641, 0.1536923, -0.0015106, 3.996, 0.2993164, 3.996, -0.9536133, 3.996, -0.1723633, 0.1536923, 0.0350805, 3.996, -0.0732422, 3.996, -0.9858398, 3.996, 0.1293945, , , , , , , , , , , , , , , , , , , , , , 
0.1542115, 0.0075532, 4.0095, -0.9638672, 4.0095, -0.0908203, 4.0095, 0.2006836, 0.1542115, -0.0072175, 4.0095, 0.9282227, 4.0095, -0.0527344, 4.0095, 0.3037109, 0.1542115, -0.0031891, 4.0095, 0.2973633, 4.0095, -0.9711914, 4.0095, -0.1635742, 0.1542115, 0.0391089, 4.0095, -0.0727539, 4.0095, -0.9897461, 4.0095, 0.1264648, , , , , , , , , , , , , , , , , , , , , , 
0.1547308, 0.0050355, 4.023, -0.9599609, 4.023, -0.0859375, 4.023, 0.2041016, 0.1547308, -0.0078889, 4.023, 0.9404297, 4.023, -0.0556641, 4.023, 0.2963867, 0.1547308, -0.0018463, 4.023, 0.3037109, 4.023, -0.9833984, 4.023, -0.1533203, 0.1547308, 0.0426337, 4.023, -0.0805664, 4.023, -0.9995117, 4.023, 0.1313477, , , , , , , , , , , , , , , , , , , , , , 
0.15525, 0.0045319, 4.0365, -0.9516602, 4.0365, -0.0805664, 4.0365, 0.2119141, 0.15525, -0.0075532, 4.0365, 0.9536133, 4.0365, -0.0629883, 4.0365, 0.2929688, 0.15525, 0.0001678, 4.0365, 0.3115234, 4.0365, -0.9853516, 4.0365, -0.1552734, 0.15525, 0.0417945, 4.0365, -0.0898438, 4.0365, -1.0043945, 4.0365, 0.1396484, , , , , , , , , , , , , , , , , , , , , , 
0.1557692, 0.0099031, 4.05, -0.9575195, 4.05, -0.081543, 4.05, 0.2148438, 0.1557692, -0.0082246, 4.05, 0.9638672, 4.05, -0.0678711, 4.05, 0.2973633, 0.1557692, -0.0025177, 4.05, 0.3134766, 4.05, -0.9829102, 4.05, -0.1577148, 0.1557692, 0.0369268, 4.05, -0.0898438, 4.05, -1.0078125, 4.05, 0.1445312, , , , , , , , , , , , , , , , , , , , , , 
0.1562885, 0.0159457, 4.0635, -0.9716797, 4.0635, -0.0859375, 4.0635, 0.2128906, 0.1562885, -0.008896, 4.0635, 0.9580078, 4.0635, -0.0722656, 4.0635, 0.2963867, 0.1562885, -0.0043641, 4.0635, 0.3168945, 4.0635, -0.972168, 4.0635, -0.1606445, 0.1562885, 0.0307164, 4.0635, -0.0844727, 4.0635, -1.0009766, 4.0635, 0.152832, , , , , , , , , , , , , , , , , , , , , , 
0.1568077, 0.0125887, 4.077, -0.9746094, 4.077, -0.0917969, 4.077, 0.2114258, 0.1568077, -0.0082246, 4.077, 0.9458008, 4.077, -0.0761719, 4.077, 0.293457, 0.1568077, -0.005539, 4.077, 0.3183594, 4.077, -0.9707031, 4.077, -0.1650391, 0.1568077, 0.0263523, 4.077, -0.0849609, 4.077, -0.9970703, 4.077, 0.1557617, , , , , , , , , , , , , , , , , , , , , , 
0.1573269, 0.0102388, 4.0905, -0.9648438, 4.0905, -0.1030273, 4.0905, 0.2119141, 0.1573269, -0.0057069, 4.0905, 0.9404297, 4.0905, -0.0742188, 4.0905, 0.296875, 0.1573269, -0.0082246, 4.0905, 0.3193359, 4.0905, -0.9667969, 4.0905, -0.1689453, 0.1573269, 0.0224918, 4.0905, -0.0810547, 4.0905, -0.9951172, 4.0905, 0.1474609, , , , , , , , , , , , , , , , , , , , , , 
0.1578462, 0.0112459, 4.104, -0.9589844, 4.104, -0.0991211, 4.104, 0.2011719, 0.1578462, -0.0041962, 4.104, 0.9472656, 4.104, -0.0756836, 4.104, 0.3046875, 0.1578462, -0.0099031, 4.104, 0.3164062, 4.104, -0.9663086, 4.104, -0.1669922, 0.1578462, 0.0172885, 4.104, -0.0712891, 4.104, -0.9936523, 4.104, 0.1416016, , , , , , , , , , , , , , , , , , , , , , 
0.1583654, 0.0129244, 4.1175, -0.949707, 4.1175, -0.0932617, 4.1175, 0.2006836, 0.1583654, -0.0041962, 4.1175, 0.9448242, 4.1175, -0.0712891, 4.1175, 0.3012695, 0.1583654, -0.0092317, 4.1175, 0.2998047, 4.1175, -0.9624023, 4.1175, -0.1665039, 0.1583654, 0.0132601, 4.1175, -0.0712891, 4.1175, -0.9873047, 4.1175, 0.1298828, , , , , , , , , , , , , , , , , , , , , , 
0.1588846, 0.0166171, 4.131, -0.9492188, 4.131, -0.0976562, 4.131, 0.1982422, 0.1588846, -0.0031891, 4.131, 0.9394531, 4.131, -0.0712891, 4.131, 0.3037109, 0.1588846, -0.0065461, 4.131, 0.293457, 4.131, -0.9599609, 4.131, -0.1640625, 0.1588846, 0.0109102, 4.131, -0.078125, 4.131, -0.9790039, 4.131, 0.128418, , , , , , , , , , , , , , , , , , , , , , 
0.1594038, 0.0193027, 4.1445, -0.9428711, 4.1445, -0.1030273, 4.1445, 0.1933594, 0.1594038, -0.0015106, 4.1445, 0.9291992, 4.1445, -0.0703125, 4.1445, 0.2993164, 0.1594038, -0.0065461, 4.1445, 0.2973633, 4.1445, -0.9550781, 4.1445, -0.1689453, 0.1594038, 0.0097353, 4.1445, -0.0766602, 4.1445, -0.972168, 4.1445, 0.1337891, , , , , , , , , , , , , , , , , , , , , , 
0.1599231, 0.0213169, 4.158, -0.9399414, 4.158, -0.1074219, 4.158, 0.1982422, 0.1599231, -0.0025177, 4.158, 0.9208984, 4.158, -0.0722656, 4.158, 0.2983398, 0.1599231, -0.0078889, 4.158, 0.3017578, 4.158, -0.9511719, 4.158, -0.1733398, 0.1599231, 0.0104067, 4.158, -0.074707, 4.158, -0.9731445, 4.158, 0.1352539, , , , , , , , , , , , , , , , , , , , , , 
0.1604423, 0.0218204, 4.1715, -0.9501953, 4.1715, -0.1040039, 4.1715, 0.1904297, 0.1604423, -0.0062104, 4.1715, 0.9194336, 4.1715, -0.0771484, 4.1715, 0.2993164, 0.1604423, -0.0068818, 4.1715, 0.3032227, 4.1715, -0.9570312, 4.1715, -0.1728516, 0.1604423, 0.0095674, 4.1715, -0.0698242, 4.1715, -0.9814453, 4.1715, 0.1352539, , , , , , , , , , , , , , , , , , , , , , 
0.1609615, 0.0176242, 4.185, -0.9462891, 4.185, -0.1025391, 4.185, 0.1889648, 0.1609615, -0.0075532, 4.185, 0.9233398, 4.185, -0.0742188, 4.185, 0.2993164, 0.1609615, -0.0048676, 4.185, 0.3051758, 4.185, -0.9589844, 4.185, -0.1689453, 0.1609615, 0.0105745, 4.185, -0.0629883, 4.185, -0.9819336, 4.185, 0.1357422, , , , , , , , , , , , , , , , , , , , , , 
0.1614808, 0.0125887, 4.1985, -0.9335938, 4.1985, -0.1010742, 4.1985, 0.1958008, 0.1614808, -0.0068818, 4.1985, 0.9243164, 4.1985, -0.0727539, 4.1985, 0.2900391, 0.1614808, -0.0041962, 4.1985, 0.3051758, 4.1985, -0.953125, 4.1985, -0.1635742, 0.1614808, 0.011078, 4.1985, -0.0717773, 4.1985, -0.9750977, 4.1985, 0.1367188, , , , , , , , , , , , , , , , , , , , , , 
0.162, 0.0109102, 4.212, -0.9248047, 4.212, -0.1015625, 4.212, 0.1928711, 0.162, -0.0082246, 4.212, 0.9160156, 4.212, -0.0722656, 4.212, 0.2939453, 0.162, -0.0035248, 4.212, 0.2993164, 4.212, -0.9467773, 4.212, -0.1674805, 0.162, 0.0099031, 4.212, -0.0869141, 4.212, -0.9760742, 4.212, 0.1347656, , , , , , , , , , , , , , , , , , , , , , 
0.1625192, 0.0102388, 4.2255, -0.9306641, 4.2255, -0.1005859, 4.2255, 0.1943359, 0.1625192, -0.0112459, 4.2255, 0.9208984, 4.2255, -0.0722656, 4.2255, 0.300293, 0.1625192, -0.0050355, 4.2255, 0.2963867, 4.2255, -0.953125, 4.2255, -0.1665039, 0.1625192, 0.0078889, 4.2255, -0.0869141, 4.2255, -0.9838867, 4.2255, 0.1337891, , , , , , , , , , , , , , , , , , , , , , 
0.1630385, 0.0095674, 4.239, -0.9418945, 4.239, -0.1015625, 4.239, 0.1972656, 0.1630385, -0.0117494, 4.239, 0.9326172, 4.239, -0.0698242, 4.239, 0.2958984, 0.1630385, -0.0075532, 4.239, 0.2944336, 4.239, -0.9648438, 4.239, -0.1582031, 0.1630385, 0.0058747, 4.239, -0.0825195, 4.239, -0.9853516, 4.239, 0.1391602, , , , , , , , , , , , , , , , , , , , , , 
0.1635577, 0.0105745, 4.2525, -0.9482422, 4.2525, -0.0981445, 4.2525, 0.1943359, 0.1635577, -0.0112459, 4.2525, 0.9321289, 4.2525, -0.0683594, 4.2525, 0.296875, 0.1635577, -0.0082246, 4.2525, 0.3046875, 4.2525, -0.9672852, 4.2525, -0.1533203, 0.1635577, 0.0045319, 4.2525, -0.0878906, 4.2525, -0.984375, 4.2525, 0.1469727, , , , , , , , , , , , , , , , , , , , , , 
0.1640769, 0.0082246, 4.266, -0.9458008, 4.266, -0.0922852, 4.266, 0.1967773, 0.1640769, -0.0102388, 4.266, 0.9277344, 4.266, -0.0708008, 4.266, 0.300293, 0.1640769, -0.0078889, 4.266, 0.3100586, 4.266, -0.9599609, 4.266, -0.1625977, 0.1640769, 0.0052033, 4.266, -0.0878906, 4.266, -0.9824219, 4.266, 0.1425781, , , , , , , , , , , , , , , , , , , , , , 
0.1645962, -0.0001678, 4.2795, -0.9423828, 4.2795, -0.0966797, 4.2795, 0.1977539, 0.1645962, -0.0102388, 4.2795, 0.9248047, 4.2795, -0.0771484, 4.2795, 0.2998047, 0.1645962, -0.0062104, 4.2795, 0.3076172, 4.2795, -0.9521484, 4.2795, -0.1611328, 0.1645962, 0.005539, 4.2795, -0.0849609, 4.2795, -0.9794922, 4.2795, 0.1376953, , , , , , , , , , , , , , , , , , , , , , 
0.1651154, -0.0008392, 4.293, -0.9423828, 4.293, -0.09375, 4.293, 0.1987305, 0.1651154, -0.0109102, 4.293, 0.9277344, 4.293, -0.0751953, 4.293, 0.2988281, 0.1651154, -0.0065461, 4.293, 0.3032227, 4.293, -0.9511719, 4.293, -0.1582031, 0.1651154, 0.0031891, 4.293, -0.0854492, 4.293, -0.9794922, 4.293, 0.1420898, , , , , , , , , , , , , , , , , , , , , , 
0.1656346, 0.0016785, 4.3065, -0.9458008, 4.3065, -0.0947266, 4.3065, 0.1943359, 0.1656346, -0.0078889, 4.3065, 0.9291992, 4.3065, -0.0683594, 4.3065, 0.2978516, 0.1656346, -0.0095674, 4.3065, 0.2973633, 4.3065, -0.9570312, 4.3065, -0.1572266, 0.1656346, -0.0015106, 4.3065, -0.0869141, 4.3065, -0.9790039, 4.3065, 0.1464844, , , , , , , , , , , , , , , , , , , , , , 
0.1661538, 0.0003357, 4.32, -0.9414062, 4.32, -0.0942383, 4.32, 0.1928711, 0.1661538, -0.0065461, 4.32, 0.9272461, 4.32, -0.0668945, 4.32, 0.3022461, 0.1661538, -0.012253, 4.32, 0.300293, 4.32, -0.9555664, 4.32, -0.15625, 0.1661538, -0.0073854, 4.32, -0.0854492, 4.32, -0.9755859, 4.32, 0.140625, , , , , , , , , , , , , , , , , , , , , , 
0.1666731, 0.0038605, 4.3335, -0.9301758, 4.3335, -0.0932617, 4.3335, 0.1899414, 0.1666731, -0.0085603, 4.3335, 0.9208984, 4.3335, -0.0629883, 4.3335, 0.3012695, 0.1666731, -0.0130922, 4.3335, 0.3032227, 4.3335, -0.9541016, 4.3335, -0.1572266, 0.1666731, -0.0104067, 4.3335, -0.0839844, 4.3335, -0.9770508, 4.3335, 0.1318359, , , , , , , , , , , , , , , , , , , , , , 
0.1671923, 0.0065461, 4.347, -0.9399414, 4.347, -0.0917969, 4.347, 0.1879883, 0.1671923, -0.0092317, 4.347, 0.9233398, 4.347, -0.0610352, 4.347, 0.3085938, 0.1671923, -0.0135958, 4.347, 0.2963867, 4.347, -0.9521484, 4.347, -0.1601562, 0.1671923, -0.012253, 4.347, -0.0820312, 4.347, -0.9760742, 4.347, 0.1303711, , , , , , , , , , , , , , , , , , , , , , 
0.1677115, 0.0038605, 4.3605, -0.9482422, 4.3605, -0.0839844, 4.3605, 0.1865234, 0.1677115, -0.0087282, 4.3605, 0.9262695, 4.3605, -0.0522461, 4.3605, 0.3066406, 0.1677115, -0.0149386, 4.3605, 0.2915039, 4.3605, -0.956543, 4.3605, -0.1572266, 0.1677115, -0.0135958, 4.3605, -0.0859375, 4.3605, -0.9799805, 4.3605, 0.1303711, , , , , , , , , , , , , , , , , , , , , , 
0.1682308, 0.0045319, 4.374, -0.9472656, 4.374, -0.090332, 4.374, 0.1948242, 0.1682308, -0.0075532, 4.374, 0.9291992, 4.374, -0.0600586, 4.374, 0.3041992, 0.1682308, -0.01561, 4.374, 0.2919922, 4.374, -0.9638672, 4.374, -0.1538086, 0.1682308, -0.0099031, 4.374, -0.0913086, 4.374, -0.9785156, 4.374, 0.1357422, , , , , , , , , , , , , , , , , , , , , , 
0.16875, 0.0068818, 4.3875, -0.9404297, 4.3875, -0.0961914, 4.3875, 0.1962891, 0.16875, -0.005539, 4.3875, 0.9282227, 4.3875, -0.0678711, 4.3875, 0.2998047, 0.16875, -0.0152743, 4.3875, 0.2924805, 4.3875, -0.9555664, 4.3875, -0.159668, 0.16875, -0.0057069, 4.3875, -0.0893555, 4.3875, -0.9711914, 4.3875, 0.1367188, , , , , , , , , , , , , , , , , , , , , , 
0.1692692, 0.0093996, 4.401, -0.9326172, 4.401, -0.1044922, 4.401, 0.1992188, 0.1692692, -0.0048676, 4.401, 0.9277344, 4.401, -0.0742188, 4.401, 0.2875977, 0.1692692, -0.01561, 4.401, 0.2978516, 4.401, -0.9414062, 4.401, -0.1616211, 0.1692692, -0.0025177, 4.401, -0.0864258, 4.401, -0.9711914, 4.401, 0.137207, , , , , , , , , , , , , , , , , , , , , , 
0.1697885, 0.014435, 4.4145, -0.9389648, 4.4145, -0.0996094, 4.4145, 0.199707, 0.1697885, -0.0065461, 4.4145, 0.9316406, 4.4145, -0.0717773, 4.4145, 0.300293, 0.1697885, -0.0159457, 4.4145, 0.3071289, 4.4145, -0.949707, 4.4145, -0.159668, 0.1697885, -0.0001678, 4.4145, -0.0786133, 4.4145, -0.9790039, 4.4145, 0.1401367, , , , , , , , , , , , , , , , , , , , , , 
0.1703077, 0.0162814, 4.428, -0.9492188, 4.428, -0.0986328, 4.428, 0.2006836, 0.1703077, -0.0085603, 4.428, 0.9291992, 4.428, -0.0683594, 4.428, 0.3022461, 0.1703077, -0.014435, 4.428, 0.3081055, 4.428, -0.9580078, 4.428, -0.1547852, 0.1703077, 0.0031891, 4.428, -0.078125, 4.428, -0.9790039, 4.428, 0.1367188, , , , , , , , , , , , , , , , , , , , , , 
0.1708269, 0.0135958, 4.4415, -0.9453125, 4.4415, -0.0991211, 4.4415, 0.203125, 0.1708269, -0.0092317, 4.4415, 0.9262695, 4.4415, -0.0668945, 4.4415, 0.2949219, 0.1708269, -0.012253, 4.4415, 0.3110352, 4.4415, -0.9604492, 4.4415, -0.1538086, 0.1708269, 0.0078889, 4.4415, -0.0874023, 4.4415, -0.9829102, 4.4415, 0.1381836, , , , , , , , , , , , , , , , , , , , , , 
