Timestamps,channel_1,channel_2,channel_3,channel_4,channel_5,channel_6,channel_7,channel_8,ACC_X,ACC_Y,ACC_Z,GYR_X,GYR_Y,GYR_Z
17_02_10_389,0.0,0.0,0.0,0.0,0.0,0.0,0.0,0.0,0.0,0.0,0.0,0.0,0.0,0.0
17_02_10_389,0.0,0.0,0.0,0.0,0.0,0.0,0.0,0.0,0.0,0.0,0.0,0.0,0.0,0.0
17_02_10_389,0.0,0.0,0.0,0.0,0.0,0.0,0.0,0.0,0.0,0.0,0.0,0.0,0.0,0.0
17_02_10_389,0.0,0.0,0.0,0.0,0.0,0.0,0.0,0.0,0.0,0.0,0.0,0.0,0.0,0.0
17_02_10_389,0.0,0.0,0.0,0.0,0.0,0.0,0.0,0.0,0.0,0.0,0.0,0.0,0.0,0.0
17_02_10_389,0.0,0.0,0.0,0.0,0.0,0.0,0.0,0.0,0.0,0.0,0.0,0.0,0.0,0.0
17_02_10_389,0.0,0.0,0.0,0.0,0.0,0.0,0.0,0.0,0.0,0.0,0.0,0.0,0.0,0.0
17_02_10_389,0.0,0.0,0.0,0.0,0.0,0.0,0.0,0.0,0.0,0.0,0.0,0.0,0.0,0.0
17_02_10_389,0.0,0.0,0.0,0.0,0.0,0.0,0.0,0.0,0.0,0.0,0.0,0.0,0.0,0.0
17_02_10_389,0.0,0.0,0.0,0.0,0.0,0.0,0.0,0.0,0.0,0.0,0.0,0.0,0.0,0.0
17_02_13_147,-2.0,0.0,-2.0,-4.0,-3.0,-1.0,1.0,1.0,0.0,0.0,0.0,0.0,0.0,0.0
17_02_13_147,0.0,0.0,0.0,0.0,0.0,0.0,0.0,0.0,0.0,0.0,0.0,0.0,0.0,0.0
17_02_13_147,0.0,0.0,0.0,0.0,0.0,0.0,0.0,0.0,0.0,0.0,0.0,0.0,0.0,0.0
17_02_13_147,0.0,0.0,0.0,0.0,0.0,0.0,0.0,0.0,0.0,0.0,0.0,0.0,0.0,0.0
17_02_13_147,0.0,0.0,0.0,0.0,0.0,0.0,0.0,0.0,0.0,0.0,0.0,0.0,0.0,0.0
17_02_13_147,0.0,0.0,0.0,0.0,0.0,0.0,0.0,0.0,0.0,0.0,0.0,0.0,0.0,0.0
17_02_13_147,0.0,0.0,0.0,0.0,0.0,0.0,0.0,0.0,0.0,0.0,0.0,0.0,0.0,0.0
17_02_13_147,0.0,0.0,0.0,0.0,0.0,0.0,0.0,0.0,0.0,0.0,0.0,0.0,0.0,0.0
17_02_13_147,0.0,0.0,0.0,0.0,0.0,0.0,0.0,0.0,0.0,0.0,0.0,0.0,0.0,0.0
17_02_13_202,-1.0,0.0,-1.0,0.0,-4.0,-4.0,-2.0,1.0,0.96044921875,-0.1484375,0.181640625,0.853658536585366,0.24390243902439027,-0.12195121951219513
17_02_13_202,-3.0,-2.0,-1.0,0.0,-1.0,-3.0,-2.0,0.0,0.96728515625,-0.142578125,0.18212890625,0.9756097560975611,0.1829268292682927,-0.06097560975609757
17_02_13_202,1.0,0.0,2.0,-2.0,-2.0,0.0,-1.0,3.0,0.0,0.0,0.0,0.0,0.0,0.0
17_02_13_202,-1.0,-1.0,-1.0,-1.0,-1.0,-2.0,-5.0,-3.0,0.0,0.0,0.0,0.0,0.0,0.0
17_02_13_202,-2.0,0.0,2.0,2.0,-5.0,1.0,-3.0,1.0,0.0,0.0,0.0,0.0,0.0,0.0
17_02_13_202,-1.0,-1.0,-1.0,-1.0,-1.0,-2.0,-5.0,-3.0,0.0,0.0,0.0,0.0,0.0,0.0
17_02_13_202,-2.0,0.0,2.0,2.0,-5.0,1.0,-3.0,1.0,0.0,0.0,0.0,0.0,0.0,0.0
17_02_13_202,-3.0,-5.0,-1.0,0.0,-2.0,-1.0,-3.0,-1.0,0.0,0.0,0.0,0.0,0.0,0.0
17_02_13_202,2.0,-2.0,1.0,-3.0,-1.0,-2.0,0.0,-1.0,0.0,0.0,0.0,0.0,0.0,0.0
17_02_13_252,0.0,0.0,-2.0,-1.0,-2.0,2.0,2.0,-2.0,0.96923828125,-0.146484375,0.1796875,0.06097560975609757,0.0,-0.1829268292682927
17_02_13_252,-2.0,0.0,-4.0,1.0,-1.0,-2.0,0.0,1.0,0.9677734375,-0.140625,0.1826171875,0.853658536585366,0.12195121951219513,-0.12195121951219513
17_02_13_252,-2.0,5.0,-1.0,-1.0,4.0,8.0,-1.0,-4.0,0.96044921875,-0.1484375,0.181640625,0.853658536585366,0.24390243902439027,-0.12195121951219513
17_02_13_252,0.0,-1.0,-5.0,-4.0,-1.0,-1.0,4.0,-1.0,0.96728515625,-0.142578125,0.18212890625,0.9756097560975611,0.1829268292682927,-0.06097560975609757
17_02_13_252,0.0,1.0,1.0,-2.0,1.0,-1.0,-4.0,2.0,0.0,0.0,0.0,0.0,0.0,0.0
17_02_13_252,0.0,-1.0,-5.0,-4.0,-1.0,-1.0,4.0,-1.0,0.0,0.0,0.0,0.0,0.0,0.0
17_02_13_252,0.0,1.0,1.0,-2.0,1.0,-1.0,-4.0,2.0,0.0,0.0,0.0,0.0,0.0,0.0
17_02_13_252,2.0,-1.0,-3.0,1.0,-3.0,-2.0,0.0,-1.0,0.0,0.0,0.0,0.0,0.0,0.0
17_02_13_252,-5.0,0.0,-1.0,-1.0,0.0,-3.0,1.0,-3.0,0.0,0.0,0.0,0.0,0.0,0.0
17_02_13_310,2.0,-1.0,-2.0,1.0,6.0,4.0,4.0,3.0,1.34130859375,0.01220703125,1.02197265625,-4.573170731707317,0.7317073170731708,0.7926829268292683
17_02_13_310,0.0,3.0,0.0,-1.0,-1.0,6.0,-1.0,-5.0,0.41357421875,-0.39697265625,-0.248046875,4.51219512195122,-0.30487804878048785,-2.073170731707317
17_02_13_310,1.0,-3.0,-3.0,-5.0,-3.0,-1.0,4.0,5.0,1.5615234375,0.04443359375,0.68212890625,-0.6707317073170732,0.6097560975609757,-1.829268292682927
17_02_13_310,-5.0,4.0,-3.0,-1.0,0.0,7.0,1.0,-1.0,0.62646484375,-0.2021484375,0.13037109375,1.5853658536585367,2.3170731707317076,-3.353658536585366
17_02_13_310,1.0,-2.0,1.0,0.0,6.0,1.0,1.0,3.0,0.96484375,-0.140625,0.177734375,-0.24390243902439027,-0.1829268292682927,-0.24390243902439027
17_02_13_310,1.0,2.0,-5.0,2.0,3.0,4.0,-3.0,-2.0,0.96923828125,-0.146484375,0.1796875,0.06097560975609757,0.0,-0.1829268292682927
17_02_13_310,-1.0,-2.0,-2.0,-4.0,-2.0,-3.0,-3.0,1.0,0.9677734375,-0.140625,0.1826171875,0.853658536585366,0.12195121951219513,-0.12195121951219513
17_02_13_310,-2.0,0.0,-5.0,-3.0,-1.0,7.0,1.0,-3.0,0.96044921875,-0.1484375,0.181640625,0.853658536585366,0.24390243902439027,-0.12195121951219513
17_02_13_310,-3.0,-1.0,-1.0,-1.0,3.0,-4.0,1.0,-2.0,0.96728515625,-0.142578125,0.18212890625,0.9756097560975611,0.1829268292682927,-0.06097560975609757
17_02_13_310,0.0,1.0,1.0,-1.0,1.0,1.0,3.0,-3.0,0.0,0.0,0.0,0.0,0.0,0.0
17_02_13_349,0.0,-5.0,3.0,1.0,-5.0,-3.0,1.0,-1.0,0.56591796875,-0.3291015625,-0.7001953125,3.4756097560975614,-0.30487804878048785,-0.5487804878048781
17_02_13_349,-2.0,0.0,-5.0,0.0,3.0,2.0,-4.0,-2.0,1.41748046875,0.072265625,0.43701171875,-5.7926829268292686,0.7926829268292683,0.5487804878048781
17_02_13_349,3.0,-4.0,0.0,0.0,-2.0,-7.0,-3.0,4.0,1.34130859375,0.01220703125,1.02197265625,-4.573170731707317,0.7317073170731708,0.7926829268292683
17_02_13_349,-3.0,3.0,-2.0,-2.0,1.0,4.0,1.0,-2.0,0.41357421875,-0.39697265625,-0.248046875,4.51219512195122,-0.30487804878048785,-2.073170731707317
17_02_13_349,-1.0,-1.0,-1.0,-1.0,-4.0,-3.0,-5.0,1.0,1.5615234375,0.04443359375,0.68212890625,-0.6707317073170732,0.6097560975609757,-1.829268292682927
17_02_13_349,-2.0,4.0,-5.0,-4.0,3.0,7.0,1.0,-1.0,0.62646484375,-0.2021484375,0.13037109375,1.5853658536585367,2.3170731707317076,-3.353658536585366
17_02_13_349,-5.0,-2.0,1.0,3.0,-1.0,-1.0,1.0,0.0,0.96484375,-0.140625,0.177734375,-0.24390243902439027,-0.1829268292682927,-0.24390243902439027
17_02_13_349,-9.0,2.0,-4.0,0.0,3.0,2.0,0.0,-2.0,0.96923828125,-0.146484375,0.1796875,0.06097560975609757,0.0,-0.1829268292682927
17_02_13_349,6.0,0.0,-1.0,0.0,-2.0,-6.0,-4.0,0.0,0.9677734375,-0.140625,0.1826171875,0.853658536585366,0.12195121951219513,-0.12195121951219513
17_02_13_349,-1.0,2.0,0.0,0.0,-3.0,1.0,-1.0,-2.0,0.96044921875,-0.1484375,0.181640625,0.853658536585366,0.24390243902439027,-0.12195121951219513
17_02_13_413,5.0,-2.0,2.0,-4.0,-5.0,-5.0,-1.0,2.0,1.46923828125,0.0791015625,1.0849609375,-5.121951219512195,1.0365853658536586,0.48780487804878053
17_02_13_413,-4.0,5.0,-3.0,-1.0,3.0,3.0,1.0,-5.0,0.57080078125,-0.3447265625,0.04443359375,4.085365853658537,-0.24390243902439027,-1.3414634146341464
17_02_13_413,1.0,-6.0,-1.0,1.0,-7.0,-4.0,-3.0,0.0,0.56591796875,-0.3291015625,-0.7001953125,3.4756097560975614,-0.30487804878048785,-0.5487804878048781
17_02_13_413,-2.0,0.0,0.0,-1.0,-2.0,3.0,2.0,-1.0,1.41748046875,0.072265625,0.43701171875,-5.7926829268292686,0.7926829268292683,0.5487804878048781
17_02_13_413,-2.0,-4.0,1.0,2.0,-4.0,-7.0,-3.0,4.0,1.34130859375,0.01220703125,1.02197265625,-4.573170731707317,0.7317073170731708,0.7926829268292683
17_02_13_413,-3.0,1.0,-1.0,-5.0,1.0,4.0,2.0,-5.0,0.41357421875,-0.39697265625,-0.248046875,4.51219512195122,-0.30487804878048785,-2.073170731707317
17_02_13_413,0.0,-5.0,3.0,1.0,-5.0,-3.0,1.0,-1.0,1.5615234375,0.04443359375,0.68212890625,-0.6707317073170732,0.6097560975609757,-1.829268292682927
17_02_13_413,-2.0,0.0,-5.0,0.0,3.0,2.0,-4.0,-2.0,0.62646484375,-0.2021484375,0.13037109375,1.5853658536585367,2.3170731707317076,-3.353658536585366
17_02_13_413,3.0,-4.0,0.0,0.0,-2.0,-7.0,-3.0,4.0,0.96484375,-0.140625,0.177734375,-0.24390243902439027,-0.1829268292682927,-0.24390243902439027
17_02_13_413,-3.0,3.0,-2.0,-2.0,1.0,4.0,1.0,-2.0,0.96923828125,-0.146484375,0.1796875,0.06097560975609757,0.0,-0.1829268292682927
17_02_13_455,-1.0,-5.0,2.0,2.0,-5.0,-7.0,-2.0,-1.0,0.57080078125,-0.3447265625,0.04443359375,4.085365853658537,-0.24390243902439027,-1.3414634146341464
17_02_13_455,2.0,3.0,-2.0,-1.0,0.0,6.0,-1.0,-2.0,0.56591796875,-0.3291015625,-0.7001953125,3.4756097560975614,-0.30487804878048785,-0.5487804878048781
17_02_13_455,2.0,-2.0,-1.0,0.0,-5.0,-10.0,3.0,4.0,1.41748046875,0.072265625,0.43701171875,-5.7926829268292686,0.7926829268292683,0.5487804878048781
17_02_13_455,2.0,-2.0,-1.0,0.0,-1.0,1.0,2.0,-3.0,1.34130859375,0.01220703125,1.02197265625,-4.573170731707317,0.7317073170731708,0.7926829268292683
17_02_13_455,5.0,-2.0,2.0,-4.0,-5.0,-5.0,-1.0,2.0,0.41357421875,-0.39697265625,-0.248046875,4.51219512195122,-0.30487804878048785,-2.073170731707317
17_02_13_455,-4.0,5.0,-3.0,-1.0,3.0,3.0,1.0,-5.0,1.5615234375,0.04443359375,0.68212890625,-0.6707317073170732,0.6097560975609757,-1.829268292682927
17_02_13_455,1.0,-6.0,-1.0,1.0,-7.0,-4.0,-3.0,0.0,0.62646484375,-0.2021484375,0.13037109375,1.5853658536585367,2.3170731707317076,-3.353658536585366
17_02_13_455,-2.0,0.0,0.0,-1.0,-2.0,3.0,2.0,-1.0,0.96484375,-0.140625,0.177734375,-0.24390243902439027,-0.1829268292682927,-0.24390243902439027
17_02_13_511,-4.0,-3.0,0.0,4.0,-5.0,-10.0,-2.0,3.0,1.509765625,0.1083984375,0.6494140625,-7.317073170731708,0.9146341463414634,0.853658536585366
17_02_13_511,-1.0,-3.0,0.0,-2.0,1.0,-1.0,-3.0,-3.0,1.04248046875,-0.13623046875,0.75537109375,-0.9146341463414634,0.426829268292683,0.426829268292683
17_02_13_511,-1.0,-3.0,2.0,-4.0,-5.0,-7.0,-1.0,1.0,0.365234375,-0.4228515625,-0.6474609375,5.548780487804878,-0.853658536585366,-0.24390243902439027
17_02_13_511,-2.0,0.0,-3.0,-4.0,1.0,1.0,0.0,-3.0,1.177734375,-0.02490234375,0.0234375,-2.9268292682926833,0.3658536585365854,1.9512195121951221
17_02_13_511,3.0,-5.0,0.0,2.0,-4.0,-7.0,-3.0,2.0,1.46923828125,0.0791015625,1.0849609375,-5.121951219512195,1.0365853658536586,0.48780487804878053
17_02_13_511,5.0,-1.0,1.0,2.0,3.0,2.0,0.0,-3.0,0.57080078125,-0.3447265625,0.04443359375,4.085365853658537,-0.24390243902439027,-1.3414634146341464
17_02_13_511,2.0,-4.0,-1.0,-2.0,-4.0,-9.0,1.0,2.0,0.56591796875,-0.3291015625,-0.7001953125,3.4756097560975614,-0.30487804878048785,-0.5487804878048781
17_02_13_511,0.0,0.0,0.0,-4.0,2.0,0.0,2.0,0.0,1.41748046875,0.072265625,0.43701171875,-5.7926829268292686,0.7926829268292683,0.5487804878048781
17_02_13_511,4.0,-6.0,1.0,-4.0,-3.0,-9.0,-3.0,0.0,1.34130859375,0.01220703125,1.02197265625,-4.573170731707317,0.7317073170731708,0.7926829268292683
17_02_13_511,-1.0,1.0,-3.0,0.0,2.0,2.0,-5.0,-3.0,0.41357421875,-0.39697265625,-0.248046875,4.51219512195122,-0.30487804878048785,-2.073170731707317
17_02_13_565,-2.0,-4.0,0.0,-2.0,-4.0,-5.0,-2.0,0.0,0.72021484375,-0.27880859375,0.302734375,1.524390243902439,-0.3658536585365854,-0.48780487804878053
17_02_13_565,1.0,0.0,0.0,3.0,0.0,-1.0,-2.0,-2.0,0.54345703125,-0.32373046875,-0.70166015625,1.6463414634146343,-0.6707317073170732,0.426829268292683
17_02_13_565,-2.0,-4.0,1.0,3.0,-3.0,-7.0,-1.0,-2.0,1.509765625,0.1083984375,0.6494140625,-7.317073170731708,0.9146341463414634,0.853658536585366
17_02_13_565,3.0,-1.0,-1.0,-3.0,-4.0,2.0,1.0,0.0,1.04248046875,-0.13623046875,0.75537109375,-0.9146341463414634,0.426829268292683,0.426829268292683
17_02_13_565,-4.0,-3.0,0.0,4.0,-5.0,-10.0,-2.0,3.0,0.365234375,-0.4228515625,-0.6474609375,5.548780487804878,-0.853658536585366,-0.24390243902439027
17_02_13_565,-1.0,-3.0,0.0,-2.0,1.0,-1.0,-3.0,-3.0,1.177734375,-0.02490234375,0.0234375,-2.9268292682926833,0.3658536585365854,1.9512195121951221
17_02_13_565,-1.0,-3.0,2.0,-4.0,-5.0,-7.0,-1.0,1.0,1.46923828125,0.0791015625,1.0849609375,-5.121951219512195,1.0365853658536586,0.48780487804878053
17_02_13_565,-2.0,0.0,-3.0,-4.0,1.0,1.0,0.0,-3.0,0.57080078125,-0.3447265625,0.04443359375,4.085365853658537,-0.24390243902439027,-1.3414634146341464
17_02_13_565,3.0,-5.0,0.0,2.0,-4.0,-7.0,-3.0,2.0,0.56591796875,-0.3291015625,-0.7001953125,3.4756097560975614,-0.30487804878048785,-0.5487804878048781
17_02_13_565,5.0,-1.0,1.0,2.0,3.0,2.0,0.0,-3.0,1.41748046875,0.072265625,0.43701171875,-5.7926829268292686,0.7926829268292683,0.5487804878048781
17_02_13_603,-4.0,-3.0,-7.0,0.0,0.0,1.0,1.0,-2.0,1.55615234375,0.09716796875,1.0439453125,-4.207317073170732,0.7317073170731708,-0.1829268292682927
17_02_13_603,-2.0,0.0,-1.0,2.0,1.0,-5.0,0.0,0.0,0.73681640625,-0.2314453125,-0.51318359375,1.2195121951219514,-0.426829268292683,1.0365853658536586
17_02_13_603,-1.0,2.0,0.0,-6.0,-3.0,0.0,-3.0,-4.0,1.5732421875,0.1318359375,0.95849609375,-6.951219512195123,1.2195121951219514,0.426829268292683
17_02_13_603,-2.0,2.0,-1.0,0.0,3.0,0.0,-3.0,-4.0,0.72021484375,-0.27880859375,0.302734375,1.524390243902439,-0.3658536585365854,-0.48780487804878053
17_02_13_603,-3.0,-6.0,1.0,4.0,-2.0,-4.0,-4.0,1.0,0.54345703125,-0.32373046875,-0.70166015625,1.6463414634146343,-0.6707317073170732,0.426829268292683
17_02_13_603,-3.0,-1.0,-3.0,1.0,2.0,1.0,-2.0,-1.0,1.509765625,0.1083984375,0.6494140625,-7.317073170731708,0.9146341463414634,0.853658536585366
17_02_13_603,-4.0,-7.0,-2.0,0.0,-7.0,-7.0,-5.0,0.0,1.04248046875,-0.13623046875,0.75537109375,-0.9146341463414634,0.426829268292683,0.426829268292683
17_02_13_603,-2.0,-1.0,1.0,-3.0,0.0,-2.0,-1.0,-2.0,0.365234375,-0.4228515625,-0.6474609375,5.548780487804878,-0.853658536585366,-0.24390243902439027
17_02_13_603,-2.0,-4.0,-1.0,-6.0,-7.0,-7.0,-4.0,-5.0,1.177734375,-0.02490234375,0.0234375,-2.9268292682926833,0.3658536585365854,1.9512195121951221
17_02_13_603,-1.0,1.0,-4.0,0.0,3.0,2.0,0.0,-1.0,1.46923828125,0.0791015625,1.0849609375,-5.121951219512195,1.0365853658536586,0.48780487804878053
17_02_13_655,-1.0,-1.0,-2.0,-2.0,0.0,4.0,0.0,-5.0,0.93994140625,-0.12744140625,-0.28271484375,-2.3170731707317076,0.24390243902439027,0.7926829268292683
17_02_13_655,-1.0,-2.0,-2.0,-1.0,-3.0,-4.0,-1.0,-3.0,1.5166015625,0.08056640625,1.05810546875,-5.365853658536586,1.1585365853658538,0.1829268292682927
17_02_13_655,-2.0,1.0,-6.0,-1.0,3.0,3.0,-2.0,-3.0,0.48095703125,-0.3818359375,-0.15576171875,5.731707317073171,-0.3658536585365854,-2.5609756097560976
17_02_13_655,3.0,-3.0,-3.0,1.0,-1.0,-2.0,-1.0,-1.0,0.87060546875,-0.16162109375,-0.38037109375,1.0975609756097562,-0.12195121951219513,0.7926829268292683
17_02_13_655,-3.0,2.0,-3.0,4.0,1.0,6.0,1.0,-1.0,1.55615234375,0.09716796875,1.0439453125,-4.207317073170732,0.7317073170731708,-0.1829268292682927
17_02_13_655,1.0,-3.0,-1.0,0.0,2.0,-3.0,1.0,3.0,0.73681640625,-0.2314453125,-0.51318359375,1.2195121951219514,-0.426829268292683,1.0365853658536586
17_02_13_655,-2.0,3.0,0.0,-7.0,1.0,3.0,-2.0,-5.0,1.5732421875,0.1318359375,0.95849609375,-6.951219512195123,1.2195121951219514,0.426829268292683
17_02_13_655,-2.0,3.0,-4.0,-4.0,2.0,4.0,-3.0,1.0,0.72021484375,-0.27880859375,0.302734375,1.524390243902439,-0.3658536585365854,-0.48780487804878053
17_02_13_655,-3.0,2.0,-2.0,-2.0,-1.0,3.0,-3.0,-4.0,0.54345703125,-0.32373046875,-0.70166015625,1.6463414634146343,-0.6707317073170732,0.426829268292683
17_02_13_655,-5.0,-1.0,0.0,0.0,1.0,-4.0,-1.0,2.0,1.509765625,0.1083984375,0.6494140625,-7.317073170731708,0.9146341463414634,0.853658536585366
17_02_13_716,-2.0,1.0,-7.0,-8.0,4.0,3.0,-4.0,-6.0,0.93994140625,-0.12744140625,-0.28271484375,-2.3170731707317076,0.24390243902439027,0.7926829268292683
17_02_13_716,-3.0,0.0,0.0,1.0,8.0,6.0,2.0,2.0,1.5166015625,0.08056640625,1.05810546875,-5.365853658536586,1.1585365853658538,0.1829268292682927
17_02_13_716,-1.0,1.0,-3.0,-2.0,4.0,7.0,0.0,-2.0,0.48095703125,-0.3818359375,-0.15576171875,5.731707317073171,-0.3658536585365854,-2.5609756097560976
17_02_13_716,-2.0,-4.0,4.0,3.0,-4.0,-3.0,1.0,2.0,0.87060546875,-0.16162109375,-0.38037109375,1.0975609756097562,-0.12195121951219513,0.7926829268292683
17_02_13_716,-1.0,-1.0,-2.0,-2.0,0.0,4.0,0.0,-5.0,1.55615234375,0.09716796875,1.0439453125,-4.207317073170732,0.7317073170731708,-0.1829268292682927
17_02_13_716,-1.0,-2.0,-2.0,-1.0,-3.0,-4.0,-1.0,-3.0,0.73681640625,-0.2314453125,-0.51318359375,1.2195121951219514,-0.426829268292683,1.0365853658536586
17_02_13_716,-2.0,1.0,-6.0,-1.0,3.0,3.0,-2.0,-3.0,1.5732421875,0.1318359375,0.95849609375,-6.951219512195123,1.2195121951219514,0.426829268292683
17_02_13_716,3.0,-3.0,-3.0,1.0,-1.0,-2.0,-1.0,-1.0,0.72021484375,-0.27880859375,0.302734375,1.524390243902439,-0.3658536585365854,-0.48780487804878053
17_02_13_716,-3.0,2.0,-3.0,4.0,1.0,6.0,1.0,-1.0,0.54345703125,-0.32373046875,-0.70166015625,1.6463414634146343,-0.6707317073170732,0.426829268292683
17_02_13_716,1.0,-3.0,-1.0,0.0,2.0,-3.0,1.0,3.0,1.509765625,0.1083984375,0.6494140625,-7.317073170731708,0.9146341463414634,0.853658536585366
17_02_13_759,-4.0,0.0,1.0,-1.0,3.0,6.0,-1.0,-3.0,0.93994140625,-0.12744140625,-0.28271484375,-2.3170731707317076,0.24390243902439027,0.7926829268292683
17_02_13_759,5.0,1.0,0.0,-1.0,-3.0,-4.0,1.0,4.0,1.5166015625,0.08056640625,1.05810546875,-5.365853658536586,1.1585365853658538,0.1829268292682927
17_02_13_759,-5.0,2.0,-1.0,3.0,-1.0,4.0,-1.0,-3.0,0.48095703125,-0.3818359375,-0.15576171875,5.731707317073171,-0.3658536585365854,-2.5609756097560976
17_02_13_759,4.0,5.0,6.0,3.0,-1.0,-3.0,-1.0,-1.0,0.87060546875,-0.16162109375,-0.38037109375,1.0975609756097562,-0.12195121951219513,0.7926829268292683
17_02_13_759,-2.0,1.0,-7.0,-8.0,4.0,3.0,-4.0,-6.0,1.55615234375,0.09716796875,1.0439453125,-4.207317073170732,0.7317073170731708,-0.1829268292682927
17_02_13_759,-3.0,0.0,0.0,1.0,8.0,6.0,2.0,2.0,0.73681640625,-0.2314453125,-0.51318359375,1.2195121951219514,-0.426829268292683,1.0365853658536586
17_02_13_759,-1.0,1.0,-3.0,-2.0,4.0,7.0,0.0,-2.0,1.5732421875,0.1318359375,0.95849609375,-6.951219512195123,1.2195121951219514,0.426829268292683
17_02_13_759,-2.0,-4.0,4.0,3.0,-4.0,-3.0,1.0,2.0,0.72021484375,-0.27880859375,0.302734375,1.524390243902439,-0.3658536585365854,-0.48780487804878053
17_02_13_812,-1.0,0.0,-1.0,-1.0,6.0,4.0,0.0,-3.0,0.95947265625,-0.12353515625,-0.25634765625,-0.48780487804878053,0.12195121951219513,1.0365853658536586
17_02_13_812,-2.0,-4.0,0.0,3.0,-6.0,-4.0,-3.0,4.0,1.5,0.06884765625,1.05908203125,-3.963414634146342,1.0975609756097562,1.2804878048780488
17_02_13_812,-2.0,-2.0,-2.0,-3.0,0.0,3.0,-1.0,-3.0,0.9775390625,-0.10791015625,-0.23486328125,-2.0121951219512195,0.7926829268292683,-0.06097560975609757
17_02_13_812,2.0,-5.0,2.0,2.0,-8.0,-10.0,-1.0,0.0,1.48828125,0.06494140625,1.060546875,-5.3048780487804885,0.7926829268292683,0.853658536585366
17_02_13_812,-1.0,-1.0,-3.0,-3.0,4.0,1.0,0.0,1.0,0.43701171875,-0.40478515625,-0.23291015625,4.329268292682928,0.06097560975609757,-1.2195121951219514
17_02_13_812,2.0,-4.0,2.0,-4.0,-2.0,-6.0,0.0,1.0,0.93994140625,-0.12744140625,-0.28271484375,-2.3170731707317076,0.24390243902439027,0.7926829268292683
17_02_13_812,-1.0,1.0,-2.0,-2.0,3.0,3.0,0.0,-4.0,1.5166015625,0.08056640625,1.05810546875,-5.365853658536586,1.1585365853658538,0.1829268292682927
17_02_13_812,2.0,-5.0,-1.0,6.0,-5.0,-12.0,1.0,2.0,0.48095703125,-0.3818359375,-0.15576171875,5.731707317073171,-0.3658536585365854,-2.5609756097560976
17_02_13_812,-3.0,2.0,-3.0,2.0,1.0,5.0,0.0,-1.0,0.87060546875,-0.16162109375,-0.38037109375,1.0975609756097562,-0.12195121951219513,0.7926829268292683
17_02_13_812,3.0,0.0,0.0,-4.0,-9.0,-7.0,0.0,4.0,1.55615234375,0.09716796875,1.0439453125,-4.207317073170732,0.7317073170731708,-0.1829268292682927
17_02_13_860,0.0,0.0,-2.0,-2.0,5.0,4.0,-1.0,-3.0,1.49658203125,0.0625,1.0537109375,-3.780487804878049,0.9146341463414634,1.402439024390244
17_02_13_860,-1.0,-8.0,-1.0,1.0,-6.0,-8.0,-3.0,2.0,0.4384765625,-0.4013671875,-0.23486328125,6.219512195121951,-0.426829268292683,-0.48780487804878053
17_02_13_860,-5.0,0.0,-1.0,1.0,0.0,0.0,-4.0,-2.0,0.95947265625,-0.12353515625,-0.25634765625,-0.48780487804878053,0.12195121951219513,1.0365853658536586
17_02_13_860,-1.0,-6.0,4.0,1.0,-7.0,-11.0,0.0,2.0,1.5,0.06884765625,1.05908203125,-3.963414634146342,1.0975609756097562,1.2804878048780488
17_02_13_860,-1.0,0.0,-3.0,-4.0,-1.0,3.0,-1.0,-2.0,0.9775390625,-0.10791015625,-0.23486328125,-2.0121951219512195,0.7926829268292683,-0.06097560975609757
17_02_13_860,-2.0,-4.0,2.0,-3.0,-3.0,-7.0,-4.0,0.0,1.48828125,0.06494140625,1.060546875,-5.3048780487804885,0.7926829268292683,0.853658536585366
17_02_13_860,-1.0,0.0,-1.0,-1.0,6.0,4.0,0.0,-3.0,0.43701171875,-0.40478515625,-0.23291015625,4.329268292682928,0.06097560975609757,-1.2195121951219514
17_02_13_860,-2.0,-4.0,0.0,3.0,-6.0,-4.0,-3.0,4.0,0.93994140625,-0.12744140625,-0.28271484375,-2.3170731707317076,0.24390243902439027,0.7926829268292683
17_02_13_860,-2.0,-2.0,-2.0,-3.0,0.0,3.0,-1.0,-3.0,1.5166015625,0.08056640625,1.05810546875,-5.365853658536586,1.1585365853658538,0.1829268292682927
17_02_13_860,2.0,-5.0,2.0,2.0,-8.0,-10.0,-1.0,0.0,0.48095703125,-0.3818359375,-0.15576171875,5.731707317073171,-0.3658536585365854,-2.5609756097560976
17_02_13_907,-3.0,-2.0,-3.0,-3.0,-4.0,0.0,-3.0,-3.0,1.55224609375,0.087890625,1.0439453125,-3.963414634146342,1.0365853658536586,0.48780487804878053
17_02_13_907,1.0,-3.0,2.0,-1.0,-5.0,-8.0,-4.0,-3.0,0.47314453125,-0.392578125,-0.17041015625,6.52439024390244,-0.426829268292683,-0.12195121951219513
17_02_13_907,-2.0,-1.0,-4.0,1.0,1.0,-1.0,-2.0,2.0,1.49658203125,0.0625,1.0537109375,-3.780487804878049,0.9146341463414634,1.402439024390244
17_02_13_907,4.0,-2.0,4.0,-4.0,-1.0,-5.0,-2.0,3.0,0.4384765625,-0.4013671875,-0.23486328125,6.219512195121951,-0.426829268292683,-0.48780487804878053
17_02_13_907,0.0,0.0,-1.0,-1.0,-2.0,-4.0,-1.0,-1.0,0.95947265625,-0.12353515625,-0.25634765625,-0.48780487804878053,0.12195121951219513,1.0365853658536586
17_02_13_907,0.0,-3.0,1.0,-1.0,-5.0,-4.0,-1.0,2.0,1.5,0.06884765625,1.05908203125,-3.963414634146342,1.0975609756097562,1.2804878048780488
17_02_13_907,-1.0,2.0,-1.0,1.0,-3.0,3.0,-1.0,-3.0,0.9775390625,-0.10791015625,-0.23486328125,-2.0121951219512195,0.7926829268292683,-0.06097560975609757
17_02_13_907,-1.0,-5.0,0.0,-2.0,-7.0,-9.0,-1.0,2.0,1.48828125,0.06494140625,1.060546875,-5.3048780487804885,0.7926829268292683,0.853658536585366
17_02_13_907,-3.0,2.0,2.0,-3.0,1.0,1.0,-2.0,0.0,0.43701171875,-0.40478515625,-0.23291015625,4.329268292682928,0.06097560975609757,-1.2195121951219514
17_02_13_907,0.0,-2.0,2.0,-1.0,-6.0,-7.0,-5.0,1.0,0.93994140625,-0.12744140625,-0.28271484375,-2.3170731707317076,0.24390243902439027,0.7926829268292683
17_02_13_970,2.0,0.0,-2.0,0.0,0.0,4.0,0.0,-2.0,0.81005859375,-0.1875,-0.43359375,1.0975609756097562,-0.12195121951219513,0.6707317073170732
17_02_13_970,0.0,-5.0,-4.0,-2.0,-11.0,-6.0,-3.0,0.0,1.55224609375,0.087890625,1.0439453125,-3.963414634146342,1.0365853658536586,0.48780487804878053
17_02_13_970,-3.0,-2.0,-3.0,-3.0,-4.0,0.0,-3.0,-3.0,0.47314453125,-0.392578125,-0.17041015625,6.52439024390244,-0.426829268292683,-0.12195121951219513
17_02_13_970,1.0,-3.0,2.0,-1.0,-5.0,-8.0,-4.0,-3.0,1.49658203125,0.0625,1.0537109375,-3.780487804878049,0.9146341463414634,1.402439024390244
17_02_13_970,-2.0,-1.0,-4.0,1.0,1.0,-1.0,-2.0,2.0,0.4384765625,-0.4013671875,-0.23486328125,6.219512195121951,-0.426829268292683,-0.48780487804878053
17_02_13_970,4.0,-2.0,4.0,-4.0,-1.0,-5.0,-2.0,3.0,0.95947265625,-0.12353515625,-0.25634765625,-0.48780487804878053,0.12195121951219513,1.0365853658536586
17_02_13_970,0.0,0.0,-1.0,-1.0,-2.0,-4.0,-1.0,-1.0,1.5,0.06884765625,1.05908203125,-3.963414634146342,1.0975609756097562,1.2804878048780488
17_02_13_970,0.0,-3.0,1.0,-1.0,-5.0,-4.0,-1.0,2.0,0.9775390625,-0.10791015625,-0.23486328125,-2.0121951219512195,0.7926829268292683,-0.06097560975609757
17_02_13_970,-1.0,2.0,-1.0,1.0,-3.0,3.0,-1.0,-3.0,1.48828125,0.06494140625,1.060546875,-5.3048780487804885,0.7926829268292683,0.853658536585366
17_02_13_970,-1.0,-5.0,0.0,-2.0,-7.0,-9.0,-1.0,2.0,0.43701171875,-0.40478515625,-0.23291015625,4.329268292682928,0.06097560975609757,-1.2195121951219514
17_02_14_022,-3.0,-1.0,-3.0,-4.0,2.0,-3.0,3.0,-1.0,0.63037109375,-0.3291015625,0.1416015625,4.390243902439025,-0.5487804878048781,-1.8902439024390245
17_02_14_022,-3.0,-1.0,-2.0,1.0,-2.0,3.0,-3.0,-4.0,1.5791015625,0.11474609375,0.998046875,-5.121951219512195,0.6707317073170732,2.073170731707317
17_02_14_022,-3.0,0.0,-3.0,2.0,0.0,-2.0,-5.0,0.0,0.58203125,-0.35595703125,0.05517578125,5.3048780487804885,-0.24390243902439027,-0.426829268292683
17_02_14_022,-1.0,-5.0,-2.0,-1.0,-8.0,-5.0,-4.0,-2.0,0.81005859375,-0.1875,-0.43359375,1.0975609756097562,-0.12195121951219513,0.6707317073170732
17_02_14_022,0.0,0.0,-3.0,1.0,-2.0,-4.0,-3.0,-2.0,1.55224609375,0.087890625,1.0439453125,-3.963414634146342,1.0365853658536586,0.48780487804878053
17_02_14_022,-6.0,-8.0,-5.0,-3.0,-7.0,-4.0,-5.0,-3.0,0.47314453125,-0.392578125,-0.17041015625,6.52439024390244,-0.426829268292683,-0.12195121951219513
17_02_14_022,2.0,0.0,-2.0,0.0,0.0,4.0,0.0,-2.0,1.49658203125,0.0625,1.0537109375,-3.780487804878049,0.9146341463414634,1.402439024390244
17_02_14_022,0.0,-5.0,-4.0,-2.0,-11.0,-6.0,-3.0,0.0,0.4384765625,-0.4013671875,-0.23486328125,6.219512195121951,-0.426829268292683,-0.48780487804878053
17_02_14_022,-3.0,-2.0,-3.0,-3.0,-4.0,0.0,-3.0,-3.0,0.95947265625,-0.12353515625,-0.25634765625,-0.48780487804878053,0.12195121951219513,1.0365853658536586
17_02_14_022,1.0,-3.0,2.0,-1.0,-5.0,-8.0,-4.0,-3.0,1.5,0.06884765625,1.05908203125,-3.963414634146342,1.0975609756097562,1.2804878048780488
17_02_14_072,2.0,-3.0,2.0,0.0,-3.0,-5.0,0.0,2.0,1.587890625,0.12109375,0.900390625,-5.182926829268293,0.9146341463414634,0.7926829268292683
17_02_14_072,-7.0,-1.0,-5.0,-3.0,4.0,5.0,-2.0,-2.0,0.654296875,-0.26123046875,-0.60205078125,2.1341463414634148,-0.6707317073170732,0.06097560975609757
17_02_14_072,8.0,6.0,4.0,-1.0,3.0,0.0,2.0,2.0,1.5927734375,0.1181640625,0.94189453125,-5.670731707317073,0.426829268292683,1.402439024390244
17_02_14_072,-3.0,1.0,-3.0,2.0,3.0,6.0,-3.0,-3.0,0.63037109375,-0.3291015625,0.1416015625,4.390243902439025,-0.5487804878048781,-1.8902439024390245
17_02_14_072,1.0,0.0,-1.0,5.0,4.0,2.0,4.0,6.0,1.5791015625,0.11474609375,0.998046875,-5.121951219512195,0.6707317073170732,2.073170731707317
17_02_14_072,3.0,2.0,2.0,0.0,-2.0,7.0,-3.0,-3.0,0.58203125,-0.35595703125,0.05517578125,5.3048780487804885,-0.24390243902439027,-0.426829268292683
17_02_14_072,0.0,-2.0,1.0,-4.0,0.0,0.0,-1.0,-1.0,0.81005859375,-0.1875,-0.43359375,1.0975609756097562,-0.12195121951219513,0.6707317073170732
17_02_14_072,-2.0,3.0,0.0,1.0,0.0,8.0,2.0,-4.0,1.55224609375,0.087890625,1.0439453125,-3.963414634146342,1.0365853658536586,0.48780487804878053
17_02_14_072,-4.0,-1.0,-1.0,3.0,1.0,-1.0,-1.0,0.0,0.47314453125,-0.392578125,-0.17041015625,6.52439024390244,-0.426829268292683,-0.12195121951219513
17_02_14_072,1.0,3.0,0.0,2.0,0.0,6.0,-2.0,-6.0,1.49658203125,0.0625,1.0537109375,-3.780487804878049,0.9146341463414634,1.402439024390244
17_02_14_124,3.0,-5.0,1.0,-1.0,-2.0,-4.0,-5.0,3.0,0.654296875,-0.26123046875,-0.60205078125,2.1341463414634148,-0.6707317073170732,0.06097560975609757
17_02_14_124,-2.0,4.0,0.0,0.0,-1.0,1.0,-1.0,-2.0,1.5927734375,0.1181640625,0.94189453125,-5.670731707317073,0.426829268292683,1.402439024390244
17_02_14_124,2.0,-3.0,2.0,0.0,-3.0,-5.0,0.0,2.0,0.63037109375,-0.3291015625,0.1416015625,4.390243902439025,-0.5487804878048781,-1.8902439024390245
17_02_14_124,-7.0,-1.0,-5.0,-3.0,4.0,5.0,-2.0,-2.0,1.5791015625,0.11474609375,0.998046875,-5.121951219512195,0.6707317073170732,2.073170731707317
17_02_14_124,8.0,6.0,4.0,-1.0,3.0,0.0,2.0,2.0,0.58203125,-0.35595703125,0.05517578125,5.3048780487804885,-0.24390243902439027,-0.426829268292683
17_02_14_124,-3.0,1.0,-3.0,2.0,3.0,6.0,-3.0,-3.0,0.81005859375,-0.1875,-0.43359375,1.0975609756097562,-0.12195121951219513,0.6707317073170732
17_02_14_124,1.0,0.0,-1.0,5.0,4.0,2.0,4.0,6.0,1.55224609375,0.087890625,1.0439453125,-3.963414634146342,1.0365853658536586,0.48780487804878053
17_02_14_124,3.0,2.0,2.0,0.0,-2.0,7.0,-3.0,-3.0,0.47314453125,-0.392578125,-0.17041015625,6.52439024390244,-0.426829268292683,-0.12195121951219513
17_02_14_171,-1.0,2.0,0.0,0.0,4.0,4.0,-1.0,-1.0,0.53564453125,-0.3193359375,-0.69677734375,3.7195121951219514,-0.7317073170731708,-1.0365853658536586
17_02_14_171,-1.0,-5.0,3.0,2.0,-8.0,-7.0,-3.0,3.0,1.56982421875,0.1142578125,0.822265625,-5.0,0.9756097560975611,1.829268292682927
17_02_14_171,-4.0,0.0,-3.0,-1.0,0.0,6.0,-1.0,-3.0,0.7412109375,-0.28662109375,0.3251953125,4.390243902439025,-0.24390243902439027,-1.3414634146341464
17_02_14_171,0.0,-6.0,1.0,-2.0,-6.0,-10.0,-1.0,3.0,0.6103515625,-0.27783203125,-0.6455078125,3.1097560975609757,-0.24390243902439027,-0.48780487804878053
17_02_14_171,1.0,2.0,1.0,-2.0,3.0,3.0,-1.0,1.0,1.587890625,0.12109375,0.900390625,-5.182926829268293,0.9146341463414634,0.7926829268292683
17_02_14_171,-2.0,-3.0,0.0,1.0,0.0,-9.0,0.0,1.0,0.654296875,-0.26123046875,-0.60205078125,2.1341463414634148,-0.6707317073170732,0.06097560975609757
17_02_14_171,-3.0,0.0,1.0,-1.0,4.0,4.0,1.0,-2.0,1.5927734375,0.1181640625,0.94189453125,-5.670731707317073,0.426829268292683,1.402439024390244
17_02_14_171,0.0,-7.0,3.0,-1.0,-5.0,-7.0,-2.0,0.0,0.63037109375,-0.3291015625,0.1416015625,4.390243902439025,-0.5487804878048781,-1.8902439024390245
17_02_14_171,-4.0,1.0,-1.0,1.0,0.0,2.0,0.0,-1.0,1.5791015625,0.11474609375,0.998046875,-5.121951219512195,0.6707317073170732,2.073170731707317
17_02_14_224,1.0,-2.0,2.0,-1.0,-7.0,-1.0,1.0,4.0,0.9130859375,-0.20947265625,0.56689453125,0.9756097560975611,0.30487804878048785,-0.24390243902439027
17_02_14_224,0.0,1.0,0.0,-4.0,2.0,4.0,-1.0,-5.0,0.49365234375,-0.337890625,-0.7099609375,3.1707317073170733,-0.24390243902439027,-1.0365853658536586
17_02_14_224,1.0,-4.0,2.0,-1.0,-2.0,-7.0,-5.0,3.0,1.5625,0.11328125,0.7470703125,-6.097560975609756,0.9146341463414634,1.4634146341463417
17_02_14_224,-3.0,0.0,3.0,1.0,2.0,5.0,-3.0,-4.0,0.81787109375,-0.24267578125,0.45068359375,2.25609756097561,-0.12195121951219513,-1.524390243902439
17_02_14_224,3.0,-4.0,4.0,1.0,-4.0,-7.0,-1.0,2.0,0.53564453125,-0.3193359375,-0.69677734375,3.7195121951219514,-0.7317073170731708,-1.0365853658536586
17_02_14_224,-2.0,-1.0,2.0,1.0,1.0,1.0,-2.0,-3.0,1.56982421875,0.1142578125,0.822265625,-5.0,0.9756097560975611,1.829268292682927
17_02_14_224,0.0,-5.0,-1.0,-4.0,-4.0,-7.0,0.0,2.0,0.7412109375,-0.28662109375,0.3251953125,4.390243902439025,-0.24390243902439027,-1.3414634146341464
17_02_14_224,-3.0,3.0,-1.0,-2.0,4.0,4.0,2.0,-2.0,0.6103515625,-0.27783203125,-0.6455078125,3.1097560975609757,-0.24390243902439027,-0.48780487804878053
17_02_14_224,2.0,-1.0,0.0,-2.0,-3.0,-7.0,3.0,5.0,1.587890625,0.12109375,0.900390625,-5.182926829268293,0.9146341463414634,0.7926829268292683
17_02_14_224,-1.0,2.0,0.0,0.0,4.0,4.0,-1.0,-1.0,0.654296875,-0.26123046875,-0.60205078125,2.1341463414634148,-0.6707317073170732,0.06097560975609757
17_02_14_279,0.0,-3.0,2.0,-3.0,-6.0,-8.0,-2.0,2.0,1.498046875,0.09765625,0.6181640625,-6.097560975609756,0.9756097560975611,1.9512195121951221
17_02_14_279,-1.0,2.0,-6.0,-4.0,5.0,-1.0,-5.0,-1.0,0.9130859375,-0.20947265625,0.56689453125,0.9756097560975611,0.30487804878048785,-0.24390243902439027
17_02_14_279,-1.0,-3.0,-1.0,-2.0,-3.0,-2.0,0.0,2.0,0.49365234375,-0.337890625,-0.7099609375,3.1707317073170733,-0.24390243902439027,-1.0365853658536586
17_02_14_279,1.0,0.0,2.0,-3.0,0.0,1.0,1.0,-4.0,1.5625,0.11328125,0.7470703125,-6.097560975609756,0.9146341463414634,1.4634146341463417
17_02_14_279,-2.0,-5.0,-2.0,2.0,-7.0,-5.0,-1.0,2.0,0.81787109375,-0.24267578125,0.45068359375,2.25609756097561,-0.12195121951219513,-1.524390243902439
17_02_14_279,-3.0,0.0,-3.0,-1.0,-1.0,0.0,2.0,-2.0,0.53564453125,-0.3193359375,-0.69677734375,3.7195121951219514,-0.7317073170731708,-1.0365853658536586
17_02_14_279,1.0,-2.0,2.0,-1.0,-7.0,-1.0,1.0,4.0,1.56982421875,0.1142578125,0.822265625,-5.0,0.9756097560975611,1.829268292682927
17_02_14_279,0.0,1.0,0.0,-4.0,2.0,4.0,-1.0,-5.0,0.7412109375,-0.28662109375,0.3251953125,4.390243902439025,-0.24390243902439027,-1.3414634146341464
17_02_14_279,1.0,-4.0,2.0,-1.0,-2.0,-7.0,-5.0,3.0,0.6103515625,-0.27783203125,-0.6455078125,3.1097560975609757,-0.24390243902439027,-0.48780487804878053
17_02_14_279,-3.0,0.0,3.0,1.0,2.0,5.0,-3.0,-4.0,1.587890625,0.12109375,0.900390625,-5.182926829268293,0.9146341463414634,0.7926829268292683
17_02_14_327,-5.0,-6.0,-4.0,0.0,-9.0,-6.0,-3.0,-1.0,0.93701171875,-0.18798828125,0.61865234375,0.5487804878048781,0.426829268292683,-1.7682926829268295
17_02_14_327,-4.0,1.0,-2.0,0.0,0.0,3.0,-1.0,2.0,0.43603515625,-0.37060546875,-0.70849609375,3.780487804878049,-0.30487804878048785,-1.2804878048780488
17_02_14_327,-2.0,-8.0,-7.0,-2.0,-12.0,-8.0,0.0,-4.0,1.498046875,0.09765625,0.6181640625,-6.097560975609756,0.9756097560975611,1.9512195121951221
17_02_14_327,3.0,1.0,0.0,-5.0,3.0,0.0,-2.0,-1.0,0.9130859375,-0.20947265625,0.56689453125,0.9756097560975611,0.30487804878048785,-0.24390243902439027
17_02_14_327,2.0,-4.0,-1.0,-1.0,-7.0,-6.0,-3.0,-1.0,0.49365234375,-0.337890625,-0.7099609375,3.1707317073170733,-0.24390243902439027,-1.0365853658536586
17_02_14_327,2.0,0.0,0.0,-2.0,2.0,3.0,0.0,-6.0,1.5625,0.11328125,0.7470703125,-6.097560975609756,0.9146341463414634,1.4634146341463417
17_02_14_327,2.0,-1.0,-1.0,2.0,-6.0,-7.0,-1.0,1.0,0.81787109375,-0.24267578125,0.45068359375,2.25609756097561,-0.12195121951219513,-1.524390243902439
17_02_14_327,1.0,-1.0,-2.0,-1.0,-2.0,-1.0,-3.0,-1.0,0.53564453125,-0.3193359375,-0.69677734375,3.7195121951219514,-0.7317073170731708,-1.0365853658536586
17_02_14_327,0.0,-3.0,2.0,-3.0,-6.0,-8.0,-2.0,2.0,1.56982421875,0.1142578125,0.822265625,-5.0,0.9756097560975611,1.829268292682927
17_02_14_327,-1.0,2.0,-6.0,-4.0,5.0,-1.0,-5.0,-1.0,0.7412109375,-0.28662109375,0.3251953125,4.390243902439025,-0.24390243902439027,-1.3414634146341464
17_02_14_379,1.0,0.0,1.0,1.0,0.0,-2.0,3.0,0.0,1.5068359375,0.10205078125,0.62939453125,-6.2804878048780495,1.0975609756097562,1.6463414634146343
17_02_14_379,0.0,0.0,-3.0,0.0,0.0,3.0,2.0,-2.0,0.93701171875,-0.18798828125,0.61865234375,0.5487804878048781,0.426829268292683,-1.7682926829268295
17_02_14_379,-3.0,-1.0,0.0,-1.0,1.0,-2.0,-1.0,-4.0,0.43603515625,-0.37060546875,-0.70849609375,3.780487804878049,-0.30487804878048785,-1.2804878048780488
17_02_14_379,0.0,-1.0,0.0,-4.0,2.0,2.0,-1.0,-1.0,1.498046875,0.09765625,0.6181640625,-6.097560975609756,0.9756097560975611,1.9512195121951221
17_02_14_379,0.0,2.0,-1.0,2.0,1.0,1.0,-2.0,-1.0,0.9130859375,-0.20947265625,0.56689453125,0.9756097560975611,0.30487804878048785,-0.24390243902439027
17_02_14_379,0.0,0.0,0.0,-1.0,-2.0,3.0,2.0,-5.0,0.49365234375,-0.337890625,-0.7099609375,3.1707317073170733,-0.24390243902439027,-1.0365853658536586
17_02_14_379,1.0,-3.0,0.0,-2.0,-1.0,0.0,-5.0,0.0,1.5625,0.11328125,0.7470703125,-6.097560975609756,0.9146341463414634,1.4634146341463417
17_02_14_379,-4.0,-3.0,-4.0,-1.0,-3.0,-2.0,0.0,0.0,0.81787109375,-0.24267578125,0.45068359375,2.25609756097561,-0.12195121951219513,-1.524390243902439
17_02_14_379,-1.0,-1.0,-4.0,-4.0,-4.0,-1.0,-2.0,-3.0,0.53564453125,-0.3193359375,-0.69677734375,3.7195121951219514,-0.7317073170731708,-1.0365853658536586
17_02_14_449,-5.0,4.0,-3.0,-3.0,7.0,5.0,2.0,-5.0,0.4248046875,-0.37939453125,-0.701171875,2.8658536585365857,0.06097560975609757,0.3658536585365854
17_02_14_449,2.0,-1.0,0.0,-3.0,1.0,-2.0,-2.0,0.0,0.43994140625,-0.36572265625,-0.697265625,3.353658536585366,-0.426829268292683,-0.7926829268292683
17_02_14_449,0.0,2.0,-4.0,1.0,4.0,5.0,-3.0,-5.0,1.5068359375,0.10205078125,0.62939453125,-6.2804878048780495,1.0975609756097562,1.6463414634146343
17_02_14_449,1.0,0.0,1.0,1.0,0.0,-2.0,3.0,0.0,0.93701171875,-0.18798828125,0.61865234375,0.5487804878048781,0.426829268292683,-1.7682926829268295
17_02_14_449,0.0,0.0,-3.0,0.0,0.0,3.0,2.0,-2.0,0.43603515625,-0.37060546875,-0.70849609375,3.780487804878049,-0.30487804878048785,-1.2804878048780488
17_02_14_449,-3.0,-1.0,0.0,-1.0,1.0,-2.0,-1.0,-4.0,1.498046875,0.09765625,0.6181640625,-6.097560975609756,0.9756097560975611,1.9512195121951221
17_02_14_449,0.0,-1.0,0.0,-4.0,2.0,2.0,-1.0,-1.0,0.9130859375,-0.20947265625,0.56689453125,0.9756097560975611,0.30487804878048785,-0.24390243902439027
17_02_14_449,0.0,2.0,-1.0,2.0,1.0,1.0,-2.0,-1.0,0.49365234375,-0.337890625,-0.7099609375,3.1707317073170733,-0.24390243902439027,-1.0365853658536586
17_02_14_449,0.0,0.0,0.0,-1.0,-2.0,3.0,2.0,-5.0,1.5625,0.11328125,0.7470703125,-6.097560975609756,0.9146341463414634,1.4634146341463417
17_02_14_449,1.0,-3.0,0.0,-2.0,-1.0,0.0,-5.0,0.0,0.81787109375,-0.24267578125,0.45068359375,2.25609756097561,-0.12195121951219513,-1.524390243902439
17_02_14_497,-3.0,-3.0,-4.0,-1.0,0.0,4.0,-2.0,0.0,1.01171875,-0.16650390625,0.69580078125,-0.9756097560975611,0.426829268292683,-0.9756097560975611
17_02_14_497,0.0,0.0,-3.0,-5.0,2.0,-4.0,-1.0,-4.0,0.4248046875,-0.37939453125,-0.701171875,2.8658536585365857,0.06097560975609757,0.3658536585365854
17_02_14_497,-2.0,2.0,-8.0,-4.0,6.0,9.0,-2.0,-2.0,0.43994140625,-0.36572265625,-0.697265625,3.353658536585366,-0.426829268292683,-0.7926829268292683
17_02_14_497,1.0,-1.0,0.0,-2.0,-4.0,-2.0,2.0,5.0,1.5068359375,0.10205078125,0.62939453125,-6.2804878048780495,1.0975609756097562,1.6463414634146343
17_02_14_497,0.0,5.0,-1.0,-1.0,1.0,7.0,1.0,-4.0,0.93701171875,-0.18798828125,0.61865234375,0.5487804878048781,0.426829268292683,-1.7682926829268295
17_02_14_497,1.0,-3.0,-2.0,3.0,-1.0,-5.0,-3.0,-1.0,0.43603515625,-0.37060546875,-0.70849609375,3.780487804878049,-0.30487804878048785,-1.2804878048780488
17_02_14_497,-2.0,1.0,0.0,1.0,-2.0,8.0,0.0,-3.0,1.498046875,0.09765625,0.6181640625,-6.097560975609756,0.9756097560975611,1.9512195121951221
17_02_14_497,-5.0,1.0,-5.0,-4.0,-2.0,0.0,-2.0,-1.0,0.9130859375,-0.20947265625,0.56689453125,0.9756097560975611,0.30487804878048785,-0.24390243902439027
17_02_14_546,-1.0,2.0,0.0,-2.0,2.0,1.0,-6.0,-1.0,0.96435546875,-0.14453125,0.181640625,0.5487804878048781,0.426829268292683,0.0
17_02_14_546,0.0,1.0,-1.0,0.0,2.0,2.0,-1.0,-1.0,0.98388671875,-0.16162109375,0.16455078125,0.426829268292683,0.48780487804878053,0.24390243902439027
17_02_14_546,-2.0,-2.0,-1.0,1.0,0.0,-2.0,1.0,-1.0,0.9873046875,-0.1181640625,0.03857421875,4.085365853658537,0.1829268292682927,-0.7926829268292683
17_02_14_546,-4.0,-2.0,-3.0,-3.0,-3.0,-2.0,-7.0,0.0,1.5966796875,0.00634765625,0.4677734375,0.853658536585366,-0.1829268292682927,0.5487804878048781
17_02_14_546,-2.0,1.0,0.0,-4.0,2.0,-4.0,0.0,0.0,1.45556640625,0.0849609375,0.51025390625,-5.914634146341464,0.9756097560975611,0.7317073170731708
17_02_14_546,1.0,0.0,-3.0,-2.0,-1.0,-3.0,2.0,-2.0,1.01171875,-0.16650390625,0.69580078125,-0.9756097560975611,0.426829268292683,-0.9756097560975611
17_02_14_546,1.0,-1.0,0.0,0.0,0.0,0.0,-1.0,-1.0,0.4248046875,-0.37939453125,-0.701171875,2.8658536585365857,0.06097560975609757,0.3658536585365854
17_02_14_546,-3.0,-2.0,-1.0,-4.0,-1.0,1.0,1.0,-1.0,0.43994140625,-0.36572265625,-0.697265625,3.353658536585366,-0.426829268292683,-0.7926829268292683
17_02_14_546,-1.0,-1.0,-4.0,-4.0,1.0,3.0,-1.0,-1.0,1.5068359375,0.10205078125,0.62939453125,-6.2804878048780495,1.0975609756097562,1.6463414634146343
17_02_14_546,0.0,0.0,-1.0,-3.0,0.0,1.0,-5.0,-3.0,0.93701171875,-0.18798828125,0.61865234375,0.5487804878048781,0.426829268292683,-1.7682926829268295
17_02_14_594,-3.0,0.0,-3.0,-3.0,-2.0,2.0,-3.0,-3.0,0.96435546875,-0.14453125,0.181640625,0.5487804878048781,0.426829268292683,0.0
17_02_14_594,-1.0,-1.0,1.0,-1.0,-2.0,-1.0,0.0,-4.0,0.98388671875,-0.16162109375,0.16455078125,0.426829268292683,0.48780487804878053,0.24390243902439027
17_02_14_594,0.0,0.0,1.0,0.0,0.0,0.0,1.0,3.0,0.9873046875,-0.1181640625,0.03857421875,4.085365853658537,0.1829268292682927,-0.7926829268292683
17_02_14_594,-3.0,1.0,1.0,-4.0,-1.0,-2.0,-1.0,1.0,1.5966796875,0.00634765625,0.4677734375,0.853658536585366,-0.1829268292682927,0.5487804878048781
17_02_14_594,-1.0,1.0,-3.0,-2.0,-1.0,-2.0,-2.0,1.0,1.45556640625,0.0849609375,0.51025390625,-5.914634146341464,0.9756097560975611,0.7317073170731708
17_02_14_594,-3.0,-3.0,-2.0,2.0,-2.0,-5.0,0.0,-3.0,1.01171875,-0.16650390625,0.69580078125,-0.9756097560975611,0.426829268292683,-0.9756097560975611
17_02_14_594,-1.0,2.0,0.0,-2.0,2.0,1.0,-6.0,-1.0,0.4248046875,-0.37939453125,-0.701171875,2.8658536585365857,0.06097560975609757,0.3658536585365854
17_02_14_594,0.0,1.0,-1.0,0.0,2.0,2.0,-1.0,-1.0,0.43994140625,-0.36572265625,-0.697265625,3.353658536585366,-0.426829268292683,-0.7926829268292683
17_02_14_652,-2.0,-2.0,-1.0,-3.0,-1.0,-2.0,-6.0,1.0,0.98388671875,-0.16162109375,0.16455078125,0.426829268292683,0.48780487804878053,0.24390243902439027
17_02_14_652,-3.0,0.0,-3.0,-3.0,-2.0,2.0,-3.0,-3.0,0.9873046875,-0.1181640625,0.03857421875,4.085365853658537,0.1829268292682927,-0.7926829268292683
17_02_14_652,-1.0,-1.0,1.0,-1.0,-2.0,-1.0,0.0,-4.0,1.5966796875,0.00634765625,0.4677734375,0.853658536585366,-0.1829268292682927,0.5487804878048781
17_02_14_652,0.0,0.0,1.0,0.0,0.0,0.0,1.0,3.0,1.45556640625,0.0849609375,0.51025390625,-5.914634146341464,0.9756097560975611,0.7317073170731708
17_02_14_652,-3.0,1.0,1.0,-4.0,-1.0,-2.0,-1.0,1.0,1.01171875,-0.16650390625,0.69580078125,-0.9756097560975611,0.426829268292683,-0.9756097560975611
17_02_14_652,-1.0,1.0,-3.0,-2.0,-1.0,-2.0,-2.0,1.0,0.4248046875,-0.37939453125,-0.701171875,2.8658536585365857,0.06097560975609757,0.3658536585365854
17_02_14_652,-3.0,-3.0,-2.0,2.0,-2.0,-5.0,0.0,-3.0,0.43994140625,-0.36572265625,-0.697265625,3.353658536585366,-0.426829268292683,-0.7926829268292683
17_02_14_698,1.0,1.0,-1.0,-1.0,3.0,0.0,-2.0,0.0,0.96435546875,-0.1533203125,0.18359375,0.6707317073170732,0.12195121951219513,-0.1829268292682927
17_02_14_698,2.0,-2.0,0.0,-3.0,0.0,3.0,-3.0,-3.0,0.9619140625,-0.150390625,0.18505859375,0.7317073170731708,0.12195121951219513,-0.24390243902439027
17_02_14_698,0.0,-2.0,-1.0,-1.0,-2.0,-4.0,-1.0,0.0,0.9638671875,-0.14599609375,0.1845703125,0.48780487804878053,0.30487804878048785,-0.12195121951219513
17_02_14_698,3.0,-2.0,-1.0,-2.0,0.0,-2.0,1.0,1.0,0.96142578125,-0.14501953125,0.18505859375,0.6707317073170732,0.426829268292683,-0.06097560975609757
17_02_14_698,-1.0,-2.0,-4.0,0.0,0.0,-2.0,-1.0,-2.0,0.95849609375,-0.154296875,0.19140625,0.1829268292682927,0.6707317073170732,-0.24390243902439027
17_02_14_698,-2.0,-3.0,4.0,-5.0,1.0,-4.0,-1.0,-2.0,0.9619140625,-0.1533203125,0.185546875,0.0,0.6707317073170732,-0.12195121951219513
17_02_14_698,1.0,0.0,0.0,-2.0,-2.0,3.0,-2.0,1.0,0.96337890625,-0.14892578125,0.17626953125,0.06097560975609757,0.6097560975609757,-0.1829268292682927
17_02_14_698,1.0,1.0,-3.0,-1.0,2.0,-1.0,2.0,0.0,0.96435546875,-0.14453125,0.181640625,0.5487804878048781,0.426829268292683,0.0
17_02_14_698,1.0,-2.0,0.0,-3.0,-2.0,-3.0,2.0,-3.0,0.98388671875,-0.16162109375,0.16455078125,0.426829268292683,0.48780487804878053,0.24390243902439027
17_02_14_698,1.0,0.0,-2.0,-4.0,-1.0,1.0,-1.0,1.0,0.9873046875,-0.1181640625,0.03857421875,4.085365853658537,0.1829268292682927,-0.7926829268292683
17_02_14_756,-2.0,-1.0,-2.0,-1.0,1.0,0.0,-1.0,0.0,0.96435546875,-0.1533203125,0.18359375,0.6707317073170732,0.12195121951219513,-0.1829268292682927
17_02_14_756,-1.0,2.0,0.0,2.0,-1.0,2.0,-3.0,0.0,0.9619140625,-0.150390625,0.18505859375,0.7317073170731708,0.12195121951219513,-0.24390243902439027
17_02_14_756,1.0,1.0,-1.0,-1.0,3.0,0.0,-2.0,0.0,0.9638671875,-0.14599609375,0.1845703125,0.48780487804878053,0.30487804878048785,-0.12195121951219513
17_02_14_756,2.0,-2.0,0.0,-3.0,0.0,3.0,-3.0,-3.0,0.96142578125,-0.14501953125,0.18505859375,0.6707317073170732,0.426829268292683,-0.06097560975609757
17_02_14_756,0.0,-2.0,-1.0,-1.0,-2.0,-4.0,-1.0,0.0,0.95849609375,-0.154296875,0.19140625,0.1829268292682927,0.6707317073170732,-0.24390243902439027
17_02_14_756,3.0,-2.0,-1.0,-2.0,0.0,-2.0,1.0,1.0,0.9619140625,-0.1533203125,0.185546875,0.0,0.6707317073170732,-0.12195121951219513
17_02_14_756,-1.0,-2.0,-4.0,0.0,0.0,-2.0,-1.0,-2.0,0.96337890625,-0.14892578125,0.17626953125,0.06097560975609757,0.6097560975609757,-0.1829268292682927
17_02_14_756,-2.0,-3.0,4.0,-5.0,1.0,-4.0,-1.0,-2.0,0.96435546875,-0.14453125,0.181640625,0.5487804878048781,0.426829268292683,0.0
17_02_14_756,1.0,0.0,0.0,-2.0,-2.0,3.0,-2.0,1.0,0.98388671875,-0.16162109375,0.16455078125,0.426829268292683,0.48780487804878053,0.24390243902439027
17_02_14_756,1.0,1.0,-3.0,-1.0,2.0,-1.0,2.0,0.0,0.9873046875,-0.1181640625,0.03857421875,4.085365853658537,0.1829268292682927,-0.7926829268292683
17_02_14_820,-3.0,-4.0,-1.0,0.0,0.0,0.0,-4.0,-1.0,0.96435546875,-0.1533203125,0.18359375,0.6707317073170732,0.12195121951219513,-0.1829268292682927
17_02_14_820,0.0,1.0,-3.0,0.0,-3.0,-1.0,-1.0,-2.0,0.9619140625,-0.150390625,0.18505859375,0.7317073170731708,0.12195121951219513,-0.24390243902439027
17_02_14_820,-1.0,-3.0,-1.0,0.0,-7.0,-3.0,-2.0,0.0,0.9638671875,-0.14599609375,0.1845703125,0.48780487804878053,0.30487804878048785,-0.12195121951219513
17_02_14_820,-1.0,-1.0,-2.0,-4.0,0.0,2.0,0.0,-1.0,0.96142578125,-0.14501953125,0.18505859375,0.6707317073170732,0.426829268292683,-0.06097560975609757
17_02_14_820,3.0,-1.0,-2.0,0.0,-1.0,3.0,1.0,-3.0,0.95849609375,-0.154296875,0.19140625,0.1829268292682927,0.6707317073170732,-0.24390243902439027
17_02_14_820,-2.0,-1.0,-2.0,-1.0,1.0,0.0,-1.0,0.0,0.9619140625,-0.1533203125,0.185546875,0.0,0.6707317073170732,-0.12195121951219513
17_02_14_820,-1.0,2.0,0.0,2.0,-1.0,2.0,-3.0,0.0,0.96337890625,-0.14892578125,0.17626953125,0.06097560975609757,0.6097560975609757,-0.1829268292682927
17_02_14_820,1.0,1.0,-1.0,-1.0,3.0,0.0,-2.0,0.0,0.96435546875,-0.14453125,0.181640625,0.5487804878048781,0.426829268292683,0.0
17_02_14_820,2.0,-2.0,0.0,-3.0,0.0,3.0,-3.0,-3.0,0.98388671875,-0.16162109375,0.16455078125,0.426829268292683,0.48780487804878053,0.24390243902439027
17_02_14_863,1.0,-5.0,-4.0,1.0,-3.0,-2.0,0.0,3.0,0.96337890625,-0.14501953125,0.18994140625,0.1829268292682927,-0.12195121951219513,-0.06097560975609757
17_02_14_863,-1.0,0.0,-1.0,0.0,1.0,-5.0,-3.0,-1.0,0.96337890625,-0.15185546875,0.1806640625,0.1829268292682927,0.0,-0.12195121951219513
17_02_14_863,-2.0,0.0,-4.0,-2.0,-1.0,3.0,1.0,0.0,0.96337890625,-0.15087890625,0.1865234375,0.1829268292682927,0.12195121951219513,-0.12195121951219513
17_02_14_863,-1.0,0.0,-2.0,0.0,0.0,-3.0,0.0,1.0,0.962890625,-0.14599609375,0.181640625,0.1829268292682927,0.12195121951219513,-0.06097560975609757
17_02_14_863,-1.0,-1.0,2.0,0.0,2.0,-1.0,2.0,0.0,0.96044921875,-0.14697265625,0.181640625,0.3658536585365854,0.06097560975609757,-0.12195121951219513
17_02_14_863,1.0,1.0,0.0,-1.0,-4.0,2.0,0.0,0.0,0.962890625,-0.14892578125,0.18212890625,0.48780487804878053,0.0,-0.1829268292682927
17_02_14_863,1.0,0.0,-1.0,1.0,-1.0,-1.0,-2.0,3.0,0.96435546875,-0.1533203125,0.18359375,0.6707317073170732,0.12195121951219513,-0.1829268292682927
17_02_14_863,0.0,0.0,-2.0,-2.0,-3.0,-6.0,-2.0,-1.0,0.9619140625,-0.150390625,0.18505859375,0.7317073170731708,0.12195121951219513,-0.24390243902439027
17_02_14_863,2.0,-3.0,2.0,0.0,-1.0,-1.0,-2.0,-1.0,0.9638671875,-0.14599609375,0.1845703125,0.48780487804878053,0.30487804878048785,-0.12195121951219513
17_02_16_400,2.0,-2.0,-3.0,-1.0,-3.0,0.0,0.0,-4.0,0.96240234375,-0.146484375,0.18701171875,0.426829268292683,-0.3658536585365854,0.0
17_02_16_400,-3.0,-1.0,-3.0,0.0,-5.0,1.0,2.0,-2.0,0.96533203125,-0.1474609375,0.18603515625,0.30487804878048785,-0.1829268292682927,-0.06097560975609757
17_02_16_400,-1.0,-2.0,1.0,-1.0,-1.0,-1.0,-1.0,-4.0,0.96337890625,-0.14501953125,0.18994140625,0.1829268292682927,-0.12195121951219513,-0.06097560975609757
17_02_16_400,0.0,3.0,-2.0,-3.0,-1.0,2.0,-3.0,2.0,0.96337890625,-0.15185546875,0.1806640625,0.1829268292682927,0.0,-0.12195121951219513
17_02_16_400,0.0,-2.0,0.0,-2.0,-1.0,1.0,-2.0,-1.0,0.96337890625,-0.15087890625,0.1865234375,0.1829268292682927,0.12195121951219513,-0.12195121951219513
17_02_16_400,1.0,-5.0,-4.0,1.0,-3.0,-2.0,0.0,3.0,0.962890625,-0.14599609375,0.181640625,0.1829268292682927,0.12195121951219513,-0.06097560975609757
17_02_16_400,-1.0,0.0,-1.0,0.0,1.0,-5.0,-3.0,-1.0,0.96044921875,-0.14697265625,0.181640625,0.3658536585365854,0.06097560975609757,-0.12195121951219513
17_02_16_400,-2.0,0.0,-4.0,-2.0,-1.0,3.0,1.0,0.0,0.962890625,-0.14892578125,0.18212890625,0.48780487804878053,0.0,-0.1829268292682927
17_02_16_400,-1.0,0.0,-2.0,0.0,0.0,-3.0,0.0,1.0,0.96435546875,-0.1533203125,0.18359375,0.6707317073170732,0.12195121951219513,-0.1829268292682927
17_02_16_400,-1.0,-1.0,2.0,0.0,2.0,-1.0,2.0,0.0,0.9619140625,-0.150390625,0.18505859375,0.7317073170731708,0.12195121951219513,-0.24390243902439027
17_02_16_434,-3.0,-9.0,-39.0,-5.0,-4.0,-2.0,0.0,1.0,0.916015625,-0.06591796875,0.23828125,20.365853658536587,5.3048780487804885,-8.841463414634147
17_02_16_434,-2.0,0.0,8.0,4.0,-2.0,-1.0,-1.0,-1.0,0.9345703125,-0.1220703125,0.23828125,17.5609756097561,3.780487804878049,-8.292682926829269
17_02_16_434,-2.0,-1.0,10.0,-5.0,-2.0,0.0,1.0,-1.0,0.9462890625,-0.12646484375,0.23828125,5.670731707317073,3.780487804878049,-8.719512195121952
17_02_16_434,-2.0,2.0,-20.0,1.0,0.0,-3.0,-1.0,-2.0,0.966796875,-0.13330078125,0.23828125,-0.24390243902439027,3.2926829268292686,-7.500000000000001
17_02_16_434,0.0,2.0,8.0,2.0,1.0,1.0,-4.0,0.0,0.97119140625,-0.13671875,0.22998046875,-4.634146341463415,3.4756097560975614,-6.890243902439025
17_02_16_434,-2.0,0.0,-2.0,-1.0,-2.0,-1.0,-1.0,-4.0,0.97119140625,-0.14501953125,0.224609375,-7.195121951219513,3.231707317073171,-6.463414634146342
17_02_16_434,-2.0,-4.0,-1.0,-3.0,-3.0,0.0,0.0,1.0,0.97509765625,-0.14111328125,0.2197265625,-8.109756097560977,3.414634146341464,-6.341463414634147
17_02_16_434,-5.0,-1.0,2.0,-4.0,-1.0,-1.0,-1.0,2.0,0.96826171875,-0.16064453125,0.21240234375,-0.7926829268292683,3.1707317073170733,-6.036585365853659
17_02_16_434,2.0,-2.0,-2.0,-3.0,-2.0,-4.0,1.0,1.0,0.96240234375,-0.166015625,0.212890625,1.2195121951219514,3.2926829268292686,-5.731707317073171
17_02_16_434,-4.0,0.0,-3.0,-1.0,-2.0,3.0,-2.0,0.0,0.95068359375,-0.1943359375,0.21484375,2.0121951219512195,2.987804878048781,-4.817073170731708
17_02_16_481,0.0,0.0,23.0,6.0,-4.0,-1.0,-1.0,-4.0,0.916015625,-0.06591796875,0.23828125,20.365853658536587,5.3048780487804885,-8.841463414634147
17_02_16_481,-1.0,1.0,-2.0,-1.0,-3.0,0.0,0.0,-3.0,0.9345703125,-0.1220703125,0.23828125,17.5609756097561,3.780487804878049,-8.292682926829269
17_02_16_481,-2.0,0.0,10.0,2.0,2.0,2.0,0.0,-2.0,0.9462890625,-0.12646484375,0.23828125,5.670731707317073,3.780487804878049,-8.719512195121952
17_02_16_481,-1.0,3.0,-3.0,3.0,0.0,4.0,2.0,-1.0,0.966796875,-0.13330078125,0.23828125,-0.24390243902439027,3.2926829268292686,-7.500000000000001
17_02_16_481,-1.0,-1.0,8.0,-2.0,-1.0,-1.0,-3.0,1.0,0.97119140625,-0.13671875,0.22998046875,-4.634146341463415,3.4756097560975614,-6.890243902439025
17_02_16_481,-3.0,-9.0,-39.0,-5.0,-4.0,-2.0,0.0,1.0,0.97119140625,-0.14501953125,0.224609375,-7.195121951219513,3.231707317073171,-6.463414634146342
17_02_16_481,-2.0,0.0,8.0,4.0,-2.0,-1.0,-1.0,-1.0,0.97509765625,-0.14111328125,0.2197265625,-8.109756097560977,3.414634146341464,-6.341463414634147
17_02_16_481,-2.0,-1.0,10.0,-5.0,-2.0,0.0,1.0,-1.0,0.96826171875,-0.16064453125,0.21240234375,-0.7926829268292683,3.1707317073170733,-6.036585365853659
17_02_16_481,-2.0,2.0,-20.0,1.0,0.0,-3.0,-1.0,-2.0,0.96240234375,-0.166015625,0.212890625,1.2195121951219514,3.2926829268292686,-5.731707317073171
17_02_16_554,0.0,3.0,-4.0,-2.0,3.0,1.0,2.0,-1.0,0.9619140625,-0.119140625,0.279296875,-8.048780487804878,4.878048780487806,-5.670731707317073
17_02_16_554,-1.0,-3.0,7.0,-2.0,-2.0,-1.0,-3.0,1.0,0.93701171875,-0.134765625,0.25732421875,-14.634146341463415,4.573170731707317,-6.890243902439025
17_02_16_554,-1.0,-1.0,1.0,0.0,0.0,1.0,-1.0,-1.0,0.9111328125,-0.05078125,0.25048828125,-13.902439024390246,3.9024390243902443,-7.560975609756098
17_02_16_554,0.0,-3.0,2.0,2.0,-3.0,0.0,1.0,0.0,0.9111328125,0.03955078125,0.23779296875,1.5853658536585367,6.2804878048780495,-9.146341463414634
17_02_16_554,-2.0,3.0,12.0,-3.0,-3.0,-3.0,-2.0,0.0,0.916015625,-0.06591796875,0.23828125,20.365853658536587,5.3048780487804885,-8.841463414634147
17_02_16_554,-1.0,-3.0,0.0,0.0,-1.0,-1.0,3.0,-1.0,0.9345703125,-0.1220703125,0.23828125,17.5609756097561,3.780487804878049,-8.292682926829269
17_02_16_554,2.0,-3.0,-12.0,4.0,0.0,-3.0,-4.0,-4.0,0.9462890625,-0.12646484375,0.23828125,5.670731707317073,3.780487804878049,-8.719512195121952
17_02_16_554,-1.0,1.0,6.0,0.0,2.0,3.0,2.0,-1.0,0.966796875,-0.13330078125,0.23828125,-0.24390243902439027,3.2926829268292686,-7.500000000000001
17_02_16_554,0.0,-3.0,-32.0,-9.0,-2.0,-4.0,-3.0,-2.0,0.97119140625,-0.13671875,0.22998046875,-4.634146341463415,3.4756097560975614,-6.890243902439025
17_02_16_554,0.0,0.0,23.0,6.0,-4.0,-1.0,-1.0,-4.0,0.97119140625,-0.14501953125,0.224609375,-7.195121951219513,3.231707317073171,-6.463414634146342
17_02_16_585,2.0,1.0,5.0,-7.0,-2.0,1.0,-1.0,-1.0,0.96728515625,-0.0576171875,0.283203125,-9.085365853658537,10.792682926829269,-5.0
17_02_16_585,-3.0,0.0,3.0,-2.0,-2.0,0.0,-1.0,3.0,0.9765625,-0.05517578125,0.27099609375,-8.475609756097562,9.02439024390244,-4.817073170731708
17_02_16_585,-3.0,-3.0,-2.0,1.0,-3.0,2.0,-4.0,-2.0,0.9951171875,-0.04345703125,0.27734375,-5.914634146341464,7.134146341463415,-5.487804878048781
17_02_16_585,3.0,2.0,0.0,1.0,-1.0,0.0,-1.0,-1.0,0.99755859375,-0.06689453125,0.2744140625,-2.25609756097561,5.853658536585367,-6.158536585365854
17_02_16_585,-1.0,1.0,5.0,2.0,2.0,1.0,1.0,-1.0,0.9619140625,-0.119140625,0.279296875,-8.048780487804878,4.878048780487806,-5.670731707317073
17_02_16_585,-2.0,-4.0,-4.0,-3.0,1.0,-1.0,-1.0,2.0,0.93701171875,-0.134765625,0.25732421875,-14.634146341463415,4.573170731707317,-6.890243902439025
17_02_16_585,-1.0,-3.0,-2.0,0.0,-1.0,1.0,-2.0,1.0,0.9111328125,-0.05078125,0.25048828125,-13.902439024390246,3.9024390243902443,-7.560975609756098
17_02_16_585,1.0,0.0,0.0,-1.0,-4.0,-3.0,0.0,-4.0,0.9111328125,0.03955078125,0.23779296875,1.5853658536585367,6.2804878048780495,-9.146341463414634
17_02_16_585,1.0,2.0,-1.0,3.0,5.0,1.0,-1.0,-1.0,0.916015625,-0.06591796875,0.23828125,20.365853658536587,5.3048780487804885,-8.841463414634147
17_02_16_585,1.0,-3.0,1.0,3.0,-2.0,-4.0,1.0,1.0,0.9345703125,-0.1220703125,0.23828125,17.5609756097561,3.780487804878049,-8.292682926829269
17_02_16_663,2.0,1.0,5.0,0.0,1.0,0.0,-2.0,-2.0,0.94677734375,-0.04638671875,0.279296875,-11.219512195121952,12.682926829268293,-5.182926829268293
17_02_16_663,-4.0,-2.0,-5.0,1.0,-4.0,-2.0,-1.0,0.0,0.96728515625,-0.0576171875,0.283203125,-9.085365853658537,10.792682926829269,-5.0
17_02_16_663,2.0,1.0,5.0,-7.0,-2.0,1.0,-1.0,-1.0,0.9765625,-0.05517578125,0.27099609375,-8.475609756097562,9.02439024390244,-4.817073170731708
17_02_16_663,-3.0,0.0,3.0,-2.0,-2.0,0.0,-1.0,3.0,0.9951171875,-0.04345703125,0.27734375,-5.914634146341464,7.134146341463415,-5.487804878048781
17_02_16_663,-3.0,-3.0,-2.0,1.0,-3.0,2.0,-4.0,-2.0,0.99755859375,-0.06689453125,0.2744140625,-2.25609756097561,5.853658536585367,-6.158536585365854
17_02_16_663,3.0,2.0,0.0,1.0,-1.0,0.0,-1.0,-1.0,0.9619140625,-0.119140625,0.279296875,-8.048780487804878,4.878048780487806,-5.670731707317073
17_02_16_663,-1.0,1.0,5.0,2.0,2.0,1.0,1.0,-1.0,0.93701171875,-0.134765625,0.25732421875,-14.634146341463415,4.573170731707317,-6.890243902439025
17_02_16_663,-2.0,-4.0,-4.0,-3.0,1.0,-1.0,-1.0,2.0,0.9111328125,-0.05078125,0.25048828125,-13.902439024390246,3.9024390243902443,-7.560975609756098
17_02_16_663,-1.0,-3.0,-2.0,0.0,-1.0,1.0,-2.0,1.0,0.9111328125,0.03955078125,0.23779296875,1.5853658536585367,6.2804878048780495,-9.146341463414634
17_02_16_663,1.0,0.0,0.0,-1.0,-4.0,-3.0,0.0,-4.0,0.916015625,-0.06591796875,0.23828125,20.365853658536587,5.3048780487804885,-8.841463414634147
17_02_16_722,2.0,1.0,3.0,0.0,1.0,-1.0,-2.0,-2.0,0.9267578125,-0.06103515625,0.30419921875,-10.975609756097562,11.829268292682928,-6.585365853658537
17_02_16_722,1.0,3.0,-2.0,0.0,1.0,1.0,1.0,-2.0,0.93115234375,-0.06494140625,0.3046875,-12.80487804878049,12.560975609756099,-6.7682926829268295
17_02_16_722,4.0,0.0,4.0,1.0,-1.0,3.0,-2.0,1.0,0.93017578125,-0.05908203125,0.2998046875,-16.158536585365855,13.719512195121952,-6.951219512195123
17_02_16_722,-1.0,-6.0,-5.0,-3.0,-6.0,-3.0,-2.0,0.0,0.93994140625,-0.04736328125,0.29052734375,-14.573170731707318,13.414634146341465,-5.731707317073171
17_02_16_722,1.0,-1.0,-4.0,-5.0,-4.0,-7.0,-5.0,-1.0,0.94677734375,-0.04638671875,0.279296875,-11.219512195121952,12.682926829268293,-5.182926829268293
17_02_16_722,1.0,-1.0,0.0,2.0,2.0,-1.0,-3.0,-1.0,0.96728515625,-0.0576171875,0.283203125,-9.085365853658537,10.792682926829269,-5.0
17_02_16_722,-1.0,2.0,-1.0,1.0,1.0,1.0,-2.0,-1.0,0.9765625,-0.05517578125,0.27099609375,-8.475609756097562,9.02439024390244,-4.817073170731708
17_02_16_722,0.0,-3.0,-2.0,-2.0,-1.0,-2.0,1.0,0.0,0.9951171875,-0.04345703125,0.27734375,-5.914634146341464,7.134146341463415,-5.487804878048781
17_02_16_722,-2.0,-1.0,-2.0,-3.0,-2.0,0.0,2.0,2.0,0.99755859375,-0.06689453125,0.2744140625,-2.25609756097561,5.853658536585367,-6.158536585365854
17_02_16_722,1.0,-3.0,3.0,-3.0,-3.0,2.0,2.0,1.0,0.9619140625,-0.119140625,0.279296875,-8.048780487804878,4.878048780487806,-5.670731707317073
17_02_16_770,-2.0,-2.0,-3.0,-4.0,0.0,-1.0,-2.0,-2.0,0.91796875,-0.0595703125,0.3046875,-4.451219512195122,10.121951219512196,-4.329268292682928
17_02_16_770,-4.0,-3.0,-3.0,-5.0,-4.0,2.0,-2.0,-1.0,0.9228515625,-0.06591796875,0.30615234375,-8.475609756097562,10.853658536585368,-5.7926829268292686
17_02_16_770,2.0,2.0,-1.0,0.0,0.0,-3.0,2.0,1.0,0.9267578125,-0.06103515625,0.30419921875,-10.975609756097562,11.829268292682928,-6.585365853658537
17_02_16_770,3.0,2.0,2.0,4.0,2.0,0.0,-3.0,0.0,0.93115234375,-0.06494140625,0.3046875,-12.80487804878049,12.560975609756099,-6.7682926829268295
17_02_16_770,-3.0,2.0,-3.0,3.0,-3.0,2.0,-4.0,-2.0,0.93017578125,-0.05908203125,0.2998046875,-16.158536585365855,13.719512195121952,-6.951219512195123
17_02_16_770,-1.0,-3.0,1.0,-2.0,-2.0,0.0,-1.0,-2.0,0.93994140625,-0.04736328125,0.29052734375,-14.573170731707318,13.414634146341465,-5.731707317073171
17_02_16_770,2.0,1.0,3.0,0.0,1.0,-1.0,-2.0,-2.0,0.94677734375,-0.04638671875,0.279296875,-11.219512195121952,12.682926829268293,-5.182926829268293
17_02_16_770,1.0,3.0,-2.0,0.0,1.0,1.0,1.0,-2.0,0.96728515625,-0.0576171875,0.283203125,-9.085365853658537,10.792682926829269,-5.0
17_02_16_770,4.0,0.0,4.0,1.0,-1.0,3.0,-2.0,1.0,0.9765625,-0.05517578125,0.27099609375,-8.475609756097562,9.02439024390244,-4.817073170731708
17_02_16_770,-1.0,-6.0,-5.0,-3.0,-6.0,-3.0,-2.0,0.0,0.9951171875,-0.04345703125,0.27734375,-5.914634146341464,7.134146341463415,-5.487804878048781
17_02_16_809,1.0,-6.0,-8.0,-2.0,0.0,-1.0,-5.0,-1.0,0.904296875,-0.04296875,0.30810546875,-1.524390243902439,12.621951219512196,2.5
17_02_16_809,-3.0,3.0,3.0,-1.0,-1.0,-3.0,-3.0,0.0,0.912109375,-0.04345703125,0.30859375,-0.426829268292683,10.609756097560977,0.3658536585365854
17_02_16_809,-3.0,-1.0,-6.0,7.0,2.0,-3.0,0.0,1.0,0.912109375,-0.05029296875,0.3046875,-2.073170731707317,9.756097560975611,-2.1951219512195124
17_02_16_809,-1.0,-3.0,-1.0,-5.0,-4.0,-1.0,0.0,0.0,0.91796875,-0.0595703125,0.3046875,-4.451219512195122,10.121951219512196,-4.329268292682928
17_02_16_809,0.0,-1.0,-3.0,-5.0,-3.0,-2.0,0.0,1.0,0.9228515625,-0.06591796875,0.30615234375,-8.475609756097562,10.853658536585368,-5.7926829268292686
17_02_16_809,-2.0,-3.0,-3.0,-1.0,-2.0,-2.0,1.0,0.0,0.9267578125,-0.06103515625,0.30419921875,-10.975609756097562,11.829268292682928,-6.585365853658537
17_02_16_809,-2.0,2.0,6.0,1.0,-1.0,2.0,0.0,0.0,0.93115234375,-0.06494140625,0.3046875,-12.80487804878049,12.560975609756099,-6.7682926829268295
17_02_16_809,-1.0,-4.0,-1.0,1.0,-1.0,0.0,1.0,1.0,0.93017578125,-0.05908203125,0.2998046875,-16.158536585365855,13.719512195121952,-6.951219512195123
17_02_16_809,-4.0,3.0,0.0,1.0,-1.0,2.0,1.0,0.0,0.93994140625,-0.04736328125,0.29052734375,-14.573170731707318,13.414634146341465,-5.731707317073171
17_02_16_809,0.0,1.0,-1.0,-5.0,-1.0,-4.0,-2.0,-1.0,0.94677734375,-0.04638671875,0.279296875,-11.219512195121952,12.682926829268293,-5.182926829268293
17_02_16_861,-2.0,-1.0,-1.0,-1.0,1.0,1.0,-1.0,1.0,0.912109375,-0.04345703125,0.30859375,-0.426829268292683,10.609756097560977,0.3658536585365854
17_02_16_861,-3.0,-1.0,5.0,0.0,-1.0,1.0,2.0,-1.0,0.912109375,-0.05029296875,0.3046875,-2.073170731707317,9.756097560975611,-2.1951219512195124
17_02_16_861,-1.0,-2.0,-4.0,-1.0,-2.0,-3.0,1.0,1.0,0.91796875,-0.0595703125,0.3046875,-4.451219512195122,10.121951219512196,-4.329268292682928
17_02_16_861,-3.0,-1.0,3.0,-1.0,0.0,-1.0,-1.0,1.0,0.9228515625,-0.06591796875,0.30615234375,-8.475609756097562,10.853658536585368,-5.7926829268292686
17_02_16_861,1.0,-2.0,0.0,2.0,-1.0,1.0,-3.0,-1.0,0.9267578125,-0.06103515625,0.30419921875,-10.975609756097562,11.829268292682928,-6.585365853658537
17_02_16_861,-1.0,2.0,10.0,-2.0,0.0,2.0,-4.0,1.0,0.93115234375,-0.06494140625,0.3046875,-12.80487804878049,12.560975609756099,-6.7682926829268295
17_02_16_861,1.0,-1.0,-13.0,-4.0,0.0,-1.0,1.0,-1.0,0.93017578125,-0.05908203125,0.2998046875,-16.158536585365855,13.719512195121952,-6.951219512195123
17_02_16_912,-3.0,0.0,-9.0,-1.0,-4.0,0.0,1.0,0.0,0.87158203125,-0.06591796875,0.35400390625,-13.963414634146343,23.902439024390247,9.878048780487806
17_02_16_912,-7.0,-2.0,13.0,1.0,-2.0,0.0,0.0,3.0,0.87841796875,-0.056640625,0.345703125,-12.317073170731708,21.82926829268293,8.597560975609756
17_02_16_912,1.0,-2.0,1.0,0.0,1.0,-2.0,-4.0,0.0,0.888671875,-0.044921875,0.3291015625,-9.207317073170733,18.597560975609756,7.25609756097561
17_02_16_912,2.0,0.0,3.0,-3.0,2.0,-2.0,-1.0,1.0,0.8974609375,-0.044921875,0.31396484375,-5.121951219512195,15.243902439024392,5.060975609756098
17_02_16_912,3.0,-2.0,-12.0,-1.0,-3.0,-2.0,-3.0,2.0,0.904296875,-0.04296875,0.30810546875,-1.524390243902439,12.621951219512196,2.5
17_02_16_912,-5.0,-1.0,1.0,-1.0,-1.0,1.0,-1.0,-2.0,0.912109375,-0.04345703125,0.30859375,-0.426829268292683,10.609756097560977,0.3658536585365854
17_02_16_912,-1.0,-3.0,-5.0,-1.0,-3.0,-1.0,-1.0,1.0,0.912109375,-0.05029296875,0.3046875,-2.073170731707317,9.756097560975611,-2.1951219512195124
17_02_16_912,2.0,1.0,2.0,0.0,1.0,-2.0,2.0,-5.0,0.91796875,-0.0595703125,0.3046875,-4.451219512195122,10.121951219512196,-4.329268292682928
17_02_16_912,1.0,0.0,7.0,5.0,-1.0,-4.0,-3.0,0.0,0.9228515625,-0.06591796875,0.30615234375,-8.475609756097562,10.853658536585368,-5.7926829268292686
17_02_16_912,1.0,-3.0,4.0,0.0,0.0,-1.0,0.0,-1.0,0.9267578125,-0.06103515625,0.30419921875,-10.975609756097562,11.829268292682928,-6.585365853658537
17_02_16_962,0.0,0.0,-1.0,-2.0,-3.0,0.0,4.0,4.0,0.8623046875,-0.072265625,0.3701171875,-15.54878048780488,25.731707317073173,10.975609756097562
17_02_16_962,-2.0,1.0,-4.0,-4.0,0.0,2.0,-1.0,0.0,0.87158203125,-0.06591796875,0.35400390625,-13.963414634146343,23.902439024390247,9.878048780487806
17_02_16_962,2.0,-1.0,-3.0,3.0,-1.0,2.0,0.0,-2.0,0.87841796875,-0.056640625,0.345703125,-12.317073170731708,21.82926829268293,8.597560975609756
17_02_16_962,0.0,0.0,2.0,1.0,2.0,-3.0,0.0,-1.0,0.888671875,-0.044921875,0.3291015625,-9.207317073170733,18.597560975609756,7.25609756097561
17_02_16_962,0.0,-2.0,6.0,1.0,-1.0,-4.0,-1.0,-3.0,0.8974609375,-0.044921875,0.31396484375,-5.121951219512195,15.243902439024392,5.060975609756098
17_02_16_962,-1.0,-6.0,-6.0,-8.0,-3.0,-2.0,0.0,0.0,0.904296875,-0.04296875,0.30810546875,-1.524390243902439,12.621951219512196,2.5
17_02_16_962,0.0,5.0,-3.0,6.0,3.0,-1.0,-1.0,0.0,0.912109375,-0.04345703125,0.30859375,-0.426829268292683,10.609756097560977,0.3658536585365854
17_02_16_962,0.0,-2.0,2.0,-3.0,-4.0,1.0,0.0,2.0,0.912109375,-0.05029296875,0.3046875,-2.073170731707317,9.756097560975611,-2.1951219512195124
17_02_17_012,0.0,-3.0,0.0,1.0,1.0,2.0,-2.0,-1.0,0.90283203125,-0.162109375,0.4326171875,-10.060975609756099,18.78048780487805,10.24390243902439
17_02_17_012,0.0,-2.0,-3.0,2.0,-4.0,-5.0,2.0,0.0,0.865234375,-0.13525390625,0.42626953125,-14.695121951219514,23.231707317073173,11.219512195121952
17_02_17_012,-2.0,-3.0,-9.0,-8.0,0.0,-3.0,3.0,0.0,0.8564453125,-0.11767578125,0.4072265625,-18.10975609756098,25.365853658536587,11.585365853658537
17_02_17_012,-1.0,4.0,13.0,8.0,8.0,2.0,-2.0,0.0,0.85009765625,-0.091796875,0.390625,-17.98780487804878,26.34146341463415,11.829268292682928
17_02_17_012,-1.0,-1.0,-5.0,-7.0,-3.0,0.0,-3.0,1.0,0.8623046875,-0.072265625,0.3701171875,-15.54878048780488,25.731707317073173,10.975609756097562
17_02_17_012,-4.0,-1.0,-1.0,4.0,2.0,-1.0,0.0,-1.0,0.87158203125,-0.06591796875,0.35400390625,-13.963414634146343,23.902439024390247,9.878048780487806
17_02_17_012,1.0,1.0,8.0,-2.0,-4.0,-2.0,1.0,1.0,0.87841796875,-0.056640625,0.345703125,-12.317073170731708,21.82926829268293,8.597560975609756
17_02_17_012,1.0,1.0,6.0,0.0,0.0,-1.0,-1.0,-3.0,0.888671875,-0.044921875,0.3291015625,-9.207317073170733,18.597560975609756,7.25609756097561
17_02_17_012,-1.0,-5.0,-16.0,-2.0,-1.0,0.0,1.0,-3.0,0.8974609375,-0.044921875,0.31396484375,-5.121951219512195,15.243902439024392,5.060975609756098
17_02_17_012,-2.0,0.0,1.0,3.0,1.0,0.0,-4.0,-1.0,0.904296875,-0.04296875,0.30810546875,-1.524390243902439,12.621951219512196,2.5
17_02_17_836,2.0,-1.0,3.0,1.0,-5.0,-5.0,0.0,0.0,0.94970703125,-0.1826171875,0.43408203125,-4.939024390243903,13.841463414634148,8.658536585365855
17_02_17_836,-3.0,-2.0,1.0,-3.0,-3.0,0.0,0.0,-2.0,0.90283203125,-0.162109375,0.4326171875,-10.060975609756099,18.78048780487805,10.24390243902439
17_02_17_836,0.0,-3.0,0.0,1.0,1.0,2.0,-2.0,-1.0,0.865234375,-0.13525390625,0.42626953125,-14.695121951219514,23.231707317073173,11.219512195121952
17_02_17_836,0.0,-2.0,-3.0,2.0,-4.0,-5.0,2.0,0.0,0.8564453125,-0.11767578125,0.4072265625,-18.10975609756098,25.365853658536587,11.585365853658537
17_02_17_836,-2.0,-3.0,-9.0,-8.0,0.0,-3.0,3.0,0.0,0.85009765625,-0.091796875,0.390625,-17.98780487804878,26.34146341463415,11.829268292682928
17_02_17_836,-1.0,4.0,13.0,8.0,8.0,2.0,-2.0,0.0,0.8623046875,-0.072265625,0.3701171875,-15.54878048780488,25.731707317073173,10.975609756097562
17_02_17_836,-1.0,-1.0,-5.0,-7.0,-3.0,0.0,-3.0,1.0,0.87158203125,-0.06591796875,0.35400390625,-13.963414634146343,23.902439024390247,9.878048780487806
17_02_17_836,-4.0,-1.0,-1.0,4.0,2.0,-1.0,0.0,-1.0,0.87841796875,-0.056640625,0.345703125,-12.317073170731708,21.82926829268293,8.597560975609756
17_02_17_836,1.0,1.0,8.0,-2.0,-4.0,-2.0,1.0,1.0,0.888671875,-0.044921875,0.3291015625,-9.207317073170733,18.597560975609756,7.25609756097561
17_02_17_836,1.0,1.0,6.0,0.0,0.0,-1.0,-1.0,-3.0,0.8974609375,-0.044921875,0.31396484375,-5.121951219512195,15.243902439024392,5.060975609756098
17_02_17_866,-3.0,-5.0,-20.0,-8.0,-2.0,-5.0,-7.0,0.0,0.7529296875,-0.20263671875,0.47509765625,7.560975609756098,6.341463414634147,-7.073170731707318
17_02_17_866,2.0,4.0,21.0,4.0,-2.0,-4.0,-3.0,-2.0,0.77294921875,-0.21533203125,0.47119140625,6.707317073170732,8.170731707317074,-4.634146341463415
17_02_17_866,-1.0,-1.0,-3.0,0.0,-2.0,-6.0,-3.0,-3.0,0.79541015625,-0.22607421875,0.47314453125,5.853658536585367,9.207317073170733,-2.682926829268293
17_02_17_866,-1.0,1.0,9.0,1.0,-3.0,24.0,10.0,-3.0,0.80908203125,-0.24267578125,0.478515625,3.8414634146341466,11.28048780487805,-1.6463414634146343
17_02_17_866,-2.0,-4.0,-36.0,0.0,-8.0,-27.0,-12.0,-4.0,0.81298828125,-0.2431640625,0.46728515625,3.414634146341464,12.80487804878049,0.0
17_02_17_866,4.0,6.0,14.0,5.0,3.0,0.0,3.0,0.0,0.8173828125,-0.25732421875,0.46240234375,2.987804878048781,14.939024390243905,1.0365853658536586
17_02_17_866,-7.0,-8.0,-12.0,-3.0,0.0,-7.0,-5.0,-5.0,0.81884765625,-0.27197265625,0.45556640625,1.3414634146341464,16.463414634146343,0.9756097560975611
17_02_17_866,-4.0,0.0,14.0,-1.0,-6.0,-3.0,2.0,12.0,0.8310546875,-0.27392578125,0.44580078125,-1.0365853658536586,18.04878048780488,1.3414634146341464
17_02_17_866,0.0,-2.0,5.0,-3.0,4.0,-1.0,-1.0,-5.0,0.83203125,-0.28759765625,0.43896484375,-3.8414634146341466,19.085365853658537,0.853658536585366
17_02_17_914,0.0,1.0,9.0,2.0,0.0,0.0,-4.0,-1.0,0.958984375,-0.265625,0.48095703125,-5.914634146341464,-9.695121951219512,-32.43902439024391
17_02_17_914,-2.0,1.0,-4.0,3.0,3.0,1.0,2.0,11.0,0.84375,-0.232421875,0.49609375,1.2804878048780488,-1.402439024390244,-26.89024390243903
17_02_17_914,17.0,1.0,-9.0,-3.0,-3.0,-10.0,0.0,-9.0,0.73095703125,-0.1826171875,0.498046875,6.341463414634147,4.51219512195122,-15.79268292682927
17_02_17_914,-1.0,4.0,-1.0,-4.0,-3.0,-9.0,-13.0,9.0,0.73388671875,-0.18359375,0.48486328125,7.195121951219513,5.121951219512195,-11.158536585365855
17_02_17_914,-2.0,-8.0,-36.0,-11.0,-9.0,2.0,3.0,-5.0,0.7529296875,-0.20263671875,0.47509765625,7.560975609756098,6.341463414634147,-7.073170731707318
17_02_17_914,1.0,2.0,25.0,5.0,-2.0,-11.0,-5.0,0.0,0.77294921875,-0.21533203125,0.47119140625,6.707317073170732,8.170731707317074,-4.634146341463415
17_02_17_914,-5.0,-4.0,-22.0,-3.0,0.0,4.0,0.0,-2.0,0.79541015625,-0.22607421875,0.47314453125,5.853658536585367,9.207317073170733,-2.682926829268293
17_02_17_914,-5.0,1.0,4.0,6.0,-3.0,-7.0,-8.0,-5.0,0.80908203125,-0.24267578125,0.478515625,3.8414634146341466,11.28048780487805,-1.6463414634146343
17_02_17_914,-2.0,-8.0,-32.0,-6.0,-1.0,-4.0,-3.0,-1.0,0.81298828125,-0.2431640625,0.46728515625,3.414634146341464,12.80487804878049,0.0
17_02_17_914,0.0,1.0,12.0,2.0,3.0,3.0,2.0,7.0,0.8173828125,-0.25732421875,0.46240234375,2.987804878048781,14.939024390243905,1.0365853658536586
17_02_17_974,0.0,1.0,9.0,2.0,0.0,0.0,-4.0,-1.0,0.73095703125,-0.1826171875,0.498046875,6.341463414634147,4.51219512195122,-15.79268292682927
17_02_17_974,-2.0,1.0,-4.0,3.0,3.0,1.0,2.0,11.0,0.73388671875,-0.18359375,0.48486328125,7.195121951219513,5.121951219512195,-11.158536585365855
17_02_17_974,17.0,1.0,-9.0,-3.0,-3.0,-10.0,0.0,-9.0,0.7529296875,-0.20263671875,0.47509765625,7.560975609756098,6.341463414634147,-7.073170731707318
17_02_17_974,-1.0,4.0,-1.0,-4.0,-3.0,-9.0,-13.0,9.0,0.77294921875,-0.21533203125,0.47119140625,6.707317073170732,8.170731707317074,-4.634146341463415
17_02_17_974,-2.0,-8.0,-36.0,-11.0,-9.0,2.0,3.0,-5.0,0.79541015625,-0.22607421875,0.47314453125,5.853658536585367,9.207317073170733,-2.682926829268293
17_02_17_974,1.0,2.0,25.0,5.0,-2.0,-11.0,-5.0,0.0,0.80908203125,-0.24267578125,0.478515625,3.8414634146341466,11.28048780487805,-1.6463414634146343
17_02_17_974,-5.0,-4.0,-22.0,-3.0,0.0,4.0,0.0,-2.0,0.81298828125,-0.2431640625,0.46728515625,3.414634146341464,12.80487804878049,0.0
17_02_17_974,-5.0,1.0,4.0,6.0,-3.0,-7.0,-8.0,-5.0,0.8173828125,-0.25732421875,0.46240234375,2.987804878048781,14.939024390243905,1.0365853658536586
17_02_18_022,-3.0,-5.0,5.0,-7.0,-5.0,-4.0,-16.0,0.0,0.77880859375,-0.19580078125,0.40380859375,-23.170731707317074,-21.28048780487805,-29.207317073170735
17_02_18_022,-1.0,1.0,5.0,2.0,0.0,-2.0,5.0,-2.0,0.84326171875,-0.12353515625,0.478515625,-25.975609756097562,-20.48780487804878,-34.32926829268293
17_02_18_022,-9.0,-28.0,-81.0,-20.0,-13.0,-17.0,-9.0,-6.0,0.92578125,-0.20703125,0.48583984375,-13.841463414634148,-16.951219512195124,-35.243902439024396
17_02_18_022,-3.0,8.0,38.0,12.0,0.0,4.0,-4.0,0.0,0.958984375,-0.265625,0.48095703125,-5.914634146341464,-9.695121951219512,-32.43902439024391
17_02_18_022,2.0,0.0,-18.0,-1.0,2.0,11.0,-6.0,1.0,0.84375,-0.232421875,0.49609375,1.2804878048780488,-1.402439024390244,-26.89024390243903
17_02_18_022,3.0,3.0,9.0,0.0,-2.0,-3.0,-2.0,-1.0,0.73095703125,-0.1826171875,0.498046875,6.341463414634147,4.51219512195122,-15.79268292682927
17_02_18_022,-3.0,-5.0,4.0,3.0,-2.0,5.0,0.0,0.0,0.73388671875,-0.18359375,0.48486328125,7.195121951219513,5.121951219512195,-11.158536585365855
17_02_18_022,3.0,-1.0,-14.0,-2.0,-2.0,-14.0,-1.0,2.0,0.7529296875,-0.20263671875,0.47509765625,7.560975609756098,6.341463414634147,-7.073170731707318
17_02_18_022,5.0,1.0,1.0,-2.0,3.0,-1.0,-3.0,3.0,0.77294921875,-0.21533203125,0.47119140625,6.707317073170732,8.170731707317074,-4.634146341463415
17_02_18_022,-9.0,4.0,3.0,-2.0,-2.0,-7.0,1.0,-7.0,0.79541015625,-0.22607421875,0.47314453125,5.853658536585367,9.207317073170733,-2.682926829268293
17_02_18_076,0.0,3.0,-5.0,-2.0,-1.0,-4.0,-1.0,11.0,0.82666015625,-0.197265625,0.39453125,-6.707317073170732,-19.207317073170735,-28.170731707317074
17_02_18_076,-7.0,-3.0,-23.0,-4.0,-5.0,-11.0,3.0,-12.0,0.77880859375,-0.19580078125,0.40380859375,-23.170731707317074,-21.28048780487805,-29.207317073170735
17_02_18_076,-4.0,0.0,9.0,-5.0,-1.0,3.0,-1.0,3.0,0.84326171875,-0.12353515625,0.478515625,-25.975609756097562,-20.48780487804878,-34.32926829268293
17_02_18_076,6.0,5.0,10.0,1.0,7.0,37.0,17.0,1.0,0.92578125,-0.20703125,0.48583984375,-13.841463414634148,-16.951219512195124,-35.243902439024396
17_02_18_076,1.0,-2.0,-12.0,-3.0,-1.0,-15.0,-7.0,24.0,0.958984375,-0.265625,0.48095703125,-5.914634146341464,-9.695121951219512,-32.43902439024391
17_02_18_076,4.0,8.0,19.0,4.0,-1.0,-7.0,-3.0,0.0,0.84375,-0.232421875,0.49609375,1.2804878048780488,-1.402439024390244,-26.89024390243903
17_02_18_076,4.0,-6.0,-20.0,-7.0,-3.0,-3.0,-6.0,12.0,0.73095703125,-0.1826171875,0.498046875,6.341463414634147,4.51219512195122,-15.79268292682927
17_02_18_076,-17.0,-5.0,-8.0,-1.0,0.0,-3.0,-7.0,-17.0,0.73388671875,-0.18359375,0.48486328125,7.195121951219513,5.121951219512195,-11.158536585365855
17_02_18_076,1.0,-9.0,-9.0,-2.0,1.0,26.0,17.0,10.0,0.7529296875,-0.20263671875,0.47509765625,7.560975609756098,6.341463414634147,-7.073170731707318
17_02_18_123,2.0,2.0,3.0,1.0,3.0,0.0,-5.0,-4.0,0.884765625,-0.1015625,0.390625,7.500000000000001,-19.695121951219512,-25.182926829268293
17_02_18_123,-6.0,-8.0,-11.0,-7.0,-4.0,-9.0,5.0,-3.0,0.8623046875,-0.17822265625,0.38818359375,8.048780487804878,-20.121951219512198,-26.76829268292683
17_02_18_123,2.0,0.0,1.0,-1.0,-1.0,-5.0,-8.0,-4.0,0.82666015625,-0.197265625,0.39453125,-6.707317073170732,-19.207317073170735,-28.170731707317074
17_02_18_123,-2.0,3.0,2.0,2.0,4.0,12.0,1.0,-1.0,0.77880859375,-0.19580078125,0.40380859375,-23.170731707317074,-21.28048780487805,-29.207317073170735
17_02_18_123,2.0,3.0,4.0,-10.0,-3.0,-3.0,10.0,-7.0,0.84326171875,-0.12353515625,0.478515625,-25.975609756097562,-20.48780487804878,-34.32926829268293
17_02_18_123,-1.0,-9.0,-2.0,2.0,-3.0,-6.0,1.0,9.0,0.92578125,-0.20703125,0.48583984375,-13.841463414634148,-16.951219512195124,-35.243902439024396
17_02_18_123,2.0,3.0,5.0,-2.0,-3.0,-2.0,-2.0,-3.0,0.958984375,-0.265625,0.48095703125,-5.914634146341464,-9.695121951219512,-32.43902439024391
17_02_18_123,-4.0,-4.0,4.0,2.0,-3.0,-3.0,1.0,-6.0,0.84375,-0.232421875,0.49609375,1.2804878048780488,-1.402439024390244,-26.89024390243903
17_02_18_123,0.0,3.0,-5.0,-2.0,-1.0,-4.0,-1.0,11.0,0.73095703125,-0.1826171875,0.498046875,6.341463414634147,4.51219512195122,-15.79268292682927
17_02_18_176,-4.0,-1.0,-3.0,-1.0,-2.0,-4.0,-3.0,-10.0,0.89501953125,-0.185546875,0.4326171875,-21.463414634146343,-10.792682926829269,1.1585365853658538
17_02_18_176,1.0,-2.0,-1.0,-1.0,-1.0,-8.0,-1.0,-4.0,0.900390625,-0.1171875,0.3857421875,-35.426829268292686,-8.841463414634147,-4.024390243902439
17_02_18_176,-5.0,1.0,1.0,1.0,-1.0,8.0,-3.0,-8.0,0.92041015625,-0.02783203125,0.37451171875,-29.573170731707318,-12.01219512195122,-9.51219512195122
17_02_18_176,-1.0,0.0,-3.0,-9.0,-2.0,-10.0,2.0,1.0,0.92724609375,-0.0234375,0.35400390625,-13.475609756097562,-15.79268292682927,-15.30487804878049
17_02_18_176,0.0,-5.0,-8.0,-4.0,0.0,-1.0,4.0,-1.0,0.90673828125,-0.0478515625,0.37890625,2.1951219512195124,-19.634146341463417,-21.646341463414636
17_02_18_176,-1.0,3.0,18.0,8.0,2.0,5.0,2.0,2.0,0.884765625,-0.1015625,0.390625,7.500000000000001,-19.695121951219512,-25.182926829268293
17_02_18_176,-2.0,-1.0,5.0,0.0,-5.0,-6.0,-6.0,0.0,0.8623046875,-0.17822265625,0.38818359375,8.048780487804878,-20.121951219512198,-26.76829268292683
17_02_18_176,-7.0,-7.0,-5.0,-2.0,1.0,-2.0,0.0,-2.0,0.82666015625,-0.197265625,0.39453125,-6.707317073170732,-19.207317073170735,-28.170731707317074
17_02_18_176,-4.0,-1.0,-3.0,-1.0,-1.0,-4.0,-4.0,-1.0,0.77880859375,-0.19580078125,0.40380859375,-23.170731707317074,-21.28048780487805,-29.207317073170735
17_02_18_253,3.0,1.0,-17.0,1.0,-2.0,-4.0,0.0,-4.0,0.89501953125,-0.185546875,0.4326171875,-21.463414634146343,-10.792682926829269,1.1585365853658538
17_02_18_253,1.0,5.0,12.0,0.0,-1.0,-3.0,-5.0,-3.0,0.900390625,-0.1171875,0.3857421875,-35.426829268292686,-8.841463414634147,-4.024390243902439
17_02_18_253,-4.0,-1.0,-3.0,-1.0,-2.0,-4.0,-3.0,-10.0,0.92041015625,-0.02783203125,0.37451171875,-29.573170731707318,-12.01219512195122,-9.51219512195122
17_02_18_253,1.0,-2.0,-1.0,-1.0,-1.0,-8.0,-1.0,-4.0,0.92724609375,-0.0234375,0.35400390625,-13.475609756097562,-15.79268292682927,-15.30487804878049
17_02_18_253,-5.0,1.0,1.0,1.0,-1.0,8.0,-3.0,-8.0,0.90673828125,-0.0478515625,0.37890625,2.1951219512195124,-19.634146341463417,-21.646341463414636
17_02_18_253,-1.0,0.0,-3.0,-9.0,-2.0,-10.0,2.0,1.0,0.884765625,-0.1015625,0.390625,7.500000000000001,-19.695121951219512,-25.182926829268293
17_02_18_253,0.0,-5.0,-8.0,-4.0,0.0,-1.0,4.0,-1.0,0.8623046875,-0.17822265625,0.38818359375,8.048780487804878,-20.121951219512198,-26.76829268292683
17_02_18_253,-1.0,3.0,18.0,8.0,2.0,5.0,2.0,2.0,0.82666015625,-0.197265625,0.39453125,-6.707317073170732,-19.207317073170735,-28.170731707317074
17_02_18_253,-2.0,-1.0,5.0,0.0,-5.0,-6.0,-6.0,0.0,0.77880859375,-0.19580078125,0.40380859375,-23.170731707317074,-21.28048780487805,-29.207317073170735
17_02_18_309,0.0,-1.0,1.0,-3.0,-1.0,-5.0,0.0,-4.0,0.87548828125,-0.02978515625,0.4208984375,-16.158536585365855,-13.78048780487805,-9.146341463414634
17_02_18_309,-1.0,1.0,0.0,-3.0,-5.0,-2.0,0.0,0.0,0.8642578125,0.02490234375,0.45166015625,-15.54878048780488,-12.073170731707318,-8.231707317073171
17_02_18_309,-2.0,-2.0,3.0,2.0,0.0,-3.0,-1.0,-4.0,0.86669921875,-0.033203125,0.41748046875,-8.475609756097562,-11.829268292682928,-1.2195121951219514
17_02_18_309,0.0,-5.0,1.0,0.0,-3.0,-5.0,1.0,1.0,0.89599609375,-0.0673828125,0.43896484375,5.853658536585367,-14.878048780487806,2.8658536585365857
17_02_18_309,-17.0,-1.0,-11.0,-8.0,0.0,-2.0,-4.0,-29.0,0.89208984375,-0.09765625,0.45263671875,7.500000000000001,-15.243902439024392,2.682926829268293
17_02_18_309,4.0,-7.0,3.0,3.0,-2.0,-1.0,1.0,10.0,0.89990234375,-0.1591796875,0.44677734375,-2.7439024390243905,-14.146341463414636,2.682926829268293
17_02_18_309,2.0,-1.0,5.0,1.0,0.0,-1.0,-2.0,-1.0,0.89501953125,-0.185546875,0.4326171875,-21.463414634146343,-10.792682926829269,1.1585365853658538
17_02_18_309,-3.0,0.0,-10.0,-2.0,-1.0,-4.0,-2.0,0.0,0.900390625,-0.1171875,0.3857421875,-35.426829268292686,-8.841463414634147,-4.024390243902439
17_02_18_309,-1.0,-1.0,2.0,1.0,-1.0,0.0,-1.0,0.0,0.92041015625,-0.02783203125,0.37451171875,-29.573170731707318,-12.01219512195122,-9.51219512195122
17_02_18_309,0.0,-3.0,-1.0,2.0,-2.0,1.0,-2.0,-1.0,0.92724609375,-0.0234375,0.35400390625,-13.475609756097562,-15.79268292682927,-15.30487804878049
17_02_18_355,0.0,4.0,3.0,2.0,4.0,13.0,2.0,0.0,0.8642578125,0.02490234375,0.45166015625,-15.54878048780488,-12.073170731707318,-8.231707317073171
17_02_18_355,0.0,-1.0,1.0,-3.0,-1.0,-5.0,0.0,-4.0,0.86669921875,-0.033203125,0.41748046875,-8.475609756097562,-11.829268292682928,-1.2195121951219514
17_02_18_355,-1.0,1.0,0.0,-3.0,-5.0,-2.0,0.0,0.0,0.89599609375,-0.0673828125,0.43896484375,5.853658536585367,-14.878048780487806,2.8658536585365857
17_02_18_355,-2.0,-2.0,3.0,2.0,0.0,-3.0,-1.0,-4.0,0.89208984375,-0.09765625,0.45263671875,7.500000000000001,-15.243902439024392,2.682926829268293
17_02_18_355,0.0,-5.0,1.0,0.0,-3.0,-5.0,1.0,1.0,0.89990234375,-0.1591796875,0.44677734375,-2.7439024390243905,-14.146341463414636,2.682926829268293
17_02_18_355,-17.0,-1.0,-11.0,-8.0,0.0,-2.0,-4.0,-29.0,0.89501953125,-0.185546875,0.4326171875,-21.463414634146343,-10.792682926829269,1.1585365853658538
17_02_18_355,4.0,-7.0,3.0,3.0,-2.0,-1.0,1.0,10.0,0.900390625,-0.1171875,0.3857421875,-35.426829268292686,-8.841463414634147,-4.024390243902439
17_02_18_355,2.0,-1.0,5.0,1.0,0.0,-1.0,-2.0,-1.0,0.92041015625,-0.02783203125,0.37451171875,-29.573170731707318,-12.01219512195122,-9.51219512195122
17_02_18_355,-3.0,0.0,-10.0,-2.0,-1.0,-4.0,-2.0,0.0,0.92724609375,-0.0234375,0.35400390625,-13.475609756097562,-15.79268292682927,-15.30487804878049
17_02_18_404,3.0,-2.0,2.0,1.0,-3.0,-7.0,-4.0,1.0,0.88818359375,-0.10498046875,0.3994140625,4.817073170731708,-13.475609756097562,-3.9024390243902443
17_02_18_404,2.0,-2.0,-3.0,-6.0,-3.0,-2.0,-1.0,1.0,0.8916015625,-0.10888671875,0.38427734375,0.426829268292683,-12.74390243902439,-4.51219512195122
17_02_18_404,-3.0,0.0,2.0,-2.0,4.0,0.0,-1.0,-2.0,0.89306640625,-0.10009765625,0.3896484375,-8.597560975609756,-11.036585365853659,-6.158536585365854
17_02_18_404,2.0,-1.0,-2.0,-5.0,-1.0,-1.0,-3.0,0.0,0.89453125,-0.08740234375,0.39990234375,-12.378048780487806,-12.256097560975611,-6.829268292682928
17_02_18_404,8.0,-2.0,0.0,-2.0,-2.0,-2.0,-2.0,-2.0,0.87548828125,-0.02978515625,0.4208984375,-16.158536585365855,-13.78048780487805,-9.146341463414634
17_02_18_404,4.0,6.0,7.0,3.0,3.0,-1.0,0.0,-3.0,0.8642578125,0.02490234375,0.45166015625,-15.54878048780488,-12.073170731707318,-8.231707317073171
17_02_18_404,1.0,0.0,0.0,0.0,2.0,0.0,1.0,-3.0,0.86669921875,-0.033203125,0.41748046875,-8.475609756097562,-11.829268292682928,-1.2195121951219514
17_02_18_404,-3.0,-6.0,0.0,-10.0,-3.0,-1.0,0.0,-1.0,0.89599609375,-0.0673828125,0.43896484375,5.853658536585367,-14.878048780487806,2.8658536585365857
17_02_18_404,1.0,1.0,7.0,4.0,-1.0,0.0,-4.0,2.0,0.89208984375,-0.09765625,0.45263671875,7.500000000000001,-15.243902439024392,2.682926829268293
17_02_18_404,-1.0,-1.0,0.0,-1.0,0.0,-5.0,-3.0,-3.0,0.89990234375,-0.1591796875,0.44677734375,-2.7439024390243905,-14.146341463414636,2.682926829268293
17_02_18_455,-4.0,-15.0,-10.0,-5.0,2.0,7.0,-2.0,-1.0,0.88671875,-0.10693359375,0.39111328125,5.060975609756098,-12.500000000000002,0.0
17_02_18_455,-4.0,2.0,0.0,5.0,3.0,2.0,6.0,-3.0,0.88623046875,-0.11767578125,0.38671875,4.51219512195122,-12.560975609756099,-2.5
17_02_18_455,-3.0,-5.0,-2.0,-4.0,-4.0,-6.0,0.0,-1.0,0.888671875,-0.09912109375,0.3896484375,6.890243902439025,-12.865853658536587,-3.658536585365854
17_02_18_455,-5.0,-2.0,0.0,-1.0,-5.0,-6.0,-7.0,-7.0,0.88818359375,-0.10498046875,0.3994140625,4.817073170731708,-13.475609756097562,-3.9024390243902443
17_02_18_455,4.0,0.0,-1.0,-1.0,-2.0,-4.0,-1.0,3.0,0.8916015625,-0.10888671875,0.38427734375,0.426829268292683,-12.74390243902439,-4.51219512195122
17_02_18_455,5.0,2.0,0.0,0.0,1.0,-4.0,-2.0,3.0,0.89306640625,-0.10009765625,0.3896484375,-8.597560975609756,-11.036585365853659,-6.158536585365854
17_02_18_455,-2.0,-1.0,-2.0,-1.0,5.0,27.0,1.0,-3.0,0.89453125,-0.08740234375,0.39990234375,-12.378048780487806,-12.256097560975611,-6.829268292682928
17_02_18_455,-3.0,1.0,-3.0,-1.0,-4.0,-10.0,0.0,-5.0,0.87548828125,-0.02978515625,0.4208984375,-16.158536585365855,-13.78048780487805,-9.146341463414634
17_02_18_455,1.0,3.0,1.0,-2.0,-3.0,1.0,0.0,-1.0,0.8642578125,0.02490234375,0.45166015625,-15.54878048780488,-12.073170731707318,-8.231707317073171
17_02_18_455,0.0,-1.0,-4.0,-6.0,-1.0,-1.0,0.0,-4.0,0.86669921875,-0.033203125,0.41748046875,-8.475609756097562,-11.829268292682928,-1.2195121951219514
17_02_18_510,0.0,3.0,2.0,1.0,-1.0,-5.0,1.0,1.0,0.88671875,-0.10693359375,0.39111328125,5.060975609756098,-12.500000000000002,0.0
17_02_18_510,-1.0,-5.0,-21.0,-4.0,-5.0,-6.0,-3.0,-1.0,0.88623046875,-0.11767578125,0.38671875,4.51219512195122,-12.560975609756099,-2.5
17_02_18_510,-1.0,2.0,7.0,0.0,-4.0,-2.0,1.0,0.0,0.888671875,-0.09912109375,0.3896484375,6.890243902439025,-12.865853658536587,-3.658536585365854
17_02_18_510,0.0,3.0,3.0,0.0,1.0,3.0,4.0,1.0,0.88818359375,-0.10498046875,0.3994140625,4.817073170731708,-13.475609756097562,-3.9024390243902443
17_02_18_510,-1.0,-4.0,-3.0,-1.0,0.0,0.0,0.0,-3.0,0.8916015625,-0.10888671875,0.38427734375,0.426829268292683,-12.74390243902439,-4.51219512195122
17_02_18_510,-4.0,-15.0,-10.0,-5.0,2.0,7.0,-2.0,-1.0,0.89306640625,-0.10009765625,0.3896484375,-8.597560975609756,-11.036585365853659,-6.158536585365854
17_02_18_510,-4.0,2.0,0.0,5.0,3.0,2.0,6.0,-3.0,0.89453125,-0.08740234375,0.39990234375,-12.378048780487806,-12.256097560975611,-6.829268292682928
17_02_18_510,-3.0,-5.0,-2.0,-4.0,-4.0,-6.0,0.0,-1.0,0.87548828125,-0.02978515625,0.4208984375,-16.158536585365855,-13.78048780487805,-9.146341463414634
17_02_18_510,-5.0,-2.0,0.0,-1.0,-5.0,-6.0,-7.0,-7.0,0.8642578125,0.02490234375,0.45166015625,-15.54878048780488,-12.073170731707318,-8.231707317073171
17_02_18_564,-2.0,1.0,-3.0,0.0,1.0,5.0,-3.0,0.0,0.91259765625,-0.10546875,0.35693359375,0.7926829268292683,-13.353658536585368,0.3658536585365854
17_02_18_564,-1.0,-4.0,-7.0,-4.0,-2.0,-1.0,-6.0,0.0,0.89306640625,-0.0947265625,0.359375,5.914634146341464,-15.30487804878049,-0.9146341463414634
17_02_18_564,1.0,4.0,4.0,6.0,5.0,2.0,4.0,-1.0,0.8876953125,-0.10400390625,0.3779296875,3.8414634146341466,-14.451219512195124,-1.829268292682927
17_02_18_564,-2.0,2.0,12.0,0.0,-5.0,4.0,-21.0,-1.0,0.89111328125,-0.103515625,0.37939453125,5.365853658536586,-12.439024390243903,-0.7317073170731708
17_02_18_564,3.0,4.0,41.0,3.0,-1.0,-5.0,-1.0,0.0,0.88671875,-0.10693359375,0.39111328125,5.060975609756098,-12.500000000000002,0.0
17_02_18_564,-1.0,3.0,-32.0,1.0,2.0,2.0,-2.0,-1.0,0.88623046875,-0.11767578125,0.38671875,4.51219512195122,-12.560975609756099,-2.5
17_02_18_564,2.0,4.0,1.0,1.0,-3.0,-4.0,4.0,4.0,0.888671875,-0.09912109375,0.3896484375,6.890243902439025,-12.865853658536587,-3.658536585365854
17_02_18_564,3.0,-1.0,3.0,-1.0,1.0,-3.0,1.0,6.0,0.88818359375,-0.10498046875,0.3994140625,4.817073170731708,-13.475609756097562,-3.9024390243902443
17_02_18_564,-3.0,-8.0,-4.0,-3.0,0.0,2.0,1.0,-7.0,0.8916015625,-0.10888671875,0.38427734375,0.426829268292683,-12.74390243902439,-4.51219512195122
17_02_18_564,3.0,-6.0,-5.0,3.0,2.0,13.0,14.0,10.0,0.89306640625,-0.10009765625,0.3896484375,-8.597560975609756,-11.036585365853659,-6.158536585365854
17_02_18_607,3.0,5.0,1.0,2.0,-1.0,-5.0,-5.0,-2.0,0.888671875,-0.15087890625,0.3369140625,1.707317073170732,-13.170731707317074,3.9024390243902443
17_02_18_607,0.0,-1.0,2.0,1.0,-1.0,-4.0,2.0,-2.0,0.91796875,-0.12890625,0.33984375,-1.9512195121951221,-13.597560975609758,2.5
17_02_18_607,2.0,2.0,-4.0,1.0,-2.0,-1.0,-6.0,-2.0,0.91259765625,-0.10546875,0.35693359375,0.7926829268292683,-13.353658536585368,0.3658536585365854
17_02_18_607,-1.0,2.0,5.0,0.0,-3.0,-7.0,-1.0,1.0,0.89306640625,-0.0947265625,0.359375,5.914634146341464,-15.30487804878049,-0.9146341463414634
17_02_18_607,0.0,1.0,-1.0,3.0,2.0,17.0,4.0,0.0,0.8876953125,-0.10400390625,0.3779296875,3.8414634146341466,-14.451219512195124,-1.829268292682927
17_02_18_607,-3.0,-5.0,-5.0,-2.0,-2.0,-11.0,-3.0,0.0,0.89111328125,-0.103515625,0.37939453125,5.365853658536586,-12.439024390243903,-0.7317073170731708
17_02_18_607,-2.0,1.0,-3.0,0.0,1.0,5.0,-3.0,0.0,0.88671875,-0.10693359375,0.39111328125,5.060975609756098,-12.500000000000002,0.0
17_02_18_607,-1.0,-4.0,-7.0,-4.0,-2.0,-1.0,-6.0,0.0,0.88623046875,-0.11767578125,0.38671875,4.51219512195122,-12.560975609756099,-2.5
17_02_18_607,1.0,4.0,4.0,6.0,5.0,2.0,4.0,-1.0,0.888671875,-0.09912109375,0.3896484375,6.890243902439025,-12.865853658536587,-3.658536585365854
17_02_18_607,-2.0,2.0,12.0,0.0,-5.0,4.0,-21.0,-1.0,0.88818359375,-0.10498046875,0.3994140625,4.817073170731708,-13.475609756097562,-3.9024390243902443
17_02_18_664,11.0,-8.0,-14.0,-6.0,25.0,107.0,83.0,34.0,0.95654296875,-0.16748046875,0.35693359375,-0.06097560975609757,-18.353658536585368,0.7926829268292683
17_02_18_664,1.0,9.0,15.0,5.0,-9.0,-53.0,-21.0,-6.0,0.89892578125,-0.1552734375,0.34130859375,7.01219512195122,-15.426829268292684,3.780487804878049
17_02_18_664,-17.0,-8.0,4.0,1.0,-1.0,-2.0,5.0,-3.0,0.91064453125,-0.146484375,0.33544921875,4.939024390243903,-14.51219512195122,3.4756097560975614
17_02_18_664,3.0,0.0,-18.0,-13.0,-6.0,-8.0,-17.0,-1.0,0.888671875,-0.15087890625,0.3369140625,1.707317073170732,-13.170731707317074,3.9024390243902443
17_02_18_664,2.0,1.0,8.0,6.0,4.0,-1.0,2.0,-1.0,0.91796875,-0.12890625,0.33984375,-1.9512195121951221,-13.597560975609758,2.5
17_02_18_664,2.0,2.0,-1.0,1.0,-1.0,3.0,3.0,2.0,0.91259765625,-0.10546875,0.35693359375,0.7926829268292683,-13.353658536585368,0.3658536585365854
17_02_18_664,1.0,4.0,0.0,-2.0,-5.0,-3.0,-3.0,2.0,0.89306640625,-0.0947265625,0.359375,5.914634146341464,-15.30487804878049,-0.9146341463414634
17_02_18_664,5.0,5.0,2.0,-3.0,-2.0,-3.0,-1.0,4.0,0.8876953125,-0.10400390625,0.3779296875,3.8414634146341466,-14.451219512195124,-1.829268292682927
17_02_18_664,-9.0,-9.0,-8.0,-7.0,-2.0,-3.0,-4.0,-7.0,0.89111328125,-0.103515625,0.37939453125,5.365853658536586,-12.439024390243903,-0.7317073170731708
17_02_18_664,-9.0,-15.0,-9.0,-4.0,-8.0,-1.0,-4.0,-5.0,0.88671875,-0.10693359375,0.39111328125,5.060975609756098,-12.500000000000002,0.0
17_02_18_715,15.0,2.0,-1.0,0.0,-11.0,-23.0,-29.0,-7.0,0.9765625,-0.17041015625,0.353515625,-3.1097560975609757,-18.902439024390244,-0.5487804878048781
17_02_18_715,-12.0,-6.0,-2.0,3.0,-1.0,5.0,0.0,2.0,0.9677734375,-0.1708984375,0.3515625,-0.12195121951219513,-21.158536585365855,-2.6219512195121952
17_02_18_715,8.0,-1.0,-2.0,-3.0,3.0,10.0,8.0,-7.0,0.95654296875,-0.16748046875,0.35693359375,-0.06097560975609757,-18.353658536585368,0.7926829268292683
17_02_18_715,9.0,5.0,5.0,-3.0,0.0,-5.0,3.0,10.0,0.89892578125,-0.1552734375,0.34130859375,7.01219512195122,-15.426829268292684,3.780487804878049
17_02_18_715,-35.0,-6.0,-1.0,-4.0,-4.0,-3.0,-8.0,-12.0,0.91064453125,-0.146484375,0.33544921875,4.939024390243903,-14.51219512195122,3.4756097560975614
17_02_18_715,-13.0,-2.0,-7.0,-1.0,-3.0,-4.0,-4.0,1.0,0.888671875,-0.15087890625,0.3369140625,1.707317073170732,-13.170731707317074,3.9024390243902443
17_02_18_715,13.0,2.0,2.0,2.0,-2.0,0.0,1.0,7.0,0.91796875,-0.12890625,0.33984375,-1.9512195121951221,-13.597560975609758,2.5
17_02_18_715,-4.0,1.0,-3.0,3.0,-4.0,0.0,-3.0,-5.0,0.91259765625,-0.10546875,0.35693359375,0.7926829268292683,-13.353658536585368,0.3658536585365854
17_02_18_715,1.0,1.0,1.0,0.0,-1.0,-4.0,1.0,-6.0,0.89306640625,-0.0947265625,0.359375,5.914634146341464,-15.30487804878049,-0.9146341463414634
17_02_18_715,-4.0,2.0,-2.0,0.0,-2.0,0.0,0.0,-6.0,0.8876953125,-0.10400390625,0.3779296875,3.8414634146341466,-14.451219512195124,-1.829268292682927
17_02_18_779,4.0,5.0,2.0,4.0,5.0,0.0,-2.0,-1.0,0.9765625,-0.17041015625,0.353515625,-3.1097560975609757,-18.902439024390244,-0.5487804878048781
17_02_18_779,-3.0,-2.0,1.0,-6.0,-2.0,16.0,14.0,-13.0,0.9677734375,-0.1708984375,0.3515625,-0.12195121951219513,-21.158536585365855,-2.6219512195121952
17_02_18_779,15.0,2.0,-1.0,0.0,-11.0,-23.0,-29.0,-7.0,0.95654296875,-0.16748046875,0.35693359375,-0.06097560975609757,-18.353658536585368,0.7926829268292683
17_02_18_779,-12.0,-6.0,-2.0,3.0,-1.0,5.0,0.0,2.0,0.89892578125,-0.1552734375,0.34130859375,7.01219512195122,-15.426829268292684,3.780487804878049
17_02_18_779,8.0,-1.0,-2.0,-3.0,3.0,10.0,8.0,-7.0,0.91064453125,-0.146484375,0.33544921875,4.939024390243903,-14.51219512195122,3.4756097560975614
17_02_18_779,9.0,5.0,5.0,-3.0,0.0,-5.0,3.0,10.0,0.888671875,-0.15087890625,0.3369140625,1.707317073170732,-13.170731707317074,3.9024390243902443
17_02_18_779,-35.0,-6.0,-1.0,-4.0,-4.0,-3.0,-8.0,-12.0,0.91796875,-0.12890625,0.33984375,-1.9512195121951221,-13.597560975609758,2.5
17_02_18_779,-13.0,-2.0,-7.0,-1.0,-3.0,-4.0,-4.0,1.0,0.91259765625,-0.10546875,0.35693359375,0.7926829268292683,-13.353658536585368,0.3658536585365854
17_02_18_779,13.0,2.0,2.0,2.0,-2.0,0.0,1.0,7.0,0.89306640625,-0.0947265625,0.359375,5.914634146341464,-15.30487804878049,-0.9146341463414634
17_02_18_779,-4.0,1.0,-3.0,3.0,-4.0,0.0,-3.0,-5.0,0.8876953125,-0.10400390625,0.3779296875,3.8414634146341466,-14.451219512195124,-1.829268292682927
17_02_18_825,8.0,0.0,0.0,3.0,-2.0,-3.0,2.0,-1.0,0.93994140625,-0.15478515625,0.3466796875,-4.329268292682928,-14.817073170731708,2.804878048780488
17_02_18_825,-3.0,0.0,3.0,-7.0,-12.0,-5.0,-5.0,-4.0,0.9765625,-0.17041015625,0.353515625,-3.1097560975609757,-18.902439024390244,-0.5487804878048781
17_02_18_825,-4.0,1.0,6.0,3.0,0.0,-2.0,-4.0,-1.0,0.9677734375,-0.1708984375,0.3515625,-0.12195121951219513,-21.158536585365855,-2.6219512195121952
17_02_18_825,-2.0,0.0,-5.0,-1.0,0.0,-6.0,-1.0,1.0,0.95654296875,-0.16748046875,0.35693359375,-0.06097560975609757,-18.353658536585368,0.7926829268292683
17_02_18_825,-1.0,-5.0,3.0,0.0,1.0,-5.0,-6.0,1.0,0.89892578125,-0.1552734375,0.34130859375,7.01219512195122,-15.426829268292684,3.780487804878049
17_02_18_825,4.0,2.0,2.0,2.0,-4.0,-8.0,-6.0,2.0,0.91064453125,-0.146484375,0.33544921875,4.939024390243903,-14.51219512195122,3.4756097560975614
17_02_18_825,-12.0,-7.0,-6.0,-5.0,0.0,6.0,2.0,-15.0,0.888671875,-0.15087890625,0.3369140625,1.707317073170732,-13.170731707317074,3.9024390243902443
17_02_18_825,-10.0,-5.0,-2.0,0.0,2.0,-5.0,-2.0,12.0,0.91796875,-0.12890625,0.33984375,-1.9512195121951221,-13.597560975609758,2.5
17_02_18_825,4.0,1.0,-4.0,1.0,-4.0,-17.0,4.0,9.0,0.91259765625,-0.10546875,0.35693359375,0.7926829268292683,-13.353658536585368,0.3658536585365854
17_02_18_881,-3.0,-1.0,-1.0,-10.0,-1.0,0.0,-3.0,-3.0,0.91552734375,-0.08154296875,0.236328125,13.29268292682927,-7.560975609756098,16.463414634146343
17_02_18_881,-5.0,0.0,-4.0,-10.0,-12.0,-1.0,7.0,-5.0,0.90576171875,-0.09375,0.26806640625,16.158536585365855,-8.292682926829269,16.03658536585366
17_02_18_881,-30.0,-6.0,0.0,16.0,15.0,6.0,1.0,-11.0,0.92333984375,-0.08154296875,0.2607421875,17.682926829268293,-9.51219512195122,12.987804878048781
17_02_18_881,33.0,7.0,3.0,-4.0,-2.0,-9.0,3.0,13.0,0.91943359375,-0.14306640625,0.3359375,-3.8414634146341466,-11.890243902439025,4.329268292682928
17_02_18_881,3.0,-3.0,-1.0,-5.0,-13.0,-6.0,-1.0,-1.0,0.93994140625,-0.15478515625,0.3466796875,-4.329268292682928,-14.817073170731708,2.804878048780488
17_02_18_881,-9.0,0.0,0.0,3.0,0.0,1.0,-2.0,-10.0,0.9765625,-0.17041015625,0.353515625,-3.1097560975609757,-18.902439024390244,-0.5487804878048781
17_02_18_881,1.0,-1.0,0.0,0.0,-6.0,-4.0,-3.0,-3.0,0.9677734375,-0.1708984375,0.3515625,-0.12195121951219513,-21.158536585365855,-2.6219512195121952
17_02_18_881,0.0,-5.0,-3.0,4.0,0.0,-4.0,-3.0,-3.0,0.95654296875,-0.16748046875,0.35693359375,-0.06097560975609757,-18.353658536585368,0.7926829268292683
17_02_18_881,-5.0,1.0,-3.0,0.0,-2.0,-7.0,-6.0,0.0,0.89892578125,-0.1552734375,0.34130859375,7.01219512195122,-15.426829268292684,3.780487804878049
17_02_18_881,10.0,5.0,0.0,1.0,0.0,-8.0,-3.0,7.0,0.91064453125,-0.146484375,0.33544921875,4.939024390243903,-14.51219512195122,3.4756097560975614
17_02_18_928,-6.0,-6.0,-5.0,-13.0,9.0,-4.0,-4.0,-6.0,0.939453125,-0.10400390625,0.25244140625,9.26829268292683,-7.682926829268293,15.243902439024392
17_02_18_928,5.0,-2.0,1.0,1.0,-18.0,-4.0,-5.0,0.0,0.91552734375,-0.08154296875,0.236328125,13.29268292682927,-7.560975609756098,16.463414634146343
17_02_18_928,0.0,-2.0,-1.0,19.0,5.0,6.0,3.0,-3.0,0.90576171875,-0.09375,0.26806640625,16.158536585365855,-8.292682926829269,16.03658536585366
17_02_18_928,0.0,-1.0,-2.0,-4.0,-7.0,-11.0,-16.0,-10.0,0.92333984375,-0.08154296875,0.2607421875,17.682926829268293,-9.51219512195122,12.987804878048781
17_02_18_928,-3.0,-1.0,-1.0,-10.0,-1.0,0.0,-3.0,-3.0,0.91943359375,-0.14306640625,0.3359375,-3.8414634146341466,-11.890243902439025,4.329268292682928
17_02_18_928,-5.0,0.0,-4.0,-10.0,-12.0,-1.0,7.0,-5.0,0.93994140625,-0.15478515625,0.3466796875,-4.329268292682928,-14.817073170731708,2.804878048780488
17_02_18_928,-30.0,-6.0,0.0,16.0,15.0,6.0,1.0,-11.0,0.9765625,-0.17041015625,0.353515625,-3.1097560975609757,-18.902439024390244,-0.5487804878048781
17_02_18_928,33.0,7.0,3.0,-4.0,-2.0,-9.0,3.0,13.0,0.9677734375,-0.1708984375,0.3515625,-0.12195121951219513,-21.158536585365855,-2.6219512195121952
17_02_18_928,3.0,-3.0,-1.0,-5.0,-13.0,-6.0,-1.0,-1.0,0.95654296875,-0.16748046875,0.35693359375,-0.06097560975609757,-18.353658536585368,0.7926829268292683
17_02_18_928,-9.0,0.0,0.0,3.0,0.0,1.0,-2.0,-10.0,0.89892578125,-0.1552734375,0.34130859375,7.01219512195122,-15.426829268292684,3.780487804878049
17_02_18_979,-3.0,0.0,0.0,-5.0,2.0,5.0,-5.0,-2.0,0.93359375,-0.2099609375,0.34423828125,-9.146341463414634,2.5609756097560976,13.902439024390246
17_02_18_979,-9.0,-1.0,-2.0,-4.0,3.0,6.0,-17.0,-9.0,0.92236328125,-0.21533203125,0.35693359375,-17.31707317073171,2.804878048780488,14.451219512195124
17_02_18_979,-6.0,0.0,2.0,-8.0,-24.0,-4.0,4.0,-2.0,0.923828125,-0.1748046875,0.31884765625,-22.865853658536587,5.365853658536586,22.5609756097561
17_02_18_979,-2.0,-2.0,-4.0,14.0,41.0,7.0,7.0,-2.0,0.98974609375,-0.09228515625,0.23779296875,-2.1951219512195124,-1.6463414634146343,22.926829268292686
17_02_18_979,-5.0,0.0,2.0,-8.0,-22.0,-8.0,5.0,-4.0,0.9765625,-0.09228515625,0.24365234375,9.329268292682928,-6.402439024390245,18.78048780487805
17_02_18_979,-7.0,-2.0,-6.0,3.0,3.0,2.0,2.0,4.0,0.939453125,-0.10400390625,0.25244140625,9.26829268292683,-7.682926829268293,15.243902439024392
17_02_18_979,6.0,-6.0,-6.0,-4.0,1.0,-1.0,-6.0,4.0,0.91552734375,-0.08154296875,0.236328125,13.29268292682927,-7.560975609756098,16.463414634146343
17_02_18_979,-4.0,-3.0,3.0,-2.0,0.0,6.0,22.0,0.0,0.90576171875,-0.09375,0.26806640625,16.158536585365855,-8.292682926829269,16.03658536585366
17_02_18_979,-2.0,-1.0,-1.0,-1.0,-6.0,-5.0,-5.0,3.0,0.92333984375,-0.08154296875,0.2607421875,17.682926829268293,-9.51219512195122,12.987804878048781
17_02_18_979,-42.0,1.0,0.0,0.0,-3.0,-10.0,-10.0,-5.0,0.91943359375,-0.14306640625,0.3359375,-3.8414634146341466,-11.890243902439025,4.329268292682928
17_02_19_035,13.0,-2.0,-10.0,-10.0,-5.0,39.0,-3.0,-1.0,0.93359375,-0.2099609375,0.34423828125,-9.146341463414634,2.5609756097560976,13.902439024390246
17_02_19_035,6.0,-2.0,-5.0,-3.0,-11.0,-37.0,13.0,18.0,0.92236328125,-0.21533203125,0.35693359375,-17.31707317073171,2.804878048780488,14.451219512195124
17_02_19_035,-3.0,0.0,0.0,-5.0,2.0,5.0,-5.0,-2.0,0.923828125,-0.1748046875,0.31884765625,-22.865853658536587,5.365853658536586,22.5609756097561
17_02_19_035,-9.0,-1.0,-2.0,-4.0,3.0,6.0,-17.0,-9.0,0.98974609375,-0.09228515625,0.23779296875,-2.1951219512195124,-1.6463414634146343,22.926829268292686
17_02_19_035,-6.0,0.0,2.0,-8.0,-24.0,-4.0,4.0,-2.0,0.9765625,-0.09228515625,0.24365234375,9.329268292682928,-6.402439024390245,18.78048780487805
17_02_19_035,-2.0,-2.0,-4.0,14.0,41.0,7.0,7.0,-2.0,0.939453125,-0.10400390625,0.25244140625,9.26829268292683,-7.682926829268293,15.243902439024392
17_02_19_035,-5.0,0.0,2.0,-8.0,-22.0,-8.0,5.0,-4.0,0.91552734375,-0.08154296875,0.236328125,13.29268292682927,-7.560975609756098,16.463414634146343
17_02_19_035,-7.0,-2.0,-6.0,3.0,3.0,2.0,2.0,4.0,0.90576171875,-0.09375,0.26806640625,16.158536585365855,-8.292682926829269,16.03658536585366
17_02_19_035,6.0,-6.0,-6.0,-4.0,1.0,-1.0,-6.0,4.0,0.92333984375,-0.08154296875,0.2607421875,17.682926829268293,-9.51219512195122,12.987804878048781
17_02_19_035,-4.0,-3.0,3.0,-2.0,0.0,6.0,22.0,0.0,0.91943359375,-0.14306640625,0.3359375,-3.8414634146341466,-11.890243902439025,4.329268292682928
17_02_19_078,-1.0,4.0,4.0,1.0,45.0,29.0,34.0,4.0,0.91015625,-0.1669921875,0.26513671875,-4.75609756097561,10.060975609756099,18.29268292682927
17_02_19_078,-6.0,-2.0,-5.0,16.0,30.0,-13.0,-9.0,-4.0,0.953125,-0.1708984375,0.28564453125,-2.439024390243903,6.890243902439025,17.743902439024392
17_02_19_078,-6.0,0.0,-4.0,23.0,30.0,23.0,13.0,1.0,0.93359375,-0.2099609375,0.34423828125,-9.146341463414634,2.5609756097560976,13.902439024390246
17_02_19_078,-4.0,1.0,5.0,-25.0,-28.0,-7.0,6.0,-6.0,0.92236328125,-0.21533203125,0.35693359375,-17.31707317073171,2.804878048780488,14.451219512195124
17_02_19_078,-5.0,-3.0,0.0,1.0,2.0,-11.0,-8.0,-5.0,0.923828125,-0.1748046875,0.31884765625,-22.865853658536587,5.365853658536586,22.5609756097561
17_02_19_078,9.0,2.0,3.0,6.0,9.0,10.0,7.0,4.0,0.98974609375,-0.09228515625,0.23779296875,-2.1951219512195124,-1.6463414634146343,22.926829268292686
17_02_19_078,11.0,4.0,-3.0,-4.0,1.0,2.0,14.0,13.0,0.9765625,-0.09228515625,0.24365234375,9.329268292682928,-6.402439024390245,18.78048780487805
17_02_19_078,-11.0,-1.0,1.0,20.0,0.0,1.0,15.0,0.0,0.939453125,-0.10400390625,0.25244140625,9.26829268292683,-7.682926829268293,15.243902439024392
17_02_19_078,-4.0,-5.0,-10.0,-16.0,-12.0,-27.0,-39.0,-7.0,0.91552734375,-0.08154296875,0.236328125,13.29268292682927,-7.560975609756098,16.463414634146343
17_02_19_078,-4.0,0.0,1.0,3.0,-1.0,-15.0,0.0,2.0,0.90576171875,-0.09375,0.26806640625,16.158536585365855,-8.292682926829269,16.03658536585366
17_02_19_138,-3.0,6.0,5.0,21.0,79.0,40.0,9.0,1.0,0.93994140625,-0.2119140625,0.287109375,-0.9756097560975611,9.390243902439025,16.951219512195124
17_02_19_138,-11.0,-2.0,-1.0,-13.0,-50.0,-34.0,-7.0,-6.0,0.92724609375,-0.265625,0.31591796875,-1.7682926829268295,5.182926829268293,13.414634146341465
17_02_19_138,-7.0,0.0,-1.0,-8.0,-10.0,4.0,3.0,-8.0,0.91015625,-0.1669921875,0.26513671875,-4.75609756097561,10.060975609756099,18.29268292682927
17_02_19_138,-7.0,-4.0,-1.0,-2.0,2.0,-26.0,7.0,-6.0,0.953125,-0.1708984375,0.28564453125,-2.439024390243903,6.890243902439025,17.743902439024392
17_02_19_138,1.0,1.0,-1.0,14.0,7.0,42.0,38.0,8.0,0.93359375,-0.2099609375,0.34423828125,-9.146341463414634,2.5609756097560976,13.902439024390246
17_02_19_138,2.0,-7.0,-4.0,-10.0,-16.0,-42.0,-60.0,-8.0,0.92236328125,-0.21533203125,0.35693359375,-17.31707317073171,2.804878048780488,14.451219512195124
17_02_19_138,-3.0,-1.0,1.0,-5.0,6.0,50.0,10.0,-4.0,0.923828125,-0.1748046875,0.31884765625,-22.865853658536587,5.365853658536586,22.5609756097561
17_02_19_138,-4.0,1.0,6.0,11.0,-29.0,-43.0,-53.0,-5.0,0.98974609375,-0.09228515625,0.23779296875,-2.1951219512195124,-1.6463414634146343,22.926829268292686
17_02_19_138,-1.0,4.0,4.0,1.0,45.0,29.0,34.0,4.0,0.9765625,-0.09228515625,0.24365234375,9.329268292682928,-6.402439024390245,18.78048780487805
17_02_19_138,-6.0,-2.0,-5.0,16.0,30.0,-13.0,-9.0,-4.0,0.939453125,-0.10400390625,0.25244140625,9.26829268292683,-7.682926829268293,15.243902439024392
17_02_19_186,0.0,1.0,1.0,6.0,-11.0,-5.0,5.0,-4.0,0.8916015625,-0.25830078125,0.34423828125,-8.170731707317074,7.560975609756098,14.207317073170733
17_02_19_186,1.0,-8.0,-5.0,0.0,8.0,-6.0,-18.0,2.0,0.9091796875,-0.24853515625,0.306640625,-8.78048780487805,8.292682926829269,16.158536585365855
17_02_19_186,-6.0,1.0,-6.0,-2.0,24.0,19.0,21.0,-8.0,0.93994140625,-0.2119140625,0.287109375,-0.9756097560975611,9.390243902439025,16.951219512195124
17_02_19_186,-1.0,-10.0,0.0,-12.0,-40.0,-30.0,-16.0,-7.0,0.92724609375,-0.265625,0.31591796875,-1.7682926829268295,5.182926829268293,13.414634146341465
17_02_19_186,-1.0,0.0,2.0,-2.0,-6.0,-32.0,-7.0,2.0,0.91015625,-0.1669921875,0.26513671875,-4.75609756097561,10.060975609756099,18.29268292682927
17_02_19_186,3.0,9.0,-6.0,-16.0,16.0,43.0,5.0,-4.0,0.953125,-0.1708984375,0.28564453125,-2.439024390243903,6.890243902439025,17.743902439024392
17_02_19_186,-5.0,-2.0,-3.0,-15.0,-34.0,-29.0,-18.0,-1.0,0.93359375,-0.2099609375,0.34423828125,-9.146341463414634,2.5609756097560976,13.902439024390246
17_02_19_186,-39.0,-3.0,-6.0,10.0,-5.0,-13.0,1.0,-8.0,0.92236328125,-0.21533203125,0.35693359375,-17.31707317073171,2.804878048780488,14.451219512195124
17_02_19_186,10.0,4.0,4.0,23.0,23.0,10.0,0.0,4.0,0.923828125,-0.1748046875,0.31884765625,-22.865853658536587,5.365853658536586,22.5609756097561
17_02_19_186,4.0,-4.0,-2.0,-17.0,-28.0,-13.0,-1.0,2.0,0.98974609375,-0.09228515625,0.23779296875,-2.1951219512195124,-1.6463414634146343,22.926829268292686
17_02_19_247,-4.0,-6.0,-7.0,-11.0,-24.0,1.0,6.0,-1.0,0.908203125,-0.2666015625,0.3271484375,2.9268292682926833,3.8414634146341466,9.878048780487806
17_02_19_247,-5.0,-2.0,3.0,-1.0,-5.0,-15.0,10.0,-7.0,0.9169921875,-0.28564453125,0.33544921875,-3.1707317073170733,4.451219512195122,9.02439024390244
17_02_19_247,-5.0,0.0,-4.0,-11.0,-23.0,-8.0,-7.0,-5.0,0.8916015625,-0.25830078125,0.34423828125,-8.170731707317074,7.560975609756098,14.207317073170733
17_02_19_247,-3.0,-4.0,-1.0,22.0,42.0,3.0,9.0,-3.0,0.9091796875,-0.24853515625,0.306640625,-8.78048780487805,8.292682926829269,16.158536585365855
17_02_19_247,-13.0,-3.0,-5.0,33.0,18.0,0.0,-5.0,-10.0,0.93994140625,-0.2119140625,0.287109375,-0.9756097560975611,9.390243902439025,16.951219512195124
17_02_19_247,1.0,2.0,7.0,-26.0,-37.0,-13.0,6.0,-2.0,0.92724609375,-0.265625,0.31591796875,-1.7682926829268295,5.182926829268293,13.414634146341465
17_02_19_247,19.0,6.0,8.0,2.0,-27.0,-21.0,-16.0,11.0,0.91015625,-0.1669921875,0.26513671875,-4.75609756097561,10.060975609756099,18.29268292682927
17_02_19_247,4.0,-3.0,-6.0,-3.0,39.0,33.0,0.0,-4.0,0.953125,-0.1708984375,0.28564453125,-2.439024390243903,6.890243902439025,17.743902439024392
17_02_19_247,-8.0,3.0,-3.0,-2.0,-7.0,-3.0,-17.0,-6.0,0.93359375,-0.2099609375,0.34423828125,-9.146341463414634,2.5609756097560976,13.902439024390246
17_02_19_247,-3.0,3.0,-1.0,6.0,-5.0,-17.0,1.0,-1.0,0.92236328125,-0.21533203125,0.35693359375,-17.31707317073171,2.804878048780488,14.451219512195124
17_02_19_287,-1.0,15.0,7.0,-10.0,31.0,60.0,-5.0,-3.0,0.8974609375,-0.2939453125,0.34423828125,4.695121951219512,-2.439024390243903,2.1341463414634148
17_02_19_287,-1.0,-4.0,-3.0,-11.0,-58.0,-53.0,-10.0,1.0,0.888671875,-0.296875,0.34912109375,0.5487804878048781,-1.1585365853658538,4.451219512195122
17_02_19_287,4.0,-4.0,-6.0,7.0,-27.0,-26.0,7.0,-10.0,0.89404296875,-0.267578125,0.3427734375,-0.3658536585365854,0.9146341463414634,6.951219512195123
17_02_19_287,17.0,8.0,12.0,-2.0,26.0,34.0,21.0,10.0,0.908203125,-0.2666015625,0.3271484375,2.9268292682926833,3.8414634146341466,9.878048780487806
17_02_19_287,-12.0,5.0,6.0,25.0,66.0,19.0,-2.0,-1.0,0.9169921875,-0.28564453125,0.33544921875,-3.1707317073170733,4.451219512195122,9.02439024390244
17_02_19_287,-8.0,-15.0,-21.0,-32.0,-63.0,-38.0,1.0,-3.0,0.8916015625,-0.25830078125,0.34423828125,-8.170731707317074,7.560975609756098,14.207317073170733
17_02_19_287,9.0,1.0,6.0,19.0,3.0,27.0,13.0,5.0,0.9091796875,-0.24853515625,0.306640625,-8.78048780487805,8.292682926829269,16.158536585365855
17_02_19_287,10.0,2.0,8.0,8.0,17.0,0.0,-16.0,8.0,0.93994140625,-0.2119140625,0.287109375,-0.9756097560975611,9.390243902439025,16.951219512195124
17_02_19_287,4.0,3.0,-1.0,3.0,6.0,23.0,13.0,7.0,0.92724609375,-0.265625,0.31591796875,-1.7682926829268295,5.182926829268293,13.414634146341465
17_02_19_287,-9.0,0.0,-5.0,8.0,20.0,-17.0,-38.0,-12.0,0.91015625,-0.1669921875,0.26513671875,-4.75609756097561,10.060975609756099,18.29268292682927
17_02_19_333,-31.0,-11.0,-8.0,7.0,24.0,-12.0,9.0,1.0,0.92626953125,-0.27001953125,0.3193359375,5.487804878048781,-0.48780487804878053,5.975609756097562
17_02_19_333,14.0,10.0,1.0,-8.0,-7.0,34.0,24.0,1.0,0.92041015625,-0.29736328125,0.3193359375,6.707317073170732,-3.1097560975609757,2.8658536585365857
17_02_19_333,-16.0,6.0,7.0,40.0,88.0,17.0,10.0,1.0,0.8974609375,-0.2939453125,0.34423828125,4.695121951219512,-2.439024390243903,2.1341463414634148
17_02_19_333,-8.0,-1.0,0.0,-38.0,-97.0,-49.0,-42.0,-24.0,0.888671875,-0.296875,0.34912109375,0.5487804878048781,-1.1585365853658538,4.451219512195122
17_02_19_333,18.0,-7.0,-4.0,-22.0,-53.0,-21.0,21.0,18.0,0.89404296875,-0.267578125,0.3427734375,-0.3658536585365854,0.9146341463414634,6.951219512195123
17_02_19_333,7.0,4.0,0.0,17.0,-20.0,-8.0,21.0,5.0,0.908203125,-0.2666015625,0.3271484375,2.9268292682926833,3.8414634146341466,9.878048780487806
17_02_19_333,8.0,4.0,10.0,6.0,25.0,54.0,1.0,3.0,0.9169921875,-0.28564453125,0.33544921875,-3.1707317073170733,4.451219512195122,9.02439024390244
17_02_19_333,-5.0,6.0,4.0,4.0,99.0,-4.0,-15.0,-6.0,0.8916015625,-0.25830078125,0.34423828125,-8.170731707317074,7.560975609756098,14.207317073170733
17_02_19_333,3.0,-8.0,-9.0,-42.0,-119.0,-49.0,-25.0,-3.0,0.9091796875,-0.24853515625,0.306640625,-8.78048780487805,8.292682926829269,16.158536585365855
17_02_19_333,4.0,7.0,4.0,4.0,6.0,29.0,-9.0,10.0,0.93994140625,-0.2119140625,0.287109375,-0.9756097560975611,9.390243902439025,16.951219512195124
17_02_19_388,3.0,-8.0,12.0,-2.0,-128.0,-37.0,8.0,5.0,0.9072265625,-0.26171875,0.314453125,4.634146341463415,1.2195121951219514,3.2926829268292686
17_02_19_388,25.0,7.0,5.0,5.0,-12.0,-8.0,0.0,10.0,0.9013671875,-0.20361328125,0.3017578125,4.024390243902439,1.707317073170732,4.75609756097561
17_02_19_388,5.0,3.0,8.0,36.0,91.0,47.0,0.0,8.0,0.89892578125,-0.2119140625,0.3037109375,6.7682926829268295,1.4634146341463417,5.914634146341464
17_02_19_388,-6.0,0.0,8.0,20.0,-13.0,-21.0,2.0,1.0,0.92626953125,-0.27001953125,0.3193359375,5.487804878048781,-0.48780487804878053,5.975609756097562
17_02_19_388,-3.0,3.0,7.0,10.0,20.0,-8.0,-10.0,-2.0,0.92041015625,-0.29736328125,0.3193359375,6.707317073170732,-3.1097560975609757,2.8658536585365857
17_02_19_388,0.0,-7.0,-6.0,-9.0,-9.0,-12.0,-5.0,-1.0,0.8974609375,-0.2939453125,0.34423828125,4.695121951219512,-2.439024390243903,2.1341463414634148
17_02_19_388,5.0,5.0,1.0,10.0,17.0,2.0,0.0,0.0,0.888671875,-0.296875,0.34912109375,0.5487804878048781,-1.1585365853658538,4.451219512195122
17_02_19_388,-8.0,5.0,-1.0,-1.0,3.0,26.0,13.0,-5.0,0.89404296875,-0.267578125,0.3427734375,-0.3658536585365854,0.9146341463414634,6.951219512195123
17_02_19_388,19.0,9.0,3.0,-27.0,-37.0,-41.0,-18.0,-6.0,0.908203125,-0.2666015625,0.3271484375,2.9268292682926833,3.8414634146341466,9.878048780487806
17_02_19_388,0.0,-7.0,-4.0,-8.0,-24.0,12.0,0.0,1.0,0.9169921875,-0.28564453125,0.33544921875,-3.1707317073170733,4.451219512195122,9.02439024390244
17_02_19_442,-17.0,-12.0,-12.0,-12.0,113.0,-39.0,-83.0,-26.0,0.845703125,-0.27978515625,0.29638671875,5.426829268292684,3.8414634146341466,6.036585365853659
17_02_19_442,2.0,-11.0,-10.0,-53.0,-128.0,-109.0,-30.0,-5.0,0.900390625,-0.26708984375,0.3134765625,7.195121951219513,4.2682926829268295,5.853658536585367
17_02_19_442,-5.0,2.0,-1.0,42.0,122.0,27.0,7.0,-7.0,0.9072265625,-0.26171875,0.314453125,4.634146341463415,1.2195121951219514,3.2926829268292686
17_02_19_442,5.0,-5.0,2.0,-22.0,-128.0,-17.0,11.0,2.0,0.9013671875,-0.20361328125,0.3017578125,4.024390243902439,1.707317073170732,4.75609756097561
17_02_19_442,18.0,7.0,0.0,-4.0,11.0,-4.0,18.0,16.0,0.89892578125,-0.2119140625,0.3037109375,6.7682926829268295,1.4634146341463417,5.914634146341464
17_02_19_442,-13.0,-7.0,-1.0,17.0,93.0,1.0,-2.0,-10.0,0.92626953125,-0.27001953125,0.3193359375,5.487804878048781,-0.48780487804878053,5.975609756097562
17_02_19_442,3.0,-8.0,12.0,-2.0,-128.0,-37.0,8.0,5.0,0.92041015625,-0.29736328125,0.3193359375,6.707317073170732,-3.1097560975609757,2.8658536585365857
17_02_19_442,25.0,7.0,5.0,5.0,-12.0,-8.0,0.0,10.0,0.8974609375,-0.2939453125,0.34423828125,4.695121951219512,-2.439024390243903,2.1341463414634148
17_02_19_442,5.0,3.0,8.0,36.0,91.0,47.0,0.0,8.0,0.888671875,-0.296875,0.34912109375,0.5487804878048781,-1.1585365853658538,4.451219512195122
17_02_19_442,-6.0,0.0,8.0,20.0,-13.0,-21.0,2.0,1.0,0.89404296875,-0.267578125,0.3427734375,-0.3658536585365854,0.9146341463414634,6.951219512195123
17_02_19_487,0.0,-10.0,-11.0,-23.0,-128.0,-24.0,50.0,7.0,0.91357421875,-0.23046875,0.33935546875,6.52439024390244,3.353658536585366,5.731707317073171
17_02_19_487,5.0,-3.0,0.0,57.0,15.0,-21.0,-48.0,-9.0,0.9189453125,-0.22509765625,0.31787109375,13.536585365853659,4.024390243902439,8.658536585365855
17_02_19_487,7.0,6.0,15.0,29.0,105.0,116.0,72.0,22.0,0.8896484375,-0.267578125,0.29736328125,10.792682926829269,2.3170731707317076,7.865853658536586
17_02_19_487,-9.0,4.0,6.0,17.0,40.0,11.0,7.0,5.0,0.845703125,-0.27978515625,0.29638671875,5.426829268292684,3.8414634146341466,6.036585365853659
17_02_19_487,-19.0,-23.0,-17.0,-41.0,-72.0,-52.0,-52.0,-23.0,0.900390625,-0.26708984375,0.3134765625,7.195121951219513,4.2682926829268295,5.853658536585367
17_02_19_487,55.0,10.0,28.0,95.0,98.0,9.0,16.0,5.0,0.9072265625,-0.26171875,0.314453125,4.634146341463415,1.2195121951219514,3.2926829268292686
17_02_19_487,-8.0,2.0,-2.0,-48.0,-92.0,-34.0,-31.0,-10.0,0.9013671875,-0.20361328125,0.3017578125,4.024390243902439,1.707317073170732,4.75609756097561
17_02_19_487,12.0,4.0,0.0,-6.0,-5.0,-1.0,-35.0,-2.0,0.89892578125,-0.2119140625,0.3037109375,6.7682926829268295,1.4634146341463417,5.914634146341464
17_02_19_487,5.0,15.0,-5.0,-16.0,-20.0,9.0,3.0,-13.0,0.92626953125,-0.27001953125,0.3193359375,5.487804878048781,-0.48780487804878053,5.975609756097562
17_02_19_487,-6.0,-11.0,-6.0,-28.0,-35.0,2.0,-26.0,-6.0,0.92041015625,-0.29736328125,0.3193359375,6.707317073170732,-3.1097560975609757,2.8658536585365857
17_02_19_533,-10.0,6.0,-16.0,-69.0,-80.0,-53.0,-42.0,-12.0,0.890625,-0.29150390625,0.36328125,-0.5487804878048781,1.4634146341463417,3.963414634146342
17_02_19_533,1.0,-17.0,-9.0,-37.0,-128.0,-63.0,21.0,-6.0,0.91357421875,-0.23046875,0.33935546875,6.52439024390244,3.353658536585366,5.731707317073171
17_02_19_533,16.0,15.0,19.0,80.0,110.0,55.0,-34.0,-3.0,0.9189453125,-0.22509765625,0.31787109375,13.536585365853659,4.024390243902439,8.658536585365855
17_02_19_533,18.0,30.0,14.0,-51.0,33.0,10.0,-7.0,10.0,0.8896484375,-0.267578125,0.29736328125,10.792682926829269,2.3170731707317076,7.865853658536586
17_02_19_533,0.0,-10.0,-11.0,-23.0,-128.0,-24.0,50.0,7.0,0.845703125,-0.27978515625,0.29638671875,5.426829268292684,3.8414634146341466,6.036585365853659
17_02_19_533,5.0,-3.0,0.0,57.0,15.0,-21.0,-48.0,-9.0,0.900390625,-0.26708984375,0.3134765625,7.195121951219513,4.2682926829268295,5.853658536585367
17_02_19_533,7.0,6.0,15.0,29.0,105.0,116.0,72.0,22.0,0.9072265625,-0.26171875,0.314453125,4.634146341463415,1.2195121951219514,3.2926829268292686
17_02_19_533,-9.0,4.0,6.0,17.0,40.0,11.0,7.0,5.0,0.9013671875,-0.20361328125,0.3017578125,4.024390243902439,1.707317073170732,4.75609756097561
17_02_19_533,-19.0,-23.0,-17.0,-41.0,-72.0,-52.0,-52.0,-23.0,0.89892578125,-0.2119140625,0.3037109375,6.7682926829268295,1.4634146341463417,5.914634146341464
17_02_19_533,55.0,10.0,28.0,95.0,98.0,9.0,16.0,5.0,0.92626953125,-0.27001953125,0.3193359375,5.487804878048781,-0.48780487804878053,5.975609756097562
17_02_19_598,17.0,-23.0,10.0,-29.0,-91.0,-15.0,-17.0,1.0,0.8671875,-0.26611328125,0.3291015625,10.548780487804878,4.451219512195122,13.170731707317074
17_02_19_598,5.0,2.0,-4.0,-2.0,15.0,-1.0,17.0,7.0,0.87060546875,-0.3154296875,0.341796875,9.573170731707318,-2.6219512195121952,5.853658536585367
17_02_19_598,-3.0,9.0,8.0,12.0,74.0,34.0,15.0,8.0,0.83642578125,-0.29736328125,0.36279296875,3.536585365853659,-0.7926829268292683,2.8658536585365857
17_02_19_598,-12.0,1.0,-5.0,-4.0,94.0,-39.0,-26.0,-19.0,0.890625,-0.29150390625,0.36328125,-0.5487804878048781,1.4634146341463417,3.963414634146342
17_02_19_598,10.0,-6.0,-20.0,-24.0,-104.0,12.0,-10.0,2.0,0.91357421875,-0.23046875,0.33935546875,6.52439024390244,3.353658536585366,5.731707317073171
17_02_19_598,-35.0,-3.0,17.0,-21.0,-128.0,-74.0,23.0,10.0,0.9189453125,-0.22509765625,0.31787109375,13.536585365853659,4.024390243902439,8.658536585365855
17_02_19_598,40.0,9.0,9.0,42.0,109.0,127.0,49.0,23.0,0.8896484375,-0.267578125,0.29736328125,10.792682926829269,2.3170731707317076,7.865853658536586
17_02_19_598,-17.0,5.0,1.0,14.0,127.0,-55.0,-88.0,-28.0,0.845703125,-0.27978515625,0.29638671875,5.426829268292684,3.8414634146341466,6.036585365853659
17_02_19_598,-28.0,-34.0,-24.0,-7.0,-128.0,-85.0,-5.0,-5.0,0.900390625,-0.26708984375,0.3134765625,7.195121951219513,4.2682926829268295,5.853658536585367
17_02_19_598,27.0,20.0,8.0,9.0,127.0,127.0,53.0,3.0,0.9072265625,-0.26171875,0.314453125,4.634146341463415,1.2195121951219514,3.2926829268292686
17_02_19_638,41.0,-21.0,-4.0,84.0,84.0,9.0,-35.0,-21.0,0.92919921875,-0.244140625,0.42578125,6.52439024390244,-7.378048780487806,2.1951219512195124
17_02_19_638,-17.0,9.0,0.0,-36.0,8.0,-12.0,-28.0,-1.0,0.9072265625,-0.1923828125,0.3408203125,8.475609756097562,-1.7682926829268295,6.7682926829268295
17_02_19_638,22.0,-3.0,-2.0,-31.0,-16.0,-6.0,40.0,34.0,0.8671875,-0.26611328125,0.3291015625,10.548780487804878,4.451219512195122,13.170731707317074
17_02_19_638,9.0,-3.0,3.0,-26.0,-128.0,4.0,59.0,1.0,0.87060546875,-0.3154296875,0.341796875,9.573170731707318,-2.6219512195121952,5.853658536585367
17_02_19_638,-27.0,-40.0,-22.0,73.0,127.0,28.0,-12.0,-10.0,0.83642578125,-0.29736328125,0.36279296875,3.536585365853659,-0.7926829268292683,2.8658536585365857
17_02_19_638,-3.0,38.0,8.0,14.0,-84.0,-8.0,5.0,-4.0,0.890625,-0.29150390625,0.36328125,-0.5487804878048781,1.4634146341463417,3.963414634146342
17_02_19_638,17.0,-23.0,10.0,-29.0,-91.0,-15.0,-17.0,1.0,0.91357421875,-0.23046875,0.33935546875,6.52439024390244,3.353658536585366,5.731707317073171
17_02_19_638,5.0,2.0,-4.0,-2.0,15.0,-1.0,17.0,7.0,0.9189453125,-0.22509765625,0.31787109375,13.536585365853659,4.024390243902439,8.658536585365855
17_02_19_638,-3.0,9.0,8.0,12.0,74.0,34.0,15.0,8.0,0.8896484375,-0.267578125,0.29736328125,10.792682926829269,2.3170731707317076,7.865853658536586
17_02_19_638,-12.0,1.0,-5.0,-4.0,94.0,-39.0,-26.0,-19.0,0.845703125,-0.27978515625,0.29638671875,5.426829268292684,3.8414634146341466,6.036585365853659
17_02_19_692,-8.0,42.0,43.0,127.0,127.0,117.0,47.0,10.0,0.85546875,-0.28173828125,0.33740234375,15.914634146341465,-3.231707317073171,1.8902439024390245
17_02_19_692,-12.0,-15.0,-26.0,-128.0,-128.0,-128.0,-31.0,-8.0,0.90771484375,-0.3349609375,0.4150390625,11.402439024390246,-6.463414634146342,2.25609756097561
17_02_19_692,-27.0,-41.0,-36.0,-41.0,-55.0,76.0,-38.0,-14.0,0.92919921875,-0.244140625,0.42578125,6.52439024390244,-7.378048780487806,2.1951219512195124
17_02_19_692,25.0,51.0,37.0,22.0,-59.0,-114.0,-23.0,3.0,0.9072265625,-0.1923828125,0.3408203125,8.475609756097562,-1.7682926829268295,6.7682926829268295
17_02_19_692,30.0,-18.0,-3.0,-15.0,-68.0,11.0,-51.0,-22.0,0.8671875,-0.26611328125,0.3291015625,10.548780487804878,4.451219512195122,13.170731707317074
17_02_19_692,-23.0,11.0,-6.0,43.0,127.0,-23.0,1.0,-16.0,0.87060546875,-0.3154296875,0.341796875,9.573170731707318,-2.6219512195121952,5.853658536585367
17_02_19_692,-128.0,-27.0,-17.0,-89.0,-55.0,-24.0,-4.0,-13.0,0.83642578125,-0.29736328125,0.36279296875,3.536585365853659,-0.7926829268292683,2.8658536585365857
17_02_19_692,54.0,8.0,10.0,45.0,-13.0,-33.0,-46.0,5.0,0.890625,-0.29150390625,0.36328125,-0.5487804878048781,1.4634146341463417,3.963414634146342
17_02_19_692,41.0,-21.0,-4.0,84.0,84.0,9.0,-35.0,-21.0,0.91357421875,-0.23046875,0.33935546875,6.52439024390244,3.353658536585366,5.731707317073171
17_02_19_692,-17.0,9.0,0.0,-36.0,8.0,-12.0,-28.0,-1.0,0.9189453125,-0.22509765625,0.31787109375,13.536585365853659,4.024390243902439,8.658536585365855
17_02_19_739,-4.0,12.0,0.0,17.0,54.0,-49.0,-8.0,1.0,0.87109375,-0.29345703125,0.32275390625,12.01219512195122,-4.207317073170732,6.7682926829268295
17_02_19_739,23.0,-13.0,-4.0,-20.0,-83.0,-31.0,-16.0,4.0,0.87109375,-0.30615234375,0.3203125,8.109756097560977,-4.207317073170732,4.939024390243903
17_02_19_739,4.0,13.0,-6.0,-41.0,93.0,127.0,63.0,1.0,0.85546875,-0.28173828125,0.33740234375,15.914634146341465,-3.231707317073171,1.8902439024390245
17_02_19_739,20.0,9.0,17.0,10.0,-104.0,-128.0,-2.0,28.0,0.90771484375,-0.3349609375,0.4150390625,11.402439024390246,-6.463414634146342,2.25609756097561
17_02_19_739,-22.0,3.0,22.0,57.0,122.0,-13.0,-4.0,-14.0,0.92919921875,-0.244140625,0.42578125,6.52439024390244,-7.378048780487806,2.1951219512195124
17_02_19_739,23.0,-45.0,-47.0,-14.0,-70.0,127.0,85.0,29.0,0.9072265625,-0.1923828125,0.3408203125,8.475609756097562,-1.7682926829268295,6.7682926829268295
17_02_19_739,-23.0,6.0,-24.0,-119.0,100.0,-16.0,-37.0,-25.0,0.8671875,-0.26611328125,0.3291015625,10.548780487804878,4.451219512195122,13.170731707317074
17_02_19_739,0.0,3.0,-3.0,-34.0,-128.0,-128.0,-85.0,-16.0,0.87060546875,-0.3154296875,0.341796875,9.573170731707318,-2.6219512195121952,5.853658536585367
17_02_19_739,-28.0,16.0,33.0,106.0,127.0,118.0,36.0,4.0,0.83642578125,-0.29736328125,0.36279296875,3.536585365853659,-0.7926829268292683,2.8658536585365857
17_02_19_739,-9.0,-22.0,-60.0,-128.0,-128.0,-38.0,39.0,7.0,0.890625,-0.29150390625,0.36328125,-0.5487804878048781,1.4634146341463417,3.963414634146342
17_02_19_793,-33.0,35.0,4.0,12.0,121.0,127.0,76.0,9.0,0.916015625,-0.31103515625,0.36279296875,5.182926829268293,-5.060975609756098,-0.06097560975609757
17_02_19_793,-2.0,-55.0,-18.0,-46.0,-122.0,-128.0,-54.0,-9.0,0.91357421875,-0.19775390625,0.34033203125,8.719512195121952,-6.219512195121951,2.0121951219512195
17_02_19_793,8.0,15.0,9.0,65.0,127.0,90.0,21.0,8.0,0.86572265625,-0.203125,0.31298828125,14.817073170731708,-5.670731707317073,3.9024390243902443
17_02_19_793,-15.0,-6.0,-7.0,-7.0,127.0,-71.0,-50.0,-1.0,0.87109375,-0.29345703125,0.32275390625,12.01219512195122,-4.207317073170732,6.7682926829268295
17_02_19_793,7.0,8.0,2.0,-31.0,-128.0,77.0,83.0,18.0,0.87109375,-0.30615234375,0.3203125,8.109756097560977,-4.207317073170732,4.939024390243903
17_02_19_793,23.0,5.0,12.0,21.0,-52.0,-52.0,-19.0,9.0,0.85546875,-0.28173828125,0.33740234375,15.914634146341465,-3.231707317073171,1.8902439024390245
17_02_19_793,-20.0,12.0,30.0,127.0,127.0,127.0,61.0,15.0,0.90771484375,-0.3349609375,0.4150390625,11.402439024390246,-6.463414634146342,2.25609756097561
17_02_19_793,6.0,8.0,-3.0,-89.0,-128.0,-128.0,-30.0,-17.0,0.92919921875,-0.244140625,0.42578125,6.52439024390244,-7.378048780487806,2.1951219512195124
