Timestamps,channel_1,channel_2,channel_3,channel_4,channel_5,channel_6,channel_7,channel_8,ACC_X,ACC_Y,ACC_Z,GYR_X,GYR_Y,GYR_Z
11_35_58_930,0.0,0.0,0.0,0.0,0.0,0.0,0.0,0.0,0.0,0.0,0.0,0.0,0.0,0.0
11_35_58_930,0.0,0.0,0.0,0.0,0.0,0.0,0.0,0.0,0.0,0.0,0.0,0.0,0.0,0.0
11_35_58_930,0.0,0.0,0.0,0.0,0.0,0.0,0.0,0.0,0.0,0.0,0.0,0.0,0.0,0.0
11_35_58_930,0.0,0.0,0.0,0.0,0.0,0.0,0.0,0.0,0.0,0.0,0.0,0.0,0.0,0.0
11_35_58_930,0.0,0.0,0.0,0.0,0.0,0.0,0.0,0.0,0.0,0.0,0.0,0.0,0.0,0.0
11_35_58_930,0.0,0.0,0.0,0.0,0.0,0.0,0.0,0.0,0.0,0.0,0.0,0.0,0.0,0.0
11_35_58_930,0.0,0.0,0.0,0.0,0.0,0.0,0.0,0.0,0.0,0.0,0.0,0.0,0.0,0.0
11_35_58_930,0.0,0.0,0.0,0.0,0.0,0.0,0.0,0.0,0.0,0.0,0.0,0.0,0.0,0.0
11_35_58_930,0.0,0.0,0.0,0.0,0.0,0.0,0.0,0.0,0.0,0.0,0.0,0.0,0.0,0.0
11_35_58_930,0.0,0.0,0.0,0.0,0.0,0.0,0.0,0.0,0.0,0.0,0.0,0.0,0.0,0.0
11_35_59_623,-14.0,-1.0,-2.0,5.0,-3.0,-7.0,18.0,-21.0,0.62890625,-0.47021484375,0.4140625,-25.000000000000004,-23.231707317073173,-6.2804878048780495
11_35_59_623,0.0,0.0,0.0,0.0,0.0,0.0,0.0,0.0,0.0,0.0,0.0,0.0,0.0,0.0
11_35_59_623,0.0,0.0,0.0,0.0,0.0,0.0,0.0,0.0,0.0,0.0,0.0,0.0,0.0,0.0
11_35_59_623,0.0,0.0,0.0,0.0,0.0,0.0,0.0,0.0,0.0,0.0,0.0,0.0,0.0,0.0
11_35_59_623,0.0,0.0,0.0,0.0,0.0,0.0,0.0,0.0,0.0,0.0,0.0,0.0,0.0,0.0
11_35_59_623,0.0,0.0,0.0,0.0,0.0,0.0,0.0,0.0,0.0,0.0,0.0,0.0,0.0,0.0
11_35_59_623,0.0,0.0,0.0,0.0,0.0,0.0,0.0,0.0,0.0,0.0,0.0,0.0,0.0,0.0
11_35_59_623,0.0,0.0,0.0,0.0,0.0,0.0,0.0,0.0,0.0,0.0,0.0,0.0,0.0,0.0
11_35_59_623,0.0,0.0,0.0,0.0,0.0,0.0,0.0,0.0,0.0,0.0,0.0,0.0,0.0,0.0
11_35_59_674,-38.0,-5.0,-5.0,-5.0,3.0,-11.0,-75.0,-29.0,0.80517578125,-0.39453125,0.39306640625,-38.47560975609756,-24.878048780487806,-16.646341463414636
11_35_59_674,-10.0,5.0,-1.0,1.0,-3.0,9.0,65.0,16.0,0.62890625,-0.47021484375,0.4140625,-25.000000000000004,-23.231707317073173,-6.2804878048780495
11_35_59_674,-38.0,-5.0,-5.0,-5.0,3.0,-11.0,-75.0,-29.0,0.62890625,-0.47021484375,0.4140625,-25.000000000000004,-23.231707317073173,-6.2804878048780495
11_35_59_674,-10.0,5.0,-1.0,1.0,-3.0,9.0,65.0,16.0,0.0,0.0,0.0,0.0,0.0,0.0
11_35_59_674,-18.0,-16.0,-12.0,-13.0,-6.0,-8.0,-13.0,-69.0,0.0,0.0,0.0,0.0,0.0,0.0
11_35_59_674,-30.0,2.0,3.0,7.0,7.0,6.0,-55.0,-32.0,0.0,0.0,0.0,0.0,0.0,0.0
11_35_59_674,17.0,4.0,-5.0,6.0,1.0,4.0,23.0,-16.0,0.0,0.0,0.0,0.0,0.0,0.0
11_35_59_674,0.0,2.0,-2.0,-17.0,0.0,-6.0,-3.0,12.0,0.0,0.0,0.0,0.0,0.0,0.0
11_35_59_727,0.0,0.0,1.0,5.0,-3.0,-4.0,-7.0,0.0,0.87744140625,-0.51708984375,0.6845703125,-28.10975609756098,0.06097560975609757,-2.073170731707317
11_35_59_727,-1.0,2.0,3.0,3.0,0.0,2.0,-3.0,-3.0,0.95263671875,-0.2744140625,0.46044921875,-47.6829268292683,-11.158536585365855,-1.2804878048780488
11_35_59_727,-2.0,-13.0,1.0,2.0,0.0,0.0,-3.0,1.0,0.875,-0.294921875,0.49609375,-56.585365853658544,-13.231707317073171,-13.04878048780488
11_35_59_727,0.0,11.0,-11.0,-5.0,-2.0,-2.0,-2.0,-12.0,0.8388671875,-0.31689453125,0.4375,-52.37804878048781,-16.646341463414636,-17.378048780487806
11_35_59_727,-4.0,-9.0,-8.0,-1.0,-9.0,-5.0,2.0,1.0,0.80517578125,-0.39453125,0.39306640625,-38.47560975609756,-24.878048780487806,-16.646341463414636
11_35_59_727,-1.0,2.0,1.0,-4.0,-1.0,0.0,-3.0,0.0,0.62890625,-0.47021484375,0.4140625,-25.000000000000004,-23.231707317073173,-6.2804878048780495
11_35_59_727,0.0,-9.0,-3.0,-1.0,-9.0,-7.0,1.0,0.0,0.62890625,-0.47021484375,0.4140625,-25.000000000000004,-23.231707317073173,-6.2804878048780495
11_35_59_727,2.0,3.0,0.0,1.0,4.0,3.0,1.0,1.0,0.0,0.0,0.0,0.0,0.0,0.0
11_35_59_727,-3.0,-1.0,-4.0,-2.0,-1.0,-2.0,-17.0,-4.0,0.0,0.0,0.0,0.0,0.0,0.0
11_35_59_727,0.0,-1.0,4.0,1.0,0.0,1.0,4.0,-8.0,0.0,0.0,0.0,0.0,0.0,0.0
11_35_59_775,42.0,9.0,3.0,4.0,4.0,4.0,-14.0,19.0,1.1865234375,-0.0546875,0.986328125,-67.6219512195122,1.2804878048780488,-29.573170731707318
11_35_59_775,-12.0,-3.0,-5.0,0.0,0.0,-6.0,-19.0,-58.0,0.3720703125,-0.21484375,0.14404296875,-33.78048780487805,7.378048780487806,-24.390243902439025
11_35_59_775,-18.0,-3.0,-1.0,-5.0,-9.0,-10.0,-19.0,48.0,0.66455078125,0.02197265625,0.3564453125,-20.121951219512198,6.890243902439025,-12.01219512195122
11_35_59_775,51.0,2.0,-6.0,-7.0,1.0,0.0,-9.0,-18.0,0.87744140625,-0.51708984375,0.6845703125,-28.10975609756098,0.06097560975609757,-2.073170731707317
11_35_59_775,-4.0,-3.0,1.0,-4.0,-1.0,-4.0,-38.0,-21.0,0.95263671875,-0.2744140625,0.46044921875,-47.6829268292683,-11.158536585365855,-1.2804878048780488
11_35_59_775,4.0,-8.0,-6.0,1.0,-5.0,2.0,14.0,34.0,0.875,-0.294921875,0.49609375,-56.585365853658544,-13.231707317073171,-13.04878048780488
11_35_59_775,6.0,6.0,1.0,6.0,1.0,5.0,-9.0,-28.0,0.8388671875,-0.31689453125,0.4375,-52.37804878048781,-16.646341463414636,-17.378048780487806
11_35_59_775,-8.0,1.0,5.0,5.0,6.0,2.0,5.0,-12.0,0.80517578125,-0.39453125,0.39306640625,-38.47560975609756,-24.878048780487806,-16.646341463414636
11_35_59_775,3.0,1.0,6.0,0.0,3.0,3.0,-14.0,2.0,0.62890625,-0.47021484375,0.4140625,-25.000000000000004,-23.231707317073173,-6.2804878048780495
11_35_59_775,7.0,7.0,1.0,-5.0,1.0,0.0,-12.0,82.0,0.62890625,-0.47021484375,0.4140625,-25.000000000000004,-23.231707317073173,-6.2804878048780495
11_35_59_826,10.0,8.0,6.0,-2.0,5.0,7.0,40.0,2.0,0.55810546875,-0.36376953125,0.0361328125,-48.65853658536586,-5.426829268292684,-33.170731707317074
11_35_59_826,-8.0,-3.0,3.0,-6.0,-1.0,-3.0,3.0,-12.0,1.302734375,-0.0400390625,0.95849609375,-70.67073170731707,-0.48780487804878053,-32.86585365853659
11_35_59_826,7.0,1.0,-2.0,0.0,-3.0,0.0,-8.0,4.0,1.1865234375,-0.0546875,0.986328125,-67.6219512195122,1.2804878048780488,-29.573170731707318
11_35_59_826,0.0,2.0,-2.0,1.0,0.0,-2.0,15.0,-13.0,0.3720703125,-0.21484375,0.14404296875,-33.78048780487805,7.378048780487806,-24.390243902439025
11_35_59_826,13.0,6.0,4.0,2.0,-1.0,-2.0,-9.0,11.0,0.66455078125,0.02197265625,0.3564453125,-20.121951219512198,6.890243902439025,-12.01219512195122
11_35_59_826,-14.0,-5.0,4.0,-5.0,-3.0,-1.0,15.0,27.0,0.87744140625,-0.51708984375,0.6845703125,-28.10975609756098,0.06097560975609757,-2.073170731707317
11_35_59_826,-4.0,-10.0,-3.0,-8.0,-1.0,6.0,20.0,0.0,0.95263671875,-0.2744140625,0.46044921875,-47.6829268292683,-11.158536585365855,-1.2804878048780488
11_35_59_826,-1.0,0.0,0.0,-1.0,0.0,0.0,-31.0,45.0,0.875,-0.294921875,0.49609375,-56.585365853658544,-13.231707317073171,-13.04878048780488
11_35_59_826,42.0,9.0,3.0,4.0,4.0,4.0,-14.0,19.0,0.8388671875,-0.31689453125,0.4375,-52.37804878048781,-16.646341463414636,-17.378048780487806
11_35_59_826,-12.0,-3.0,-5.0,0.0,0.0,-6.0,-19.0,-58.0,0.80517578125,-0.39453125,0.39306640625,-38.47560975609756,-24.878048780487806,-16.646341463414636
11_35_59_877,1.0,-11.0,6.0,2.0,6.0,5.0,-17.0,5.0,1.31982421875,-0.03173828125,0.947265625,-55.1829268292683,1.5853658536585367,-38.963414634146346
11_35_59_877,-49.0,1.0,-18.0,-5.0,-8.0,-12.0,13.0,2.0,1.14892578125,-0.23828125,0.8984375,-40.85365853658537,-1.9512195121951221,-34.81707317073171
11_35_59_877,-15.0,9.0,8.0,15.0,11.0,7.0,4.0,-4.0,0.39990234375,-0.515625,-0.0517578125,-29.02439024390244,-5.121951219512195,-31.76829268292683
11_35_59_877,-18.0,-1.0,-5.0,-7.0,-3.0,-3.0,-43.0,63.0,0.55810546875,-0.36376953125,0.0361328125,-48.65853658536586,-5.426829268292684,-33.170731707317074
11_35_59_877,17.0,-2.0,3.0,-17.0,-6.0,-6.0,20.0,-55.0,1.302734375,-0.0400390625,0.95849609375,-70.67073170731707,-0.48780487804878053,-32.86585365853659
11_35_59_877,13.0,6.0,1.0,-10.0,-1.0,15.0,21.0,-23.0,1.1865234375,-0.0546875,0.986328125,-67.6219512195122,1.2804878048780488,-29.573170731707318
11_35_59_877,26.0,10.0,5.0,13.0,5.0,-8.0,13.0,-2.0,0.3720703125,-0.21484375,0.14404296875,-33.78048780487805,7.378048780487806,-24.390243902439025
11_35_59_877,-7.0,7.0,-3.0,5.0,2.0,-4.0,35.0,51.0,0.66455078125,0.02197265625,0.3564453125,-20.121951219512198,6.890243902439025,-12.01219512195122
11_35_59_877,16.0,5.0,13.0,2.0,9.0,20.0,24.0,49.0,0.87744140625,-0.51708984375,0.6845703125,-28.10975609756098,0.06097560975609757,-2.073170731707317
11_35_59_877,-77.0,5.0,0.0,-3.0,0.0,-2.0,17.0,-5.0,0.95263671875,-0.2744140625,0.46044921875,-47.6829268292683,-11.158536585365855,-1.2804878048780488
11_35_59_926,-1.0,-2.0,2.0,-1.0,5.0,-2.0,-8.0,0.0,1.23876953125,-0.04931640625,1.20166015625,-24.81707317073171,-0.30487804878048785,-13.04878048780488
11_35_59_926,-4.0,-5.0,-4.0,-8.0,-6.0,-7.0,-10.0,1.0,0.49267578125,-0.4521484375,0.25048828125,-9.878048780487806,1.0365853658536586,-21.28048780487805
11_35_59_926,0.0,1.0,3.0,-3.0,0.0,-3.0,2.0,-9.0,0.51025390625,-0.4296875,-0.0009765625,-32.31707317073171,0.7926829268292683,-32.37804878048781
11_35_59_926,-5.0,-9.0,-12.0,0.0,-8.0,-7.0,11.0,8.0,1.31982421875,-0.03173828125,0.947265625,-55.1829268292683,1.5853658536585367,-38.963414634146346
11_35_59_926,1.0,6.0,2.0,4.0,-2.0,1.0,-5.0,0.0,1.14892578125,-0.23828125,0.8984375,-40.85365853658537,-1.9512195121951221,-34.81707317073171
11_35_59_926,1.0,-3.0,-2.0,4.0,-2.0,-3.0,15.0,-19.0,0.39990234375,-0.515625,-0.0517578125,-29.02439024390244,-5.121951219512195,-31.76829268292683
11_35_59_926,-2.0,-1.0,1.0,-2.0,0.0,2.0,1.0,2.0,0.55810546875,-0.36376953125,0.0361328125,-48.65853658536586,-5.426829268292684,-33.170731707317074
11_35_59_926,-3.0,-7.0,-1.0,-12.0,-5.0,-5.0,10.0,-25.0,1.302734375,-0.0400390625,0.95849609375,-70.67073170731707,-0.48780487804878053,-32.86585365853659
11_35_59_926,1.0,-11.0,6.0,2.0,6.0,5.0,-17.0,5.0,1.1865234375,-0.0546875,0.986328125,-67.6219512195122,1.2804878048780488,-29.573170731707318
11_35_59_926,-49.0,1.0,-18.0,-5.0,-8.0,-12.0,13.0,2.0,0.3720703125,-0.21484375,0.14404296875,-33.78048780487805,7.378048780487806,-24.390243902439025
11_35_59_979,7.0,-4.0,-6.0,2.0,0.0,2.0,16.0,-23.0,0.12841796875,-0.52490234375,-0.107421875,-34.390243902439025,-2.0121951219512195,-14.390243902439027
11_35_59_979,1.0,-2.0,1.0,0.0,0.0,1.0,14.0,-6.0,0.8515625,-0.07861328125,0.6884765625,-43.04878048780488,-3.5975609756097566,-8.902439024390244
11_35_59_979,-59.0,-3.0,-3.0,-7.0,-1.0,-3.0,-4.0,-5.0,1.23876953125,-0.04931640625,1.20166015625,-24.81707317073171,-0.30487804878048785,-13.04878048780488
11_35_59_979,10.0,-9.0,-10.0,-5.0,-6.0,0.0,14.0,1.0,0.49267578125,-0.4521484375,0.25048828125,-9.878048780487806,1.0365853658536586,-21.28048780487805
11_35_59_979,-10.0,-12.0,-8.0,5.0,-5.0,-3.0,-4.0,-10.0,0.51025390625,-0.4296875,-0.0009765625,-32.31707317073171,0.7926829268292683,-32.37804878048781
11_35_59_979,-10.0,-9.0,-7.0,4.0,-5.0,-4.0,-20.0,-4.0,1.31982421875,-0.03173828125,0.947265625,-55.1829268292683,1.5853658536585367,-38.963414634146346
11_35_59_979,1.0,4.0,-5.0,-2.0,-8.0,-8.0,18.0,13.0,1.14892578125,-0.23828125,0.8984375,-40.85365853658537,-1.9512195121951221,-34.81707317073171
11_35_59_979,11.0,6.0,4.0,0.0,1.0,1.0,4.0,24.0,0.39990234375,-0.515625,-0.0517578125,-29.02439024390244,-5.121951219512195,-31.76829268292683
11_35_59_979,18.0,5.0,1.0,-10.0,1.0,0.0,0.0,46.0,0.55810546875,-0.36376953125,0.0361328125,-48.65853658536586,-5.426829268292684,-33.170731707317074
11_35_59_979,21.0,-19.0,-20.0,-10.0,-14.0,-20.0,9.0,-12.0,1.302734375,-0.0400390625,0.95849609375,-70.67073170731707,-0.48780487804878053,-32.86585365853659
11_36_00_030,2.0,0.0,-2.0,-4.0,0.0,-4.0,-5.0,-8.0,1.18701171875,-0.11181640625,1.19140625,-30.60975609756098,1.707317073170732,-11.829268292682928
11_36_00_030,-6.0,-8.0,-8.0,1.0,-5.0,-6.0,7.0,-11.0,0.73828125,-0.4609375,0.69873046875,-28.170731707317074,2.1341463414634148,-16.463414634146343
11_36_00_030,-2.0,3.0,-1.0,3.0,-1.0,1.0,-7.0,-4.0,0.12841796875,-0.52490234375,-0.107421875,-34.390243902439025,-2.0121951219512195,-14.390243902439027
11_36_00_030,6.0,-6.0,-2.0,2.0,-4.0,-2.0,10.0,-2.0,0.8515625,-0.07861328125,0.6884765625,-43.04878048780488,-3.5975609756097566,-8.902439024390244
11_36_00_030,-1.0,3.0,7.0,0.0,2.0,1.0,-6.0,4.0,1.23876953125,-0.04931640625,1.20166015625,-24.81707317073171,-0.30487804878048785,-13.04878048780488
11_36_00_030,-2.0,-1.0,-3.0,-5.0,-2.0,0.0,11.0,-22.0,0.49267578125,-0.4521484375,0.25048828125,-9.878048780487806,1.0365853658536586,-21.28048780487805
11_36_00_030,-3.0,-3.0,-1.0,0.0,-4.0,-2.0,-14.0,14.0,0.51025390625,-0.4296875,-0.0009765625,-32.31707317073171,0.7926829268292683,-32.37804878048781
11_36_00_030,1.0,1.0,-4.0,4.0,-4.0,-4.0,7.0,-2.0,1.31982421875,-0.03173828125,0.947265625,-55.1829268292683,1.5853658536585367,-38.963414634146346
11_36_00_030,7.0,-4.0,-6.0,2.0,0.0,2.0,16.0,-23.0,1.14892578125,-0.23828125,0.8984375,-40.85365853658537,-1.9512195121951221,-34.81707317073171
11_36_00_030,1.0,-2.0,1.0,0.0,0.0,1.0,14.0,-6.0,0.39990234375,-0.515625,-0.0517578125,-29.02439024390244,-5.121951219512195,-31.76829268292683
11_36_00_077,0.0,-6.0,-6.0,-4.0,-9.0,-7.0,-23.0,32.0,0.40625,-0.58349609375,0.228515625,-21.097560975609756,-3.9024390243902443,-15.54878048780488
11_36_00_077,-21.0,-2.0,0.0,1.0,1.0,-4.0,0.0,-8.0,0.3681640625,-0.34716796875,0.18896484375,-28.414634146341466,-1.707317073170732,-11.097560975609756
11_36_00_077,9.0,-2.0,-3.0,2.0,-6.0,-2.0,-1.0,2.0,1.18701171875,-0.11181640625,1.19140625,-30.60975609756098,1.707317073170732,-11.829268292682928
11_36_00_077,7.0,2.0,3.0,-1.0,-1.0,-1.0,1.0,-2.0,0.73828125,-0.4609375,0.69873046875,-28.170731707317074,2.1341463414634148,-16.463414634146343
11_36_00_077,-4.0,-5.0,-8.0,-7.0,-10.0,-7.0,10.0,-1.0,0.12841796875,-0.52490234375,-0.107421875,-34.390243902439025,-2.0121951219512195,-14.390243902439027
11_36_00_077,-4.0,0.0,-2.0,-4.0,0.0,-1.0,-6.0,3.0,0.8515625,-0.07861328125,0.6884765625,-43.04878048780488,-3.5975609756097566,-8.902439024390244
11_36_00_077,2.0,-4.0,0.0,-2.0,0.0,-5.0,0.0,-6.0,1.23876953125,-0.04931640625,1.20166015625,-24.81707317073171,-0.30487804878048785,-13.04878048780488
11_36_00_077,-2.0,0.0,-2.0,3.0,-2.0,-3.0,-2.0,-6.0,0.49267578125,-0.4521484375,0.25048828125,-9.878048780487806,1.0365853658536586,-21.28048780487805
11_36_00_077,0.0,-2.0,-2.0,3.0,-3.0,-3.0,8.0,1.0,0.51025390625,-0.4296875,-0.0009765625,-32.31707317073171,0.7926829268292683,-32.37804878048781
11_36_00_131,0.0,0.0,3.0,1.0,0.0,-2.0,-3.0,7.0,1.13916015625,-0.2763671875,0.90185546875,-18.414634146341466,-3.5975609756097566,-12.01219512195122
11_36_00_131,1.0,1.0,5.0,2.0,1.0,0.0,-8.0,6.0,0.2705078125,-0.46826171875,-0.12353515625,-14.695121951219514,-8.78048780487805,-12.74390243902439
11_36_00_131,-2.0,2.0,3.0,-4.0,2.0,1.0,-3.0,-5.0,0.81201171875,-0.1142578125,0.5390625,-19.75609756097561,-8.78048780487805,-9.207317073170733
11_36_00_131,-5.0,4.0,-1.0,-6.0,-2.0,1.0,-10.0,2.0,1.298828125,-0.17138671875,1.2314453125,-20.670731707317074,-4.573170731707317,-11.463414634146343
11_36_00_131,-7.0,-4.0,-1.0,1.0,0.0,0.0,3.0,-4.0,0.40625,-0.58349609375,0.228515625,-21.097560975609756,-3.9024390243902443,-15.54878048780488
11_36_00_131,-12.0,-2.0,-1.0,3.0,-2.0,-3.0,-5.0,9.0,0.3681640625,-0.34716796875,0.18896484375,-28.414634146341466,-1.707317073170732,-11.097560975609756
11_36_00_131,-4.0,-4.0,-5.0,1.0,-1.0,-1.0,-36.0,3.0,1.18701171875,-0.11181640625,1.19140625,-30.60975609756098,1.707317073170732,-11.829268292682928
11_36_00_131,-14.0,0.0,5.0,-3.0,-1.0,0.0,4.0,30.0,0.73828125,-0.4609375,0.69873046875,-28.170731707317074,2.1341463414634148,-16.463414634146343
11_36_00_131,4.0,0.0,-1.0,-3.0,0.0,-2.0,-14.0,2.0,0.12841796875,-0.52490234375,-0.107421875,-34.390243902439025,-2.0121951219512195,-14.390243902439027
11_36_00_131,0.0,-6.0,-6.0,-4.0,-9.0,-7.0,-23.0,32.0,0.8515625,-0.07861328125,0.6884765625,-43.04878048780488,-3.5975609756097566,-8.902439024390244
11_36_00_178,-3.0,-4.0,-1.0,1.0,-1.0,-1.0,-6.0,-8.0,0.296875,-0.43115234375,-0.267578125,0.5487804878048781,-3.5975609756097566,-12.682926829268293
11_36_00_178,-5.0,-4.0,-9.0,1.0,-2.0,3.0,-12.0,1.0,1.1181640625,-0.08251953125,0.755859375,-17.073170731707318,-2.073170731707317,-11.951219512195124
11_36_00_178,2.0,-2.0,-2.0,-4.0,2.0,-4.0,-5.0,-4.0,1.13916015625,-0.2763671875,0.90185546875,-18.414634146341466,-3.5975609756097566,-12.01219512195122
11_36_00_178,0.0,4.0,2.0,0.0,2.0,1.0,-10.0,6.0,0.2705078125,-0.46826171875,-0.12353515625,-14.695121951219514,-8.78048780487805,-12.74390243902439
11_36_00_178,-1.0,-2.0,-1.0,-4.0,-4.0,0.0,5.0,-4.0,0.81201171875,-0.1142578125,0.5390625,-19.75609756097561,-8.78048780487805,-9.207317073170733
11_36_00_178,-2.0,2.0,3.0,6.0,-1.0,0.0,-9.0,2.0,1.298828125,-0.17138671875,1.2314453125,-20.670731707317074,-4.573170731707317,-11.463414634146343
11_36_00_178,-2.0,-2.0,-1.0,3.0,-2.0,0.0,1.0,-5.0,0.40625,-0.58349609375,0.228515625,-21.097560975609756,-3.9024390243902443,-15.54878048780488
11_36_00_178,4.0,4.0,8.0,2.0,1.0,3.0,-12.0,7.0,0.3681640625,-0.34716796875,0.18896484375,-28.414634146341466,-1.707317073170732,-11.097560975609756
11_36_00_178,1.0,2.0,0.0,-4.0,1.0,-1.0,-4.0,0.0,1.18701171875,-0.11181640625,1.19140625,-30.60975609756098,1.707317073170732,-11.829268292682928
11_36_00_178,1.0,-2.0,3.0,-5.0,2.0,2.0,-6.0,7.0,0.73828125,-0.4609375,0.69873046875,-28.170731707317074,2.1341463414634148,-16.463414634146343
11_36_00_230,-1.0,3.0,4.0,7.0,-3.0,3.0,-10.0,-1.0,0.9091796875,-0.34326171875,0.478515625,12.865853658536587,-2.1951219512195124,-13.475609756097562
11_36_00_230,2.0,4.0,7.0,2.0,7.0,8.0,3.0,-10.0,0.296875,-0.43115234375,-0.267578125,0.5487804878048781,-3.5975609756097566,-12.682926829268293
11_36_00_230,0.0,9.0,5.0,-4.0,3.0,4.0,-13.0,8.0,1.1181640625,-0.08251953125,0.755859375,-17.073170731707318,-2.073170731707317,-11.951219512195124
11_36_00_230,-2.0,-4.0,-5.0,-7.0,-4.0,-3.0,7.0,13.0,1.13916015625,-0.2763671875,0.90185546875,-18.414634146341466,-3.5975609756097566,-12.01219512195122
11_36_00_230,2.0,-2.0,3.0,3.0,0.0,-1.0,-10.0,-2.0,0.2705078125,-0.46826171875,-0.12353515625,-14.695121951219514,-8.78048780487805,-12.74390243902439
11_36_00_230,-3.0,-4.0,-1.0,1.0,-1.0,-1.0,-6.0,-8.0,0.81201171875,-0.1142578125,0.5390625,-19.75609756097561,-8.78048780487805,-9.207317073170733
11_36_00_230,-5.0,-4.0,-9.0,1.0,-2.0,3.0,-12.0,1.0,1.298828125,-0.17138671875,1.2314453125,-20.670731707317074,-4.573170731707317,-11.463414634146343
11_36_00_230,2.0,-2.0,-2.0,-4.0,2.0,-4.0,-5.0,-4.0,0.40625,-0.58349609375,0.228515625,-21.097560975609756,-3.9024390243902443,-15.54878048780488
11_36_00_230,0.0,4.0,2.0,0.0,2.0,1.0,-10.0,6.0,0.3681640625,-0.34716796875,0.18896484375,-28.414634146341466,-1.707317073170732,-11.097560975609756
11_36_00_265,-3.0,-3.0,-8.0,-2.0,-5.0,-6.0,23.0,-14.0,1.451171875,0.05029296875,0.99755859375,-11.341463414634147,-0.1829268292682927,-14.329268292682928
11_36_00_265,2.0,4.0,2.0,2.0,6.0,4.0,-5.0,8.0,0.60205078125,-0.33984375,0.1015625,1.524390243902439,1.707317073170732,-20.54878048780488
11_36_00_265,-3.0,-14.0,-6.0,-5.0,-2.0,-1.0,15.0,-1.0,0.443359375,-0.15087890625,-0.15576171875,6.890243902439025,3.1097560975609757,-18.29268292682927
11_36_00_265,2.0,4.0,0.0,-4.0,-2.0,0.0,-3.0,9.0,1.3564453125,0.064453125,0.93505859375,10.30487804878049,1.402439024390244,-13.902439024390246
11_36_00_265,21.0,-9.0,-8.0,1.0,-1.0,-5.0,24.0,26.0,0.9091796875,-0.34326171875,0.478515625,12.865853658536587,-2.1951219512195124,-13.475609756097562
11_36_00_265,-11.0,-3.0,4.0,3.0,2.0,4.0,10.0,1.0,0.296875,-0.43115234375,-0.267578125,0.5487804878048781,-3.5975609756097566,-12.682926829268293
11_36_00_265,4.0,0.0,0.0,1.0,3.0,1.0,-6.0,16.0,1.1181640625,-0.08251953125,0.755859375,-17.073170731707318,-2.073170731707317,-11.951219512195124
11_36_00_265,29.0,7.0,8.0,-3.0,-2.0,4.0,-15.0,24.0,1.13916015625,-0.2763671875,0.90185546875,-18.414634146341466,-3.5975609756097566,-12.01219512195122
11_36_00_265,5.0,-7.0,-1.0,-5.0,2.0,1.0,5.0,18.0,0.2705078125,-0.46826171875,-0.12353515625,-14.695121951219514,-8.78048780487805,-12.74390243902439
11_36_00_265,3.0,5.0,5.0,0.0,4.0,2.0,-1.0,-5.0,0.81201171875,-0.1142578125,0.5390625,-19.75609756097561,-8.78048780487805,-9.207317073170733
11_36_00_334,10.0,-6.0,-4.0,-3.0,0.0,2.0,15.0,12.0,1.29296875,-0.19140625,0.7294921875,-0.853658536585366,-11.341463414634147,8.963414634146343
11_36_00_334,-4.0,-2.0,-1.0,-6.0,-6.0,-1.0,7.0,22.0,0.35498046875,-0.49560546875,-0.3466796875,-2.25609756097561,-13.414634146341465,3.7195121951219514
11_36_00_334,-18.0,-12.0,-13.0,-4.0,-7.0,-11.0,12.0,-40.0,0.7763671875,-0.0791015625,0.10791015625,-10.975609756097562,-4.634146341463415,-5.121951219512195
11_36_00_334,-35.0,-9.0,-3.0,-1.0,0.0,-12.0,-4.0,-55.0,1.451171875,0.05029296875,0.99755859375,-11.341463414634147,-0.1829268292682927,-14.329268292682928
11_36_00_334,40.0,-3.0,-3.0,-2.0,-2.0,-5.0,7.0,25.0,0.60205078125,-0.33984375,0.1015625,1.524390243902439,1.707317073170732,-20.54878048780488
11_36_00_334,64.0,5.0,1.0,-7.0,-1.0,8.0,-42.0,-26.0,0.443359375,-0.15087890625,-0.15576171875,6.890243902439025,3.1097560975609757,-18.29268292682927
11_36_00_334,1.0,10.0,2.0,5.0,4.0,3.0,7.0,17.0,1.3564453125,0.064453125,0.93505859375,10.30487804878049,1.402439024390244,-13.902439024390246
11_36_00_334,-20.0,-11.0,1.0,2.0,-2.0,-1.0,-17.0,-4.0,0.9091796875,-0.34326171875,0.478515625,12.865853658536587,-2.1951219512195124,-13.475609756097562
11_36_00_334,10.0,-7.0,-7.0,-3.0,-6.0,-6.0,8.0,14.0,0.296875,-0.43115234375,-0.267578125,0.5487804878048781,-3.5975609756097566,-12.682926829268293
11_36_00_334,-4.0,1.0,7.0,-3.0,2.0,2.0,-6.0,4.0,1.1181640625,-0.08251953125,0.755859375,-17.073170731707318,-2.073170731707317,-11.951219512195124
11_36_00_384,-1.0,-3.0,-1.0,1.0,-1.0,-1.0,4.0,1.0,0.37451171875,-0.45751953125,-0.296875,-51.34146341463415,14.390243902439027,4.451219512195122
11_36_00_384,-1.0,1.0,1.0,-4.0,0.0,1.0,-7.0,0.0,1.13623046875,-0.04541015625,0.6484375,-17.621951219512198,7.987804878048781,6.097560975609756
11_36_00_384,-1.0,-4.0,-8.0,-5.0,-3.0,-2.0,7.0,0.0,1.29296875,-0.19140625,0.7294921875,-0.853658536585366,-11.341463414634147,8.963414634146343
11_36_00_384,-1.0,-2.0,-1.0,1.0,-1.0,-1.0,-1.0,-5.0,0.35498046875,-0.49560546875,-0.3466796875,-2.25609756097561,-13.414634146341465,3.7195121951219514
11_36_00_384,-5.0,-5.0,-7.0,3.0,-6.0,-5.0,14.0,-5.0,0.7763671875,-0.0791015625,0.10791015625,-10.975609756097562,-4.634146341463415,-5.121951219512195
11_36_00_384,-2.0,1.0,0.0,2.0,1.0,1.0,-2.0,4.0,1.451171875,0.05029296875,0.99755859375,-11.341463414634147,-0.1829268292682927,-14.329268292682928
11_36_00_384,-1.0,-7.0,1.0,0.0,0.0,-5.0,2.0,0.0,0.60205078125,-0.33984375,0.1015625,1.524390243902439,1.707317073170732,-20.54878048780488
11_36_00_384,1.0,6.0,5.0,-2.0,1.0,6.0,-1.0,-4.0,0.443359375,-0.15087890625,-0.15576171875,6.890243902439025,3.1097560975609757,-18.29268292682927
11_36_00_384,10.0,-6.0,-4.0,-3.0,0.0,2.0,15.0,12.0,1.3564453125,0.064453125,0.93505859375,10.30487804878049,1.402439024390244,-13.902439024390246
11_36_00_384,-4.0,-2.0,-1.0,-6.0,-6.0,-1.0,7.0,22.0,0.9091796875,-0.34326171875,0.478515625,12.865853658536587,-2.1951219512195124,-13.475609756097562
11_36_00_441,-1.0,-8.0,-7.0,0.0,-3.0,-2.0,2.0,-4.0,0.36474609375,-0.57470703125,-0.1650390625,-9.756097560975611,-8.170731707317074,40.304878048780495
11_36_00_441,-2.0,0.0,-1.0,-6.0,-1.0,3.0,-5.0,1.0,1.3251953125,-0.28515625,0.953125,-42.13414634146342,0.48780487804878053,39.451219512195124
11_36_00_441,-3.0,-3.0,-5.0,-4.0,-4.0,-9.0,-1.0,-5.0,0.99853515625,-0.517578125,0.5439453125,-64.14634146341464,9.878048780487806,24.146341463414636
11_36_00_441,1.0,-2.0,0.0,-4.0,-1.0,-2.0,-7.0,1.0,0.37451171875,-0.45751953125,-0.296875,-51.34146341463415,14.390243902439027,4.451219512195122
11_36_00_441,1.0,-2.0,-6.0,-2.0,-3.0,-4.0,10.0,1.0,1.13623046875,-0.04541015625,0.6484375,-17.621951219512198,7.987804878048781,6.097560975609756
11_36_00_441,-5.0,-2.0,0.0,6.0,-1.0,-3.0,-3.0,-5.0,1.29296875,-0.19140625,0.7294921875,-0.853658536585366,-11.341463414634147,8.963414634146343
11_36_00_441,2.0,-1.0,-1.0,4.0,-5.0,-5.0,5.0,-6.0,0.35498046875,-0.49560546875,-0.3466796875,-2.25609756097561,-13.414634146341465,3.7195121951219514
11_36_00_441,2.0,-2.0,1.0,-2.0,-4.0,1.0,-4.0,-1.0,0.7763671875,-0.0791015625,0.10791015625,-10.975609756097562,-4.634146341463415,-5.121951219512195
11_36_00_441,0.0,-2.0,-8.0,-6.0,-3.0,-2.0,7.0,1.0,1.451171875,0.05029296875,0.99755859375,-11.341463414634147,-0.1829268292682927,-14.329268292682928
11_36_00_441,-1.0,3.0,-1.0,-5.0,2.0,-1.0,-2.0,-5.0,0.60205078125,-0.33984375,0.1015625,1.524390243902439,1.707317073170732,-20.54878048780488
11_36_00_489,1.0,5.0,0.0,-5.0,2.0,0.0,-4.0,0.0,0.7255859375,-0.6640625,0.29736328125,18.170731707317074,-14.085365853658537,40.1219512195122
11_36_00_489,-4.0,-2.0,-1.0,-3.0,-2.0,-1.0,-4.0,3.0,0.36474609375,-0.57470703125,-0.1650390625,-9.756097560975611,-8.170731707317074,40.304878048780495
11_36_00_489,0.0,-1.0,-2.0,0.0,3.0,-1.0,-3.0,1.0,1.3251953125,-0.28515625,0.953125,-42.13414634146342,0.48780487804878053,39.451219512195124
11_36_00_489,-1.0,3.0,-5.0,7.0,-2.0,0.0,-8.0,7.0,0.99853515625,-0.517578125,0.5439453125,-64.14634146341464,9.878048780487806,24.146341463414636
11_36_00_489,1.0,0.0,0.0,0.0,1.0,-1.0,-5.0,-7.0,0.37451171875,-0.45751953125,-0.296875,-51.34146341463415,14.390243902439027,4.451219512195122
11_36_00_489,-4.0,-7.0,-5.0,-3.0,-4.0,-3.0,-8.0,6.0,1.13623046875,-0.04541015625,0.6484375,-17.621951219512198,7.987804878048781,6.097560975609756
11_36_00_489,-3.0,-3.0,4.0,-4.0,-4.0,-1.0,-4.0,5.0,1.29296875,-0.19140625,0.7294921875,-0.853658536585366,-11.341463414634147,8.963414634146343
11_36_00_489,-5.0,-7.0,-4.0,0.0,-6.0,-2.0,3.0,5.0,0.35498046875,-0.49560546875,-0.3466796875,-2.25609756097561,-13.414634146341465,3.7195121951219514
11_36_00_489,0.0,1.0,-2.0,3.0,-4.0,1.0,0.0,1.0,0.7763671875,-0.0791015625,0.10791015625,-10.975609756097562,-4.634146341463415,-5.121951219512195
11_36_00_537,0.0,3.0,4.0,-8.0,-1.0,-3.0,-10.0,3.0,1.38916015625,-0.0244140625,1.01611328125,-20.243902439024392,-30.000000000000004,-0.426829268292683
11_36_00_537,-1.0,2.0,0.0,0.0,-2.0,-1.0,-3.0,-4.0,0.53125,-0.40380859375,-0.0107421875,19.02439024390244,-27.195121951219516,6.463414634146342
11_36_00_537,2.0,-2.0,3.0,4.0,-2.0,1.0,-8.0,7.0,0.52294921875,-0.3203125,-0.046875,35.243902439024396,-22.926829268292686,21.28048780487805
11_36_00_537,-1.0,1.0,1.0,3.0,-2.0,2.0,-3.0,-2.0,1.4033203125,-0.25048828125,1.04931640625,29.695121951219516,-18.963414634146343,35.670731707317074
11_36_00_537,2.0,3.0,7.0,2.0,3.0,6.0,-10.0,8.0,0.7255859375,-0.6640625,0.29736328125,18.170731707317074,-14.085365853658537,40.1219512195122
11_36_00_537,-3.0,4.0,-1.0,-6.0,5.0,-1.0,-5.0,-1.0,0.36474609375,-0.57470703125,-0.1650390625,-9.756097560975611,-8.170731707317074,40.304878048780495
11_36_00_537,-2.0,-1.0,3.0,-5.0,0.0,-2.0,-7.0,4.0,1.3251953125,-0.28515625,0.953125,-42.13414634146342,0.48780487804878053,39.451219512195124
11_36_00_537,-1.0,-2.0,-4.0,-2.0,-3.0,0.0,6.0,-4.0,0.99853515625,-0.517578125,0.5439453125,-64.14634146341464,9.878048780487806,24.146341463414636
11_36_00_537,2.0,3.0,1.0,6.0,1.0,1.0,-10.0,7.0,0.37451171875,-0.45751953125,-0.296875,-51.34146341463415,14.390243902439027,4.451219512195122
11_36_00_537,-3.0,1.0,3.0,3.0,1.0,4.0,-5.0,-2.0,1.13623046875,-0.04541015625,0.6484375,-17.621951219512198,7.987804878048781,6.097560975609756
11_36_00_585,1.0,3.0,0.0,1.0,3.0,0.0,-9.0,4.0,1.26123046875,-0.28564453125,0.94921875,-23.658536585365855,-23.53658536585366,-8.78048780487805
11_36_00_585,-3.0,1.0,3.0,4.0,4.0,2.0,6.0,-6.0,0.3447265625,-0.56396484375,-0.20849609375,-34.87804878048781,-27.865853658536587,-8.109756097560977
11_36_00_585,-1.0,4.0,2.0,3.0,4.0,2.0,-17.0,4.0,0.6982421875,-0.1904296875,0.1669921875,-39.69512195121951,-29.26829268292683,-5.609756097560976
11_36_00_585,0.0,0.0,2.0,-7.0,1.0,2.0,-5.0,7.0,1.38916015625,-0.0244140625,1.01611328125,-20.243902439024392,-30.000000000000004,-0.426829268292683
11_36_00_585,1.0,3.0,3.0,-3.0,2.0,-2.0,-6.0,5.0,0.53125,-0.40380859375,-0.0107421875,19.02439024390244,-27.195121951219516,6.463414634146342
11_36_00_585,-3.0,-1.0,0.0,1.0,0.0,-5.0,4.0,0.0,0.52294921875,-0.3203125,-0.046875,35.243902439024396,-22.926829268292686,21.28048780487805
11_36_00_585,-3.0,2.0,5.0,2.0,1.0,4.0,-10.0,4.0,1.4033203125,-0.25048828125,1.04931640625,29.695121951219516,-18.963414634146343,35.670731707317074
11_36_00_585,1.0,1.0,0.0,4.0,-2.0,-1.0,-5.0,2.0,0.7255859375,-0.6640625,0.29736328125,18.170731707317074,-14.085365853658537,40.1219512195122
11_36_00_585,1.0,5.0,6.0,4.0,0.0,0.0,-12.0,1.0,0.36474609375,-0.57470703125,-0.1650390625,-9.756097560975611,-8.170731707317074,40.304878048780495
11_36_00_585,0.0,-3.0,1.0,-5.0,1.0,2.0,-2.0,0.0,1.3251953125,-0.28515625,0.953125,-42.13414634146342,0.48780487804878053,39.451219512195124
11_36_00_645,-1.0,0.0,3.0,2.0,1.0,-2.0,-6.0,3.0,0.3447265625,-0.56396484375,-0.20849609375,-34.87804878048781,-27.865853658536587,-8.109756097560977
11_36_00_645,0.0,1.0,-3.0,0.0,-3.0,-2.0,5.0,-7.0,0.6982421875,-0.1904296875,0.1669921875,-39.69512195121951,-29.26829268292683,-5.609756097560976
11_36_00_645,0.0,4.0,5.0,6.0,9.0,1.0,-10.0,0.0,1.38916015625,-0.0244140625,1.01611328125,-20.243902439024392,-30.000000000000004,-0.426829268292683
11_36_00_645,-1.0,-5.0,0.0,-10.0,-1.0,2.0,2.0,-6.0,0.53125,-0.40380859375,-0.0107421875,19.02439024390244,-27.195121951219516,6.463414634146342
11_36_00_645,3.0,5.0,5.0,-5.0,3.0,4.0,-12.0,6.0,0.52294921875,-0.3203125,-0.046875,35.243902439024396,-22.926829268292686,21.28048780487805
11_36_00_645,4.0,6.0,1.0,-1.0,-3.0,0.0,7.0,-6.0,1.4033203125,-0.25048828125,1.04931640625,29.695121951219516,-18.963414634146343,35.670731707317074
11_36_00_645,1.0,3.0,0.0,1.0,3.0,0.0,-9.0,4.0,0.7255859375,-0.6640625,0.29736328125,18.170731707317074,-14.085365853658537,40.1219512195122
11_36_00_645,-3.0,1.0,3.0,4.0,4.0,2.0,6.0,-6.0,0.36474609375,-0.57470703125,-0.1650390625,-9.756097560975611,-8.170731707317074,40.304878048780495
11_36_00_686,1.0,2.0,1.0,3.0,0.0,2.0,-4.0,-1.0,0.396484375,-0.55517578125,-0.3291015625,-31.158536585365855,-5.670731707317073,-42.19512195121951
11_36_00_686,-6.0,-2.0,-6.0,0.0,-3.0,-2.0,8.0,-7.0,1.20654296875,-0.19287109375,0.68212890625,-30.54878048780488,-5.7926829268292686,-37.25609756097561
11_36_00_686,1.0,2.0,2.0,-2.0,5.0,4.0,-11.0,4.0,1.181640625,-0.33203125,0.79638671875,-15.731707317073171,-10.0,-28.719512195121954
11_36_00_686,2.0,-5.0,-4.0,-7.0,0.0,-3.0,11.0,-5.0,0.26318359375,-0.55419921875,-0.30712890625,-4.207317073170732,-13.04878048780488,-21.158536585365855
11_36_00_686,-4.0,-1.0,-1.0,-4.0,-4.0,-1.0,-5.0,0.0,0.86572265625,-0.2314453125,0.44970703125,-9.390243902439025,-17.134146341463417,-12.74390243902439
11_36_00_686,-6.0,-2.0,-6.0,-1.0,-3.0,-7.0,11.0,-8.0,1.26123046875,-0.28564453125,0.94921875,-23.658536585365855,-23.53658536585366,-8.78048780487805
11_36_00_686,-3.0,-2.0,-1.0,1.0,2.0,1.0,-8.0,0.0,0.3447265625,-0.56396484375,-0.20849609375,-34.87804878048781,-27.865853658536587,-8.109756097560977
11_36_00_686,-1.0,-3.0,-3.0,-1.0,-3.0,-1.0,6.0,-5.0,0.6982421875,-0.1904296875,0.1669921875,-39.69512195121951,-29.26829268292683,-5.609756097560976
11_36_00_686,1.0,4.0,5.0,0.0,0.0,-1.0,-10.0,-1.0,1.38916015625,-0.0244140625,1.01611328125,-20.243902439024392,-30.000000000000004,-0.426829268292683
11_36_00_686,-3.0,-10.0,-7.0,-7.0,-2.0,-5.0,11.0,-8.0,0.53125,-0.40380859375,-0.0107421875,19.02439024390244,-27.195121951219516,6.463414634146342
11_36_02_069,1.0,-1.0,-6.0,-8.0,-3.0,-2.0,0.0,0.0,0.396484375,-0.55517578125,-0.3291015625,-31.158536585365855,-5.670731707317073,-42.19512195121951
11_36_02_069,4.0,-9.0,-6.0,4.0,-3.0,-5.0,9.0,-5.0,1.20654296875,-0.19287109375,0.68212890625,-30.54878048780488,-5.7926829268292686,-37.25609756097561
11_36_02_069,-1.0,3.0,0.0,4.0,0.0,2.0,-4.0,-1.0,1.181640625,-0.33203125,0.79638671875,-15.731707317073171,-10.0,-28.719512195121954
11_36_02_069,-1.0,-6.0,-6.0,3.0,-4.0,-5.0,9.0,-8.0,0.26318359375,-0.55419921875,-0.30712890625,-4.207317073170732,-13.04878048780488,-21.158536585365855
11_36_02_069,1.0,4.0,3.0,-2.0,2.0,2.0,-6.0,3.0,0.86572265625,-0.2314453125,0.44970703125,-9.390243902439025,-17.134146341463417,-12.74390243902439
11_36_02_069,0.0,-6.0,-8.0,-8.0,-1.0,-3.0,8.0,-3.0,1.26123046875,-0.28564453125,0.94921875,-23.658536585365855,-23.53658536585366,-8.78048780487805
11_36_02_069,-1.0,1.0,1.0,-5.0,1.0,-1.0,-3.0,2.0,0.3447265625,-0.56396484375,-0.20849609375,-34.87804878048781,-27.865853658536587,-8.109756097560977
11_36_02_069,3.0,-7.0,-5.0,-1.0,-3.0,-4.0,12.0,-5.0,0.6982421875,-0.1904296875,0.1669921875,-39.69512195121951,-29.26829268292683,-5.609756097560976
11_36_02_112,4.0,-3.0,-3.0,-6.0,3.0,4.0,-2.0,1.0,0.92333984375,-0.3388671875,0.30078125,-3.536585365853659,-12.500000000000002,-3.7195121951219514
11_36_02_112,-13.0,-23.0,2.0,-10.0,2.0,-2.0,-3.0,1.0,0.92529296875,-0.3447265625,0.29150390625,-12.195121951219512,-12.500000000000002,-1.0975609756097562
11_36_02_112,-3.0,1.0,2.0,5.0,-1.0,-2.0,0.0,-3.0,0.92236328125,-0.333984375,0.29296875,-19.390243902439025,-12.682926829268293,1.4634146341463417
11_36_02_112,21.0,5.0,6.0,8.0,3.0,1.0,-3.0,5.0,0.92529296875,-0.29541015625,0.30224609375,-13.658536585365855,-10.853658536585368,0.12195121951219513
11_36_02_112,2.0,-5.0,-43.0,-8.0,-3.0,-1.0,-2.0,0.0,0.9384765625,-0.27880859375,0.30126953125,-4.146341463414634,-7.621951219512196,-2.5
11_36_02_112,-8.0,9.0,14.0,1.0,-5.0,-3.0,0.0,-1.0,0.95556640625,-0.30517578125,0.27001953125,2.682926829268293,-4.51219512195122,-2.5
11_36_02_112,17.0,2.0,1.0,1.0,-1.0,-2.0,-8.0,0.0,0.9697265625,-0.37158203125,0.23046875,1.5853658536585367,-3.963414634146342,-1.2804878048780488
11_36_02_112,-6.0,-7.0,-32.0,2.0,4.0,1.0,-4.0,-3.0,0.9677734375,-0.41064453125,0.203125,-9.51219512195122,-6.707317073170732,1.524390243902439
11_36_02_112,-21.0,-1.0,14.0,-1.0,0.0,3.0,3.0,-1.0,0.95654296875,-0.396484375,0.19384765625,-23.78048780487805,-8.231707317073171,0.9146341463414634
11_36_02_112,20.0,11.0,2.0,-3.0,-3.0,-5.0,3.0,-2.0,0.94677734375,-0.2919921875,0.1962890625,-23.353658536585368,-8.902439024390244,-0.1829268292682927
11_36_02_151,16.0,-1.0,-5.0,-6.0,2.0,2.0,-8.0,11.0,0.9833984375,-0.203125,0.263671875,35.85365853658537,-23.04878048780488,-10.487804878048781
11_36_02_151,12.0,15.0,-1.0,0.0,2.0,1.0,8.0,10.0,0.9384765625,-0.30615234375,0.236328125,26.707317073170735,-24.81707317073171,-3.658536585365854
11_36_02_151,15.0,-7.0,4.0,1.0,-3.0,-2.0,7.0,-28.0,0.91650390625,-0.36962890625,0.2294921875,9.329268292682928,-16.097560975609756,-3.658536585365854
11_36_02_151,-14.0,-8.0,-3.0,0.0,-4.0,-9.0,-44.0,-27.0,0.92333984375,-0.3388671875,0.30078125,-3.536585365853659,-12.500000000000002,-3.7195121951219514
11_36_02_151,-68.0,-4.0,6.0,1.0,1.0,0.0,11.0,17.0,0.92529296875,-0.3447265625,0.29150390625,-12.195121951219512,-12.500000000000002,-1.0975609756097562
11_36_02_151,6.0,-9.0,-22.0,-9.0,-12.0,-10.0,2.0,-7.0,0.92236328125,-0.333984375,0.29296875,-19.390243902439025,-12.682926829268293,1.4634146341463417
11_36_02_151,17.0,-8.0,4.0,3.0,1.0,0.0,3.0,3.0,0.92529296875,-0.29541015625,0.30224609375,-13.658536585365855,-10.853658536585368,0.12195121951219513
11_36_02_151,-5.0,-1.0,-3.0,-1.0,0.0,-1.0,-4.0,-4.0,0.9384765625,-0.27880859375,0.30126953125,-4.146341463414634,-7.621951219512196,-2.5
11_36_02_151,12.0,9.0,0.0,2.0,5.0,11.0,-6.0,-2.0,0.95556640625,-0.30517578125,0.27001953125,2.682926829268293,-4.51219512195122,-2.5
11_36_02_151,-4.0,8.0,-1.0,-3.0,-1.0,4.0,1.0,3.0,0.9697265625,-0.37158203125,0.23046875,1.5853658536585367,-3.963414634146342,-1.2804878048780488
11_36_02_198,36.0,0.0,2.0,-1.0,-3.0,2.0,-6.0,5.0,0.90869140625,-0.08056640625,0.306640625,5.548780487804878,-11.158536585365855,-19.085365853658537
11_36_02_198,-128.0,-38.0,-15.0,-4.0,-7.0,-8.0,-1.0,-12.0,0.97119140625,-0.0859375,0.3193359375,29.451219512195124,-8.719512195121952,-20.426829268292686
11_36_02_198,6.0,12.0,3.0,1.0,4.0,-2.0,2.0,3.0,0.9833984375,-0.203125,0.263671875,35.85365853658537,-23.04878048780488,-10.487804878048781
11_36_02_198,58.0,16.0,5.0,1.0,1.0,6.0,4.0,3.0,0.9384765625,-0.30615234375,0.236328125,26.707317073170735,-24.81707317073171,-3.658536585365854
11_36_02_198,6.0,8.0,22.0,1.0,0.0,-3.0,-1.0,-5.0,0.91650390625,-0.36962890625,0.2294921875,9.329268292682928,-16.097560975609756,-3.658536585365854
11_36_02_198,-3.0,-14.0,-1.0,2.0,2.0,2.0,-1.0,2.0,0.92333984375,-0.3388671875,0.30078125,-3.536585365853659,-12.500000000000002,-3.7195121951219514
11_36_02_198,-10.0,4.0,-41.0,-3.0,-1.0,1.0,1.0,8.0,0.92529296875,-0.3447265625,0.29150390625,-12.195121951219512,-12.500000000000002,-1.0975609756097562
11_36_02_198,4.0,-3.0,15.0,0.0,-1.0,-2.0,1.0,-10.0,0.92236328125,-0.333984375,0.29296875,-19.390243902439025,-12.682926829268293,1.4634146341463417
11_36_02_198,-65.0,-15.0,-5.0,-4.0,-4.0,-1.0,7.0,-6.0,0.92529296875,-0.29541015625,0.30224609375,-13.658536585365855,-10.853658536585368,0.12195121951219513
11_36_02_198,40.0,8.0,1.0,4.0,3.0,5.0,4.0,5.0,0.9384765625,-0.27880859375,0.30126953125,-4.146341463414634,-7.621951219512196,-2.5
11_36_02_254,-13.0,-5.0,4.0,-2.0,-2.0,0.0,0.0,-1.0,0.943359375,-0.30322265625,0.2412109375,5.2439024390243905,-13.414634146341465,-20.914634146341466
11_36_02_254,8.0,6.0,7.0,0.0,3.0,-2.0,6.0,2.0,0.916015625,-0.29638671875,0.26953125,-13.597560975609758,-14.390243902439027,-18.414634146341466
11_36_02_254,4.0,4.0,21.0,2.0,2.0,-8.0,-2.0,-3.0,0.91552734375,-0.19873046875,0.29296875,-16.890243902439025,-16.82926829268293,-14.51219512195122
11_36_02_254,5.0,-7.0,-33.0,-3.0,-3.0,-11.0,-3.0,-4.0,0.90869140625,-0.08056640625,0.306640625,5.548780487804878,-11.158536585365855,-19.085365853658537
11_36_02_254,-32.0,-1.0,-26.0,-5.0,-2.0,9.0,14.0,-2.0,0.97119140625,-0.0859375,0.3193359375,29.451219512195124,-8.719512195121952,-20.426829268292686
11_36_02_254,2.0,0.0,4.0,7.0,4.0,1.0,2.0,-4.0,0.9833984375,-0.203125,0.263671875,35.85365853658537,-23.04878048780488,-10.487804878048781
11_36_02_254,12.0,13.0,0.0,-3.0,1.0,-1.0,-1.0,3.0,0.9384765625,-0.30615234375,0.236328125,26.707317073170735,-24.81707317073171,-3.658536585365854
11_36_02_254,6.0,1.0,-2.0,11.0,-2.0,-1.0,0.0,2.0,0.91650390625,-0.36962890625,0.2294921875,9.329268292682928,-16.097560975609756,-3.658536585365854
11_36_02_254,27.0,3.0,-3.0,-1.0,2.0,-1.0,2.0,-1.0,0.92333984375,-0.3388671875,0.30078125,-3.536585365853659,-12.500000000000002,-3.7195121951219514
11_36_02_254,-4.0,2.0,11.0,-1.0,4.0,0.0,0.0,-2.0,0.92529296875,-0.3447265625,0.29150390625,-12.195121951219512,-12.500000000000002,-1.0975609756097562
11_36_02_301,20.0,2.0,-8.0,-9.0,-1.0,3.0,-1.0,13.0,0.99755859375,-0.234375,0.1875,24.939024390243905,-14.817073170731708,-21.646341463414636
11_36_02_301,4.0,-19.0,-8.0,2.0,-5.0,-6.0,-6.0,-13.0,0.9365234375,-0.2978515625,0.22265625,20.243902439024392,-13.353658536585368,-20.853658536585368
11_36_02_301,-32.0,1.0,-5.0,-7.0,-2.0,-2.0,7.0,2.0,0.943359375,-0.30322265625,0.2412109375,5.2439024390243905,-13.414634146341465,-20.914634146341466
11_36_02_301,39.0,3.0,1.0,6.0,1.0,-1.0,-3.0,5.0,0.916015625,-0.29638671875,0.26953125,-13.597560975609758,-14.390243902439027,-18.414634146341466
11_36_02_301,6.0,1.0,-3.0,-2.0,-3.0,-2.0,-1.0,0.0,0.91552734375,-0.19873046875,0.29296875,-16.890243902439025,-16.82926829268293,-14.51219512195122
11_36_02_301,10.0,16.0,3.0,0.0,2.0,0.0,-4.0,0.0,0.90869140625,-0.08056640625,0.306640625,5.548780487804878,-11.158536585365855,-19.085365853658537
11_36_02_301,4.0,2.0,-3.0,-2.0,-1.0,2.0,-2.0,-2.0,0.97119140625,-0.0859375,0.3193359375,29.451219512195124,-8.719512195121952,-20.426829268292686
11_36_02_301,13.0,-10.0,2.0,-2.0,-4.0,-3.0,-1.0,-3.0,0.9833984375,-0.203125,0.263671875,35.85365853658537,-23.04878048780488,-10.487804878048781
11_36_02_301,-48.0,-2.0,-6.0,-9.0,-6.0,-2.0,2.0,-4.0,0.9384765625,-0.30615234375,0.236328125,26.707317073170735,-24.81707317073171,-3.658536585365854
11_36_02_301,-6.0,-6.0,-1.0,4.0,0.0,1.0,4.0,-2.0,0.91650390625,-0.36962890625,0.2294921875,9.329268292682928,-16.097560975609756,-3.658536585365854
11_36_02_356,-1.0,-14.0,-8.0,-12.0,-10.0,-6.0,-2.0,-10.0,1.02294921875,-0.17138671875,0.17138671875,15.975609756097562,-18.84146341463415,-18.231707317073173
11_36_02_356,-33.0,1.0,-4.0,-4.0,-3.0,-3.0,11.0,9.0,1.01904296875,-0.1669921875,0.16064453125,22.5609756097561,-15.426829268292684,-21.097560975609756
11_36_02_356,25.0,14.0,7.0,1.0,-2.0,-1.0,-2.0,12.0,0.99755859375,-0.234375,0.1875,24.939024390243905,-14.817073170731708,-21.646341463414636
11_36_02_356,-40.0,-15.0,-4.0,-1.0,10.0,5.0,-11.0,-24.0,0.9365234375,-0.2978515625,0.22265625,20.243902439024392,-13.353658536585368,-20.853658536585368
11_36_02_356,-57.0,-5.0,2.0,-3.0,0.0,0.0,1.0,3.0,0.943359375,-0.30322265625,0.2412109375,5.2439024390243905,-13.414634146341465,-20.914634146341466
11_36_02_356,20.0,-3.0,-15.0,-7.0,-13.0,-12.0,-2.0,6.0,0.916015625,-0.29638671875,0.26953125,-13.597560975609758,-14.390243902439027,-18.414634146341466
11_36_02_356,12.0,11.0,1.0,-4.0,-3.0,1.0,5.0,13.0,0.91552734375,-0.19873046875,0.29296875,-16.890243902439025,-16.82926829268293,-14.51219512195122
11_36_02_356,-45.0,-23.0,-8.0,-5.0,-7.0,0.0,3.0,-34.0,0.90869140625,-0.08056640625,0.306640625,5.548780487804878,-11.158536585365855,-19.085365853658537
11_36_02_356,20.0,2.0,-8.0,-9.0,-1.0,3.0,-1.0,13.0,0.97119140625,-0.0859375,0.3193359375,29.451219512195124,-8.719512195121952,-20.426829268292686
11_36_02_356,4.0,-19.0,-8.0,2.0,-5.0,-6.0,-6.0,-13.0,0.9833984375,-0.203125,0.263671875,35.85365853658537,-23.04878048780488,-10.487804878048781
11_36_02_402,17.0,2.0,-14.0,-9.0,-7.0,-13.0,-17.0,-20.0,1.046875,-0.18310546875,0.1513671875,-6.463414634146342,-20.60975609756098,-6.036585365853659
11_36_02_402,16.0,-10.0,6.0,5.0,8.0,1.0,-1.0,21.0,0.99609375,-0.11474609375,0.15869140625,1.829268292682927,-25.914634146341466,-10.30487804878049
11_36_02_402,-128.0,-19.0,-4.0,-4.0,-6.0,-12.0,-1.0,-38.0,1.0283203125,-0.1298828125,0.14013671875,8.658536585365855,-18.719512195121954,-14.451219512195124
11_36_02_402,30.0,1.0,4.0,1.0,3.0,2.0,-16.0,6.0,1.02294921875,-0.17138671875,0.17138671875,15.975609756097562,-18.84146341463415,-18.231707317073173
11_36_02_402,2.0,7.0,-5.0,-3.0,-3.0,-4.0,11.0,-1.0,1.01904296875,-0.1669921875,0.16064453125,22.5609756097561,-15.426829268292684,-21.097560975609756
11_36_02_402,-14.0,-4.0,-2.0,0.0,-8.0,-3.0,4.0,7.0,0.99755859375,-0.234375,0.1875,24.939024390243905,-14.817073170731708,-21.646341463414636
11_36_02_402,11.0,11.0,2.0,0.0,1.0,6.0,7.0,-9.0,0.9365234375,-0.2978515625,0.22265625,20.243902439024392,-13.353658536585368,-20.853658536585368
11_36_02_402,19.0,12.0,3.0,-3.0,0.0,3.0,-7.0,-6.0,0.943359375,-0.30322265625,0.2412109375,5.2439024390243905,-13.414634146341465,-20.914634146341466
11_36_02_402,28.0,1.0,4.0,12.0,5.0,0.0,-1.0,3.0,0.916015625,-0.29638671875,0.26953125,-13.597560975609758,-14.390243902439027,-18.414634146341466
11_36_02_402,-51.0,-17.0,-11.0,-1.0,20.0,7.0,-3.0,-8.0,0.91552734375,-0.19873046875,0.29296875,-16.890243902439025,-16.82926829268293,-14.51219512195122
11_36_02_455,117.0,63.0,11.0,4.0,-29.0,-1.0,29.0,16.0,0.89990234375,-0.04345703125,0.14501953125,-27.743902439024392,-14.695121951219514,6.219512195121951
11_36_02_455,26.0,4.0,14.0,-47.0,-3.0,-4.0,0.0,5.0,1.0205078125,-0.05810546875,0.3466796875,-0.6707317073170732,-14.02439024390244,-0.853658536585366
11_36_02_455,-55.0,-12.0,10.0,21.0,8.0,-12.0,-5.0,1.0,1.01171875,-0.26220703125,0.15185546875,-5.487804878048781,-10.426829268292684,-2.987804878048781
11_36_02_455,-28.0,-15.0,-24.0,-17.0,-12.0,-4.0,-12.0,-44.0,1.046875,-0.18310546875,0.1513671875,-6.463414634146342,-20.60975609756098,-6.036585365853659
11_36_02_455,-44.0,-10.0,9.0,7.0,-24.0,-27.0,-2.0,-26.0,0.99609375,-0.11474609375,0.15869140625,1.829268292682927,-25.914634146341466,-10.30487804878049
11_36_02_455,18.0,12.0,-17.0,-58.0,-23.0,-3.0,4.0,19.0,1.0283203125,-0.1298828125,0.14013671875,8.658536585365855,-18.719512195121954,-14.451219512195124
11_36_02_455,5.0,9.0,17.0,52.0,36.0,16.0,10.0,-14.0,1.02294921875,-0.17138671875,0.17138671875,15.975609756097562,-18.84146341463415,-18.231707317073173
11_36_02_455,73.0,16.0,14.0,11.0,86.0,48.0,-3.0,23.0,1.01904296875,-0.1669921875,0.16064453125,22.5609756097561,-15.426829268292684,-21.097560975609756
11_36_02_455,-57.0,-18.0,-9.0,-22.0,-37.0,5.0,4.0,-30.0,0.99755859375,-0.234375,0.1875,24.939024390243905,-14.817073170731708,-21.646341463414636
11_36_02_455,15.0,17.0,5.0,-4.0,-27.0,-25.0,4.0,30.0,0.9365234375,-0.2978515625,0.22265625,20.243902439024392,-13.353658536585368,-20.853658536585368
11_36_02_511,9.0,23.0,-3.0,49.0,-45.0,-88.0,29.0,43.0,1.048828125,-0.28125,0.21484375,-45.304878048780495,-6.52439024390244,18.53658536585366
11_36_02_511,-119.0,-22.0,64.0,51.0,32.0,118.0,31.0,-27.0,0.94677734375,-0.26708984375,0.173828125,-64.20731707317074,-18.04878048780488,6.829268292682928
11_36_02_511,-95.0,-39.0,-30.0,-54.0,-21.0,49.0,-29.0,8.0,0.89990234375,-0.04345703125,0.14501953125,-27.743902439024392,-14.695121951219514,6.219512195121951
11_36_02_511,4.0,27.0,17.0,-32.0,-5.0,-99.0,-20.0,-91.0,1.0205078125,-0.05810546875,0.3466796875,-0.6707317073170732,-14.02439024390244,-0.853658536585366
11_36_02_511,38.0,18.0,19.0,52.0,110.0,5.0,-12.0,74.0,1.01171875,-0.26220703125,0.15185546875,-5.487804878048781,-10.426829268292684,-2.987804878048781
11_36_02_511,-17.0,19.0,-11.0,-33.0,-85.0,105.0,31.0,-6.0,1.046875,-0.18310546875,0.1513671875,-6.463414634146342,-20.60975609756098,-6.036585365853659
11_36_02_511,-48.0,27.0,14.0,11.0,58.0,-70.0,-28.0,27.0,0.99609375,-0.11474609375,0.15869140625,1.829268292682927,-25.914634146341466,-10.30487804878049
11_36_02_511,93.0,50.0,1.0,51.0,52.0,42.0,23.0,27.0,1.0283203125,-0.1298828125,0.14013671875,8.658536585365855,-18.719512195121954,-14.451219512195124
11_36_02_511,-128.0,-128.0,-7.0,-10.0,-19.0,-6.0,-31.0,-42.0,1.02294921875,-0.17138671875,0.17138671875,15.975609756097562,-18.84146341463415,-18.231707317073173
11_36_02_511,-86.0,-59.0,-50.0,-60.0,-32.0,-13.0,-1.0,-8.0,1.01904296875,-0.1669921875,0.16064453125,22.5609756097561,-15.426829268292684,-21.097560975609756
11_36_02_551,21.0,16.0,18.0,104.0,66.0,9.0,-86.0,-28.0,1.0322265625,-0.134765625,0.177734375,51.707317073170735,13.78048780487805,22.98780487804878
11_36_02_551,31.0,-47.0,-2.0,-73.0,-29.0,7.0,-20.0,-27.0,1.115234375,-0.259765625,0.1123046875,16.646341463414636,7.134146341463415,22.682926829268293
11_36_02_551,32.0,7.0,3.0,-44.0,-78.0,-52.0,20.0,74.0,1.017578125,-0.2451171875,0.025390625,-22.012195121951223,3.1097560975609757,23.414634146341466
11_36_02_551,-124.0,-47.0,-85.0,-86.0,-96.0,-121.0,-20.0,-15.0,1.048828125,-0.28125,0.21484375,-45.304878048780495,-6.52439024390244,18.53658536585366
11_36_02_551,48.0,12.0,-56.0,7.0,-45.0,-68.0,2.0,43.0,0.94677734375,-0.26708984375,0.173828125,-64.20731707317074,-18.04878048780488,6.829268292682928
11_36_02_551,-5.0,-21.0,16.0,63.0,127.0,83.0,20.0,2.0,0.89990234375,-0.04345703125,0.14501953125,-27.743902439024392,-14.695121951219514,6.219512195121951
11_36_02_551,9.0,9.0,2.0,-69.0,-75.0,127.0,-18.0,-52.0,1.0205078125,-0.05810546875,0.3466796875,-0.6707317073170732,-14.02439024390244,-0.853658536585366
11_36_02_551,-54.0,1.0,-23.0,-59.0,-15.0,-128.0,-12.0,-7.0,1.01171875,-0.26220703125,0.15185546875,-5.487804878048781,-10.426829268292684,-2.987804878048781
11_36_02_551,9.0,23.0,-3.0,49.0,-45.0,-88.0,29.0,43.0,1.046875,-0.18310546875,0.1513671875,-6.463414634146342,-20.60975609756098,-6.036585365853659
11_36_02_551,-119.0,-22.0,64.0,51.0,32.0,118.0,31.0,-27.0,0.99609375,-0.11474609375,0.15869140625,1.829268292682927,-25.914634146341466,-10.30487804878049
11_36_02_607,10.0,-16.0,7.0,113.0,126.0,11.0,-3.0,-49.0,0.92724609375,-0.525390625,0.21923828125,-6.341463414634147,1.8902439024390245,8.292682926829269
11_36_02_607,-6.0,6.0,-7.0,10.0,76.0,57.0,-35.0,89.0,0.935546875,-0.28662109375,0.271484375,14.085365853658537,7.865853658536586,15.30487804878049
11_36_02_607,-40.0,-28.0,-4.0,2.0,-78.0,12.0,-33.0,-128.0,1.0322265625,-0.134765625,0.177734375,51.707317073170735,13.78048780487805,22.98780487804878
11_36_02_607,-128.0,13.0,18.0,-32.0,-45.0,-57.0,4.0,23.0,1.115234375,-0.259765625,0.1123046875,16.646341463414636,7.134146341463415,22.682926829268293
11_36_02_607,66.0,18.0,-30.0,2.0,38.0,-34.0,9.0,40.0,1.017578125,-0.2451171875,0.025390625,-22.012195121951223,3.1097560975609757,23.414634146341466
11_36_02_607,18.0,25.0,16.0,-67.0,-128.0,30.0,4.0,15.0,1.048828125,-0.28125,0.21484375,-45.304878048780495,-6.52439024390244,18.53658536585366
11_36_02_607,-47.0,-25.0,-8.0,91.0,15.0,-113.0,-2.0,3.0,0.94677734375,-0.26708984375,0.173828125,-64.20731707317074,-18.04878048780488,6.829268292682928
11_36_02_607,19.0,-17.0,6.0,91.0,124.0,61.0,-2.0,-51.0,0.89990234375,-0.04345703125,0.14501953125,-27.743902439024392,-14.695121951219514,6.219512195121951
11_36_02_607,-46.0,23.0,-3.0,-45.0,94.0,127.0,-4.0,11.0,1.0205078125,-0.05810546875,0.3466796875,-0.6707317073170732,-14.02439024390244,-0.853658536585366
11_36_02_607,12.0,-17.0,-5.0,-111.0,-128.0,-92.0,-4.0,16.0,1.01171875,-0.26220703125,0.15185546875,-5.487804878048781,-10.426829268292684,-2.987804878048781
11_36_02_655,27.0,6.0,18.0,19.0,-12.0,-37.0,19.0,36.0,1.15087890625,-0.1376953125,0.1103515625,19.512195121951223,8.536585365853659,10.30487804878049
11_36_02_655,-4.0,-4.0,-32.0,45.0,-52.0,-45.0,-11.0,8.0,1.03662109375,-0.35400390625,0.0673828125,22.682926829268293,-0.12195121951219513,5.548780487804878
11_36_02_655,6.0,15.0,16.0,33.0,54.0,13.0,10.0,25.0,0.92724609375,-0.525390625,0.21923828125,-6.341463414634147,1.8902439024390245,8.292682926829269
11_36_02_655,8.0,16.0,3.0,41.0,127.0,114.0,-26.0,-95.0,0.935546875,-0.28662109375,0.271484375,14.085365853658537,7.865853658536586,15.30487804878049
11_36_02_655,-3.0,-19.0,13.0,-23.0,-30.0,6.0,3.0,63.0,1.0322265625,-0.134765625,0.177734375,51.707317073170735,13.78048780487805,22.98780487804878
11_36_02_655,21.0,-23.0,-71.0,-83.0,-59.0,-102.0,-58.0,-29.0,1.115234375,-0.259765625,0.1123046875,16.646341463414636,7.134146341463415,22.682926829268293
11_36_02_655,-49.0,9.0,-15.0,-95.0,-53.0,2.0,38.0,32.0,1.017578125,-0.2451171875,0.025390625,-22.012195121951223,3.1097560975609757,23.414634146341466
11_36_02_655,58.0,39.0,28.0,-20.0,-119.0,-46.0,15.0,49.0,1.048828125,-0.28125,0.21484375,-45.304878048780495,-6.52439024390244,18.53658536585366
11_36_02_655,10.0,-16.0,7.0,113.0,126.0,11.0,-3.0,-49.0,0.94677734375,-0.26708984375,0.173828125,-64.20731707317074,-18.04878048780488,6.829268292682928
11_36_02_655,-6.0,6.0,-7.0,10.0,76.0,57.0,-35.0,89.0,0.89990234375,-0.04345703125,0.14501953125,-27.743902439024392,-14.695121951219514,6.219512195121951
11_36_02_707,-14.0,-15.0,-6.0,4.0,-84.0,-58.0,-1.0,16.0,1.125,-0.2666015625,0.28955078125,11.951219512195124,22.926829268292686,21.76829268292683
11_36_02_707,-29.0,-8.0,3.0,85.0,72.0,0.0,37.0,17.0,1.05810546875,-0.26708984375,0.28271484375,-0.12195121951219513,24.02439024390244,22.865853658536587
11_36_02_707,-36.0,-8.0,13.0,-12.0,18.0,94.0,-5.0,-22.0,1.12060546875,-0.2802734375,0.232421875,-11.585365853658537,22.621951219512198,20.79268292682927
11_36_02_707,9.0,12.0,-16.0,-42.0,59.0,2.0,25.0,-80.0,1.11181640625,-0.1982421875,0.15283203125,-10.0,17.378048780487806,17.073170731707318
11_36_02_707,5.0,-15.0,4.0,27.0,-20.0,-35.0,-6.0,29.0,1.15087890625,-0.1376953125,0.1103515625,19.512195121951223,8.536585365853659,10.30487804878049
11_36_02_707,47.0,15.0,16.0,20.0,123.0,120.0,-4.0,19.0,1.03662109375,-0.35400390625,0.0673828125,22.682926829268293,-0.12195121951219513,5.548780487804878
11_36_02_707,38.0,12.0,5.0,-16.0,-114.0,-62.0,-33.0,-6.0,0.92724609375,-0.525390625,0.21923828125,-6.341463414634147,1.8902439024390245,8.292682926829269
11_36_02_707,-15.0,-1.0,-29.0,-51.0,-18.0,-34.0,15.0,-45.0,0.935546875,-0.28662109375,0.271484375,14.085365853658537,7.865853658536586,15.30487804878049
11_36_02_707,-103.0,9.0,12.0,42.0,37.0,-13.0,-23.0,17.0,1.0322265625,-0.134765625,0.177734375,51.707317073170735,13.78048780487805,22.98780487804878
11_36_02_707,36.0,-2.0,-26.0,2.0,-46.0,-36.0,-8.0,-15.0,1.115234375,-0.259765625,0.1123046875,16.646341463414636,7.134146341463415,22.682926829268293
11_36_02_760,-17.0,0.0,2.0,6.0,-128.0,-70.0,-2.0,-44.0,1.0810546875,-0.23681640625,0.16650390625,27.31707317073171,27.987804878048784,28.170731707317074
11_36_02_760,20.0,-29.0,-3.0,76.0,28.0,-37.0,9.0,-8.0,1.12451171875,-0.283203125,0.2294921875,27.012195121951223,25.0609756097561,25.670731707317074
11_36_02_760,16.0,7.0,18.0,82.0,127.0,127.0,27.0,13.0,1.125,-0.2666015625,0.28955078125,11.951219512195124,22.926829268292686,21.76829268292683
11_36_02_760,-34.0,17.0,21.0,4.0,23.0,102.0,0.0,0.0,1.05810546875,-0.26708984375,0.28271484375,-0.12195121951219513,24.02439024390244,22.865853658536587
11_36_02_760,24.0,11.0,-1.0,-44.0,-12.0,52.0,-10.0,-29.0,1.12060546875,-0.2802734375,0.232421875,-11.585365853658537,22.621951219512198,20.79268292682927
11_36_02_760,-9.0,-24.0,-24.0,-28.0,-23.0,-128.0,-7.0,8.0,1.11181640625,-0.1982421875,0.15283203125,-10.0,17.378048780487806,17.073170731707318
11_36_02_760,11.0,18.0,4.0,-10.0,-44.0,8.0,-3.0,13.0,1.15087890625,-0.1376953125,0.1103515625,19.512195121951223,8.536585365853659,10.30487804878049
11_36_02_760,-11.0,-13.0,-18.0,-80.0,-92.0,-64.0,-13.0,-54.0,1.03662109375,-0.35400390625,0.0673828125,22.682926829268293,-0.12195121951219513,5.548780487804878
11_36_02_760,-14.0,-15.0,-6.0,4.0,-84.0,-58.0,-1.0,16.0,0.92724609375,-0.525390625,0.21923828125,-6.341463414634147,1.8902439024390245,8.292682926829269
11_36_02_760,-29.0,-8.0,3.0,85.0,72.0,0.0,37.0,17.0,0.935546875,-0.28662109375,0.271484375,14.085365853658537,7.865853658536586,15.30487804878049
11_36_02_809,19.0,10.0,13.0,127.0,127.0,127.0,-19.0,3.0,0.97216796875,-0.4267578125,0.27099609375,12.439024390243903,32.13414634146342,31.402439024390247
11_36_02_809,25.0,29.0,34.0,-3.0,104.0,17.0,19.0,15.0,0.95947265625,-0.349609375,0.19287109375,15.609756097560977,30.792682926829272,29.634146341463417
11_36_02_809,-1.0,-6.0,-9.0,-118.0,-128.0,-87.0,1.0,2.0,1.0810546875,-0.23681640625,0.16650390625,27.31707317073171,27.987804878048784,28.170731707317074
11_36_02_809,3.0,5.0,-8.0,12.0,-5.0,-123.0,4.0,11.0,1.12451171875,-0.283203125,0.2294921875,27.012195121951223,25.0609756097561,25.670731707317074
11_36_02_809,10.0,9.0,-4.0,-1.0,25.0,127.0,28.0,30.0,1.125,-0.2666015625,0.28955078125,11.951219512195124,22.926829268292686,21.76829268292683
11_36_02_809,-8.0,7.0,6.0,10.0,67.0,-128.0,8.0,-43.0,1.05810546875,-0.26708984375,0.28271484375,-0.12195121951219513,24.02439024390244,22.865853658536587
11_36_02_809,18.0,20.0,2.0,48.0,102.0,116.0,0.0,35.0,1.12060546875,-0.2802734375,0.232421875,-11.585365853658537,22.621951219512198,20.79268292682927
11_36_02_809,15.0,2.0,-1.0,-66.0,75.0,86.0,-42.0,-73.0,1.11181640625,-0.1982421875,0.15283203125,-10.0,17.378048780487806,17.073170731707318
11_36_02_809,-4.0,-16.0,-17.0,-88.0,-128.0,-128.0,0.0,35.0,1.15087890625,-0.1376953125,0.1103515625,19.512195121951223,8.536585365853659,10.30487804878049
11_36_02_809,29.0,-11.0,-11.0,14.0,49.0,-25.0,-10.0,29.0,1.03662109375,-0.35400390625,0.0673828125,22.682926829268293,-0.12195121951219513,5.548780487804878
11_36_02_858,-86.0,-29.0,-37.0,-19.0,-128.0,-128.0,-22.0,-128.0,0.81201171875,-0.36376953125,0.25146484375,4.146341463414634,42.86585365853659,33.65853658536586
11_36_02_858,23.0,2.0,21.0,102.0,127.0,127.0,30.0,38.0,0.90185546875,-0.30224609375,0.28515625,13.841463414634148,42.43902439024391,37.743902439024396
11_36_02_858,10.0,12.0,15.0,59.0,109.0,58.0,-24.0,2.0,0.96435546875,-0.34716796875,0.30224609375,15.975609756097562,36.09756097560976,37.80487804878049
11_36_02_858,-8.0,9.0,-3.0,-94.0,-110.0,-9.0,28.0,10.0,0.97216796875,-0.4267578125,0.27099609375,12.439024390243903,32.13414634146342,31.402439024390247
11_36_02_858,-1.0,-5.0,-16.0,-92.0,-112.0,-23.0,-11.0,-3.0,0.95947265625,-0.349609375,0.19287109375,15.609756097560977,30.792682926829272,29.634146341463417
11_36_02_858,-3.0,-13.0,-7.0,22.0,-58.0,-127.0,-9.0,-16.0,1.0810546875,-0.23681640625,0.16650390625,27.31707317073171,27.987804878048784,28.170731707317074
11_36_02_858,-33.0,-6.0,1.0,53.0,98.0,18.0,11.0,-28.0,1.12451171875,-0.283203125,0.2294921875,27.012195121951223,25.0609756097561,25.670731707317074
11_36_02_858,-2.0,-61.0,-2.0,4.0,43.0,85.0,-8.0,-18.0,1.125,-0.2666015625,0.28955078125,11.951219512195124,22.926829268292686,21.76829268292683
11_36_02_858,-47.0,5.0,7.0,7.0,-53.0,-16.0,-19.0,21.0,1.05810546875,-0.26708984375,0.28271484375,-0.12195121951219513,24.02439024390244,22.865853658536587
11_36_02_858,16.0,-3.0,3.0,-9.0,35.0,28.0,-6.0,-69.0,1.12060546875,-0.2802734375,0.232421875,-11.585365853658537,22.621951219512198,20.79268292682927
11_36_02_913,-39.0,-6.0,13.0,8.0,-59.0,-12.0,31.0,27.0,0.8359375,-0.4150390625,0.36962890625,2.8658536585365857,47.31707317073171,34.63414634146342
11_36_02_913,26.0,8.0,-14.0,46.0,116.0,56.0,-2.0,-33.0,0.89013671875,-0.39990234375,0.31591796875,5.914634146341464,46.03658536585366,31.463414634146343
11_36_02_913,23.0,-4.0,16.0,-27.0,71.0,56.0,-11.0,31.0,0.81201171875,-0.36376953125,0.25146484375,4.146341463414634,42.86585365853659,33.65853658536586
11_36_02_913,-4.0,-8.0,-5.0,-21.0,-128.0,-101.0,14.0,11.0,0.90185546875,-0.30224609375,0.28515625,13.841463414634148,42.43902439024391,37.743902439024396
11_36_02_913,-20.0,-4.0,-5.0,-67.0,-102.0,8.0,26.0,68.0,0.96435546875,-0.34716796875,0.30224609375,15.975609756097562,36.09756097560976,37.80487804878049
11_36_02_913,32.0,-11.0,-14.0,13.0,8.0,-67.0,6.0,-34.0,0.97216796875,-0.4267578125,0.27099609375,12.439024390243903,32.13414634146342,31.402439024390247
11_36_02_913,11.0,29.0,4.0,67.0,127.0,40.0,-37.0,-116.0,0.95947265625,-0.349609375,0.19287109375,15.609756097560977,30.792682926829272,29.634146341463417
11_36_02_913,15.0,-1.0,14.0,-56.0,-39.0,96.0,12.0,61.0,1.0810546875,-0.23681640625,0.16650390625,27.31707317073171,27.987804878048784,28.170731707317074
11_36_02_913,-86.0,-29.0,-37.0,-19.0,-128.0,-128.0,-22.0,-128.0,1.12451171875,-0.283203125,0.2294921875,27.012195121951223,25.0609756097561,25.670731707317074
11_36_02_913,23.0,2.0,21.0,102.0,127.0,127.0,30.0,38.0,1.125,-0.2666015625,0.28955078125,11.951219512195124,22.926829268292686,21.76829268292683
11_36_02_958,13.0,3.0,17.0,40.0,55.0,37.0,57.0,39.0,0.81591796875,-0.4365234375,0.376953125,7.073170731707318,53.53658536585366,33.90243902439025
11_36_02_958,1.0,5.0,-9.0,-70.0,-38.0,-53.0,-43.0,-57.0,0.845703125,-0.40576171875,0.36572265625,8.719512195121952,51.82926829268293,32.926829268292686
11_36_02_958,-22.0,-37.0,-14.0,-58.0,-128.0,-128.0,-2.0,-6.0,0.8505859375,-0.38232421875,0.38720703125,7.01219512195122,49.81707317073171,33.04878048780488
11_36_02_958,18.0,-10.0,-5.0,51.0,127.0,127.0,2.0,-13.0,0.8359375,-0.4150390625,0.36962890625,2.8658536585365857,47.31707317073171,34.63414634146342
11_36_02_958,-36.0,11.0,12.0,71.0,126.0,88.0,-2.0,17.0,0.89013671875,-0.39990234375,0.31591796875,5.914634146341464,46.03658536585366,31.463414634146343
11_36_02_958,8.0,-9.0,32.0,41.0,-30.0,-69.0,2.0,-4.0,0.81201171875,-0.36376953125,0.25146484375,4.146341463414634,42.86585365853659,33.65853658536586
11_36_02_958,3.0,2.0,-7.0,20.0,88.0,41.0,15.0,-21.0,0.90185546875,-0.30224609375,0.28515625,13.841463414634148,42.43902439024391,37.743902439024396
11_36_02_958,10.0,6.0,6.0,-13.0,-17.0,68.0,5.0,30.0,0.96435546875,-0.34716796875,0.30224609375,15.975609756097562,36.09756097560976,37.80487804878049
11_36_02_958,-13.0,-20.0,-16.0,-60.0,-77.0,-109.0,-29.0,-14.0,0.97216796875,-0.4267578125,0.27099609375,12.439024390243903,32.13414634146342,31.402439024390247
11_36_02_958,15.0,16.0,-15.0,-5.0,13.0,6.0,-9.0,-6.0,0.95947265625,-0.349609375,0.19287109375,15.609756097560977,30.792682926829272,29.634146341463417
11_36_03_009,-3.0,-8.0,-7.0,-16.0,7.0,33.0,-9.0,23.0,0.7763671875,-0.40185546875,0.3564453125,7.865853658536586,60.060975609756106,36.768292682926834
11_36_03_009,17.0,5.0,8.0,-39.0,32.0,9.0,-17.0,-35.0,0.759765625,-0.46142578125,0.38330078125,4.573170731707317,56.768292682926834,34.75609756097561
11_36_03_009,-41.0,-19.0,-24.0,-9.0,-128.0,-105.0,-12.0,-100.0,0.74267578125,-0.46142578125,0.3955078125,2.378048780487805,55.0609756097561,35.73170731707317
11_36_03_009,38.0,15.0,-10.0,-23.0,-2.0,-6.0,-40.0,72.0,0.81591796875,-0.4365234375,0.376953125,7.073170731707318,53.53658536585366,33.90243902439025
11_36_03_009,13.0,-6.0,9.0,2.0,30.0,-20.0,38.0,27.0,0.845703125,-0.40576171875,0.36572265625,8.719512195121952,51.82926829268293,32.926829268292686
11_36_03_009,22.0,32.0,6.0,17.0,-4.0,120.0,26.0,22.0,0.8505859375,-0.38232421875,0.38720703125,7.01219512195122,49.81707317073171,33.04878048780488
11_36_03_009,0.0,5.0,-13.0,25.0,22.0,-53.0,2.0,21.0,0.8359375,-0.4150390625,0.36962890625,2.8658536585365857,47.31707317073171,34.63414634146342
11_36_03_009,-19.0,21.0,14.0,16.0,71.0,119.0,-6.0,-38.0,0.89013671875,-0.39990234375,0.31591796875,5.914634146341464,46.03658536585366,31.463414634146343
11_36_03_009,4.0,8.0,-15.0,0.0,18.0,-82.0,18.0,36.0,0.81201171875,-0.36376953125,0.25146484375,4.146341463414634,42.86585365853659,33.65853658536586
11_36_03_009,-3.0,-6.0,-3.0,0.0,-10.0,-20.0,-11.0,65.0,0.90185546875,-0.30224609375,0.28515625,13.841463414634148,42.43902439024391,37.743902439024396
11_36_03_067,-10.0,-40.0,-1.0,-6.0,70.0,-30.0,-22.0,-43.0,0.68896484375,-0.53955078125,0.39404296875,-7.8048780487804885,59.32926829268293,36.646341463414636
11_36_03_067,25.0,36.0,12.0,-20.0,-85.0,-51.0,-3.0,60.0,0.67578125,-0.42724609375,0.3935546875,-2.3170731707317076,58.47560975609757,37.5
11_36_03_067,-5.0,-16.0,2.0,-40.0,-128.0,-128.0,33.0,10.0,0.7763671875,-0.40185546875,0.3564453125,7.865853658536586,60.060975609756106,36.768292682926834
11_36_03_067,21.0,69.0,0.0,98.0,127.0,62.0,5.0,-36.0,0.759765625,-0.46142578125,0.38330078125,4.573170731707317,56.768292682926834,34.75609756097561
11_36_03_067,31.0,17.0,22.0,54.0,127.0,127.0,0.0,51.0,0.74267578125,-0.46142578125,0.3955078125,2.378048780487805,55.0609756097561,35.73170731707317
11_36_03_067,37.0,23.0,-14.0,-14.0,-112.0,-108.0,-17.0,-52.0,0.81591796875,-0.4365234375,0.376953125,7.073170731707318,53.53658536585366,33.90243902439025
11_36_03_067,-26.0,-36.0,-4.0,-39.0,-47.0,-13.0,27.0,34.0,0.845703125,-0.40576171875,0.36572265625,8.719512195121952,51.82926829268293,32.926829268292686
11_36_03_067,48.0,-8.0,-5.0,-3.0,3.0,17.0,-6.0,25.0,0.8505859375,-0.38232421875,0.38720703125,7.01219512195122,49.81707317073171,33.04878048780488
11_36_03_067,-3.0,29.0,-8.0,-2.0,23.0,4.0,-26.0,-30.0,0.8359375,-0.4150390625,0.36962890625,2.8658536585365857,47.31707317073171,34.63414634146342
11_36_03_067,18.0,2.0,7.0,16.0,-27.0,-26.0,23.0,49.0,0.89013671875,-0.39990234375,0.31591796875,5.914634146341464,46.03658536585366,31.463414634146343
11_36_03_108,-62.0,-21.0,-11.0,-25.0,-123.0,-28.0,5.0,-108.0,0.62890625,-0.4638671875,0.486328125,-1.829268292682927,58.71951219512196,39.32926829268293
11_36_03_108,32.0,32.0,-12.0,46.0,122.0,107.0,20.0,10.0,0.6953125,-0.4296875,0.46435546875,2.1951219512195124,59.268292682926834,38.59756097560976
11_36_03_108,23.0,21.0,30.0,46.0,127.0,74.0,12.0,21.0,0.68505859375,-0.513671875,0.44140625,-1.9512195121951221,60.85365853658537,37.31707317073171
11_36_03_108,11.0,-26.0,4.0,-34.0,-128.0,-65.0,-5.0,13.0,0.68896484375,-0.53955078125,0.39404296875,-7.8048780487804885,59.32926829268293,36.646341463414636
11_36_03_108,0.0,40.0,-4.0,4.0,62.0,41.0,15.0,-4.0,0.67578125,-0.42724609375,0.3935546875,-2.3170731707317076,58.47560975609757,37.5
11_36_03_108,-6.0,30.0,10.0,52.0,43.0,21.0,-27.0,-64.0,0.7763671875,-0.40185546875,0.3564453125,7.865853658536586,60.060975609756106,36.768292682926834
11_36_03_108,-10.0,-13.0,-7.0,-77.0,-108.0,-94.0,-9.0,32.0,0.759765625,-0.46142578125,0.38330078125,4.573170731707317,56.768292682926834,34.75609756097561
11_36_03_108,5.0,16.0,-11.0,-70.0,-128.0,-102.0,11.0,44.0,0.74267578125,-0.46142578125,0.3955078125,2.378048780487805,55.0609756097561,35.73170731707317
11_36_03_108,-1.0,-20.0,1.0,61.0,70.0,-22.0,12.0,-128.0,0.81591796875,-0.4365234375,0.376953125,7.073170731707318,53.53658536585366,33.90243902439025
11_36_03_108,6.0,-8.0,22.0,62.0,123.0,127.0,31.0,108.0,0.845703125,-0.40576171875,0.36572265625,8.719512195121952,51.82926829268293,32.926829268292686
11_36_03_165,-33.0,-46.0,0.0,57.0,127.0,66.0,-38.0,-16.0,0.60693359375,-0.51904296875,0.55029296875,3.1707317073170733,56.768292682926834,32.86585365853659
11_36_03_165,37.0,15.0,11.0,49.0,49.0,126.0,31.0,16.0,0.58154296875,-0.5380859375,0.48681640625,-3.8414634146341466,58.29268292682927,36.09756097560976
11_36_03_165,4.0,14.0,10.0,0.0,15.0,-43.0,9.0,23.0,0.62890625,-0.4638671875,0.486328125,-1.829268292682927,58.71951219512196,39.32926829268293
11_36_03_165,23.0,29.0,7.0,-41.0,-60.0,-75.0,-2.0,15.0,0.6953125,-0.4296875,0.46435546875,2.1951219512195124,59.268292682926834,38.59756097560976
11_36_03_165,19.0,9.0,-1.0,-30.0,-53.0,-60.0,1.0,43.0,0.68505859375,-0.513671875,0.44140625,-1.9512195121951221,60.85365853658537,37.31707317073171
11_36_03_165,-22.0,-75.0,2.0,2.0,10.0,59.0,-51.0,-10.0,0.68896484375,-0.53955078125,0.39404296875,-7.8048780487804885,59.32926829268293,36.646341463414636
11_36_03_165,-62.0,-21.0,-11.0,-25.0,-123.0,-28.0,5.0,-108.0,0.67578125,-0.42724609375,0.3935546875,-2.3170731707317076,58.47560975609757,37.5
11_36_03_165,32.0,32.0,-12.0,46.0,122.0,107.0,20.0,10.0,0.7763671875,-0.40185546875,0.3564453125,7.865853658536586,60.060975609756106,36.768292682926834
11_36_03_165,23.0,21.0,30.0,46.0,127.0,74.0,12.0,21.0,0.759765625,-0.46142578125,0.38330078125,4.573170731707317,56.768292682926834,34.75609756097561
11_36_03_165,11.0,-26.0,4.0,-34.0,-128.0,-65.0,-5.0,13.0,0.74267578125,-0.46142578125,0.3955078125,2.378048780487805,55.0609756097561,35.73170731707317
11_36_03_210,-3.0,19.0,-12.0,16.0,-2.0,-40.0,-3.0,44.0,0.52099609375,-0.58154296875,0.572265625,-1.524390243902439,52.987804878048784,30.975609756097565
11_36_03_210,22.0,16.0,13.0,8.0,73.0,36.0,-20.0,20.0,0.56103515625,-0.51318359375,0.5517578125,-6.585365853658537,55.79268292682927,29.75609756097561
11_36_03_210,-3.0,5.0,1.0,-22.0,-67.0,2.0,-3.0,-22.0,0.607421875,-0.4638671875,0.56005859375,2.073170731707317,56.34146341463415,32.43902439024391
11_36_03_210,-8.0,-5.0,-2.0,7.0,8.0,-39.0,11.0,72.0,0.60693359375,-0.51904296875,0.55029296875,3.1707317073170733,56.768292682926834,32.86585365853659
11_36_03_210,-16.0,18.0,20.0,35.0,41.0,68.0,15.0,-39.0,0.58154296875,-0.5380859375,0.48681640625,-3.8414634146341466,58.29268292682927,36.09756097560976
11_36_03_210,3.0,-44.0,-4.0,0.0,-36.0,-37.0,-17.0,-33.0,0.62890625,-0.4638671875,0.486328125,-1.829268292682927,58.71951219512196,39.32926829268293
11_36_03_210,0.0,6.0,-20.0,-10.0,5.0,-47.0,-10.0,-19.0,0.6953125,-0.4296875,0.46435546875,2.1951219512195124,59.268292682926834,38.59756097560976
11_36_03_210,12.0,35.0,18.0,-11.0,-79.0,19.0,-3.0,9.0,0.68505859375,-0.513671875,0.44140625,-1.9512195121951221,60.85365853658537,37.31707317073171
11_36_03_210,-37.0,-8.0,-6.0,7.0,8.0,-10.0,26.0,32.0,0.68896484375,-0.53955078125,0.39404296875,-7.8048780487804885,59.32926829268293,36.646341463414636
11_36_03_210,-4.0,-6.0,2.0,33.0,58.0,54.0,3.0,54.0,0.67578125,-0.42724609375,0.3935546875,-2.3170731707317076,58.47560975609757,37.5
11_36_03_263,18.0,22.0,7.0,39.0,36.0,-20.0,7.0,-36.0,0.5380859375,-0.50927734375,0.5234375,8.902439024390244,50.0609756097561,25.54878048780488
11_36_03_263,9.0,10.0,11.0,41.0,127.0,94.0,19.0,40.0,0.54443359375,-0.53759765625,0.55322265625,7.926829268292684,53.10975609756098,29.87804878048781
11_36_03_263,16.0,9.0,-4.0,-51.0,-128.0,-61.0,-1.0,-3.0,0.52099609375,-0.58154296875,0.572265625,-1.524390243902439,52.987804878048784,30.975609756097565
11_36_03_263,-52.0,-9.0,-19.0,-43.0,-85.0,-62.0,-6.0,-22.0,0.56103515625,-0.51318359375,0.5517578125,-6.585365853658537,55.79268292682927,29.75609756097561
11_36_03_263,-37.0,-19.0,-8.0,19.0,121.0,56.0,19.0,21.0,0.607421875,-0.4638671875,0.56005859375,2.073170731707317,56.34146341463415,32.43902439024391
11_36_03_263,20.0,1.0,-2.0,-40.0,-60.0,4.0,-19.0,18.0,0.60693359375,-0.51904296875,0.55029296875,3.1707317073170733,56.768292682926834,32.86585365853659
11_36_03_263,-3.0,19.0,-12.0,16.0,-2.0,-40.0,-3.0,44.0,0.58154296875,-0.5380859375,0.48681640625,-3.8414634146341466,58.29268292682927,36.09756097560976
11_36_03_263,22.0,16.0,13.0,8.0,73.0,36.0,-20.0,20.0,0.62890625,-0.4638671875,0.486328125,-1.829268292682927,58.71951219512196,39.32926829268293
11_36_03_263,-3.0,5.0,1.0,-22.0,-67.0,2.0,-3.0,-22.0,0.6953125,-0.4296875,0.46435546875,2.1951219512195124,59.268292682926834,38.59756097560976
11_36_03_263,-8.0,-5.0,-2.0,7.0,8.0,-39.0,11.0,72.0,0.68505859375,-0.513671875,0.44140625,-1.9512195121951221,60.85365853658537,37.31707317073171
11_36_03_315,13.0,2.0,64.0,-76.0,-101.0,-86.0,49.0,-108.0,0.470703125,-0.60595703125,0.61376953125,4.939024390243903,41.03658536585366,18.170731707317074
11_36_03_315,4.0,-12.0,-71.0,15.0,64.0,24.0,-67.0,55.0,0.455078125,-0.53076171875,0.59619140625,1.2195121951219514,47.43902439024391,19.451219512195124
11_36_03_315,-27.0,-15.0,56.0,126.0,127.0,89.0,66.0,-15.0,0.56103515625,-0.50048828125,0.55615234375,3.9024390243902443,48.71951219512196,20.670731707317074
11_36_03_315,8.0,28.0,-18.0,-34.0,-1.0,20.0,-111.0,-41.0,0.5380859375,-0.50927734375,0.5234375,8.902439024390244,50.0609756097561,25.54878048780488
11_36_03_315,46.0,15.0,-9.0,31.0,-47.0,-31.0,37.0,45.0,0.54443359375,-0.53759765625,0.55322265625,7.926829268292684,53.10975609756098,29.87804878048781
11_36_03_315,-35.0,5.0,0.0,-42.0,-33.0,11.0,48.0,55.0,0.52099609375,-0.58154296875,0.572265625,-1.524390243902439,52.987804878048784,30.975609756097565
11_36_03_315,-26.0,-62.0,-31.0,-10.0,39.0,20.0,-12.0,-93.0,0.56103515625,-0.51318359375,0.5517578125,-6.585365853658537,55.79268292682927,29.75609756097561
11_36_03_315,22.0,22.0,-6.0,25.0,43.0,-12.0,-72.0,55.0,0.607421875,-0.4638671875,0.56005859375,2.073170731707317,56.34146341463415,32.43902439024391
11_36_03_315,-17.0,-13.0,-9.0,-33.0,-47.0,-24.0,50.0,0.0,0.60693359375,-0.51904296875,0.55029296875,3.1707317073170733,56.768292682926834,32.86585365853659
11_36_03_315,-64.0,-13.0,-13.0,-71.0,-55.0,-43.0,2.0,-6.0,0.58154296875,-0.5380859375,0.48681640625,-3.8414634146341466,58.29268292682927,36.09756097560976
11_36_03_366,-1.0,-2.0,13.0,33.0,37.0,19.0,23.0,-28.0,0.380859375,-0.455078125,0.67529296875,7.25609756097561,34.390243902439025,12.621951219512196
11_36_03_366,-23.0,-3.0,-11.0,-14.0,1.0,-9.0,-1.0,41.0,0.5205078125,-0.4580078125,0.5947265625,26.34146341463415,39.08536585365854,3.8414634146341466
11_36_03_366,4.0,-23.0,3.0,-44.0,-19.0,-8.0,-3.0,22.0,0.57958984375,-0.57470703125,0.5712890625,21.097560975609756,38.78048780487805,9.451219512195122
11_36_03_366,-6.0,-17.0,-22.0,-57.0,-47.0,-31.0,-6.0,-30.0,0.470703125,-0.60595703125,0.61376953125,4.939024390243903,41.03658536585366,18.170731707317074
11_36_03_366,-11.0,-40.0,1.0,24.0,-38.0,-27.0,-5.0,-17.0,0.455078125,-0.53076171875,0.59619140625,1.2195121951219514,47.43902439024391,19.451219512195124
11_36_03_366,-2.0,33.0,2.0,-41.0,22.0,-9.0,17.0,15.0,0.56103515625,-0.50048828125,0.55615234375,3.9024390243902443,48.71951219512196,20.670731707317074
11_36_03_366,36.0,-8.0,-48.0,-21.0,-14.0,63.0,24.0,2.0,0.5380859375,-0.50927734375,0.5234375,8.902439024390244,50.0609756097561,25.54878048780488
11_36_03_366,17.0,-21.0,-27.0,12.0,-1.0,-67.0,-24.0,16.0,0.54443359375,-0.53759765625,0.55322265625,7.926829268292684,53.10975609756098,29.87804878048781
11_36_03_366,-37.0,-49.0,49.0,-9.0,-2.0,-11.0,-38.0,6.0,0.52099609375,-0.58154296875,0.572265625,-1.524390243902439,52.987804878048784,30.975609756097565
11_36_03_366,4.0,25.0,15.0,-16.0,27.0,72.0,57.0,-27.0,0.56103515625,-0.51318359375,0.5517578125,-6.585365853658537,55.79268292682927,29.75609756097561
11_36_03_424,-10.0,6.0,-2.0,0.0,-61.0,-35.0,-11.0,-89.0,0.48974609375,-0.54638671875,0.671875,14.390243902439027,30.0609756097561,8.414634146341465
11_36_03_424,2.0,9.0,3.0,-5.0,12.0,13.0,7.0,27.0,0.3916015625,-0.58935546875,0.7197265625,0.24390243902439027,28.963414634146343,12.682926829268293
11_36_03_424,-11.0,10.0,2.0,41.0,-2.0,-36.0,-1.0,22.0,0.380859375,-0.455078125,0.67529296875,7.25609756097561,34.390243902439025,12.621951219512196
11_36_03_424,27.0,28.0,11.0,-10.0,-13.0,53.0,20.0,-21.0,0.5205078125,-0.4580078125,0.5947265625,26.34146341463415,39.08536585365854,3.8414634146341466
11_36_03_424,-12.0,-13.0,1.0,-39.0,12.0,-3.0,-20.0,9.0,0.57958984375,-0.57470703125,0.5712890625,21.097560975609756,38.78048780487805,9.451219512195122
11_36_03_424,-4.0,14.0,3.0,64.0,27.0,30.0,-26.0,3.0,0.470703125,-0.60595703125,0.61376953125,4.939024390243903,41.03658536585366,18.170731707317074
11_36_03_424,6.0,-2.0,11.0,-9.0,24.0,27.0,27.0,3.0,0.455078125,-0.53076171875,0.59619140625,1.2195121951219514,47.43902439024391,19.451219512195124
11_36_03_424,18.0,-3.0,-50.0,-21.0,-39.0,-68.0,-100.0,26.0,0.56103515625,-0.50048828125,0.55615234375,3.9024390243902443,48.71951219512196,20.670731707317074
11_36_03_424,-22.0,-41.0,-1.0,16.0,-4.0,2.0,42.0,-25.0,0.5380859375,-0.50927734375,0.5234375,8.902439024390244,50.0609756097561,25.54878048780488
11_36_03_424,10.0,22.0,-1.0,6.0,48.0,66.0,-5.0,21.0,0.54443359375,-0.53759765625,0.55322265625,7.926829268292684,53.10975609756098,29.87804878048781
11_36_03_467,9.0,-1.0,6.0,-25.0,42.0,43.0,-34.0,-99.0,0.36328125,-0.55419921875,0.66845703125,2.0121951219512195,17.804878048780488,13.04878048780488
11_36_03_467,-26.0,-31.0,-11.0,23.0,27.0,-7.0,-15.0,39.0,0.314453125,-0.53857421875,0.673828125,0.06097560975609757,22.134146341463417,14.085365853658537
11_36_03_467,6.0,-14.0,2.0,2.0,-57.0,-60.0,3.0,-7.0,0.392578125,-0.50048828125,0.66455078125,12.195121951219512,27.31707317073171,10.731707317073171
11_36_03_467,-48.0,-20.0,21.0,46.0,26.0,35.0,-14.0,-23.0,0.48974609375,-0.54638671875,0.671875,14.390243902439027,30.0609756097561,8.414634146341465
11_36_03_467,15.0,17.0,-11.0,-31.0,-13.0,24.0,-6.0,18.0,0.3916015625,-0.58935546875,0.7197265625,0.24390243902439027,28.963414634146343,12.682926829268293
11_36_03_467,-33.0,-57.0,1.0,-1.0,-37.0,-36.0,-5.0,-1.0,0.380859375,-0.455078125,0.67529296875,7.25609756097561,34.390243902439025,12.621951219512196
11_36_03_467,-21.0,21.0,-1.0,55.0,81.0,19.0,-6.0,-65.0,0.5205078125,-0.4580078125,0.5947265625,26.34146341463415,39.08536585365854,3.8414634146341466
11_36_03_467,5.0,8.0,-10.0,-32.0,-13.0,-12.0,-6.0,40.0,0.57958984375,-0.57470703125,0.5712890625,21.097560975609756,38.78048780487805,9.451219512195122
11_36_03_467,-10.0,6.0,-2.0,0.0,-61.0,-35.0,-11.0,-89.0,0.470703125,-0.60595703125,0.61376953125,4.939024390243903,41.03658536585366,18.170731707317074
11_36_03_467,2.0,9.0,3.0,-5.0,12.0,13.0,7.0,27.0,0.455078125,-0.53076171875,0.59619140625,1.2195121951219514,47.43902439024391,19.451219512195124
11_36_03_514,13.0,11.0,6.0,7.0,17.0,22.0,17.0,32.0,0.447265625,-0.517578125,0.63623046875,6.646341463414635,18.170731707317074,1.4634146341463417
11_36_03_514,-3.0,-18.0,-14.0,25.0,-19.0,13.0,7.0,-8.0,0.4765625,-0.533203125,0.6220703125,5.609756097560976,16.70731707317073,5.365853658536586
11_36_03_514,-72.0,2.0,9.0,-36.0,-66.0,-63.0,-12.0,3.0,0.36328125,-0.55419921875,0.66845703125,2.0121951219512195,17.804878048780488,13.04878048780488
11_36_03_514,37.0,5.0,-10.0,-3.0,0.0,8.0,-9.0,1.0,0.314453125,-0.53857421875,0.673828125,0.06097560975609757,22.134146341463417,14.085365853658537
11_36_03_514,-8.0,45.0,6.0,51.0,127.0,91.0,7.0,7.0,0.392578125,-0.50048828125,0.66455078125,12.195121951219512,27.31707317073171,10.731707317073171
11_36_03_514,-40.0,-14.0,-5.0,-11.0,-74.0,-59.0,15.0,-4.0,0.48974609375,-0.54638671875,0.671875,14.390243902439027,30.0609756097561,8.414634146341465
11_36_03_514,11.0,8.0,5.0,13.0,29.0,67.0,11.0,5.0,0.3916015625,-0.58935546875,0.7197265625,0.24390243902439027,28.963414634146343,12.682926829268293
11_36_03_514,-8.0,-5.0,-9.0,-56.0,-121.0,-91.0,8.0,-21.0,0.380859375,-0.455078125,0.67529296875,7.25609756097561,34.390243902439025,12.621951219512196
11_36_03_514,10.0,10.0,-2.0,44.0,56.0,-6.0,5.0,11.0,0.5205078125,-0.4580078125,0.5947265625,26.34146341463415,39.08536585365854,3.8414634146341466
11_36_03_514,-5.0,-9.0,-2.0,28.0,32.0,82.0,11.0,6.0,0.57958984375,-0.57470703125,0.5712890625,21.097560975609756,38.78048780487805,9.451219512195122
11_36_03_573,23.0,21.0,-12.0,-45.0,-43.0,24.0,13.0,24.0,0.4189453125,-0.5234375,0.7158203125,-2.0121951219512195,10.975609756097562,3.231707317073171
11_36_03_573,28.0,19.0,6.0,-2.0,27.0,-1.0,17.0,26.0,0.39501953125,-0.47607421875,0.6494140625,-7.073170731707318,16.097560975609756,7.195121951219513
11_36_03_573,5.0,-4.0,7.0,92.0,118.0,32.0,23.0,0.0,0.447265625,-0.517578125,0.63623046875,6.646341463414635,18.170731707317074,1.4634146341463417
11_36_03_573,-49.0,-25.0,-4.0,-21.0,-15.0,24.0,-46.0,51.0,0.4765625,-0.533203125,0.6220703125,5.609756097560976,16.70731707317073,5.365853658536586
11_36_03_573,-18.0,24.0,5.0,13.0,-2.0,10.0,38.0,-32.0,0.36328125,-0.55419921875,0.66845703125,2.0121951219512195,17.804878048780488,13.04878048780488
11_36_03_573,23.0,17.0,-4.0,-126.0,-88.0,-67.0,-22.0,16.0,0.314453125,-0.53857421875,0.673828125,0.06097560975609757,22.134146341463417,14.085365853658537
11_36_03_573,5.0,-9.0,26.0,31.0,26.0,-21.0,-7.0,-63.0,0.392578125,-0.50048828125,0.66455078125,12.195121951219512,27.31707317073171,10.731707317073171
11_36_03_573,-18.0,-1.0,12.0,36.0,48.0,14.0,-25.0,22.0,0.48974609375,-0.54638671875,0.671875,14.390243902439027,30.0609756097561,8.414634146341465
11_36_03_573,13.0,11.0,6.0,7.0,17.0,22.0,17.0,32.0,0.3916015625,-0.58935546875,0.7197265625,0.24390243902439027,28.963414634146343,12.682926829268293
11_36_03_573,-3.0,-18.0,-14.0,25.0,-19.0,13.0,7.0,-8.0,0.380859375,-0.455078125,0.67529296875,7.25609756097561,34.390243902439025,12.621951219512196
11_36_03_619,-9.0,11.0,-10.0,43.0,104.0,97.0,-68.0,20.0,0.380859375,-0.49560546875,0.68359375,6.707317073170732,5.3048780487804885,2.1951219512195124
11_36_03_619,6.0,-15.0,3.0,13.0,-63.0,-92.0,24.0,-40.0,0.44091796875,-0.5751953125,0.6884765625,7.500000000000001,7.134146341463415,0.7926829268292683
11_36_03_619,-83.0,8.0,-5.0,18.0,65.0,127.0,-5.0,3.0,0.45068359375,-0.55126953125,0.6630859375,6.890243902439025,8.231707317073171,-0.6707317073170732
11_36_03_619,18.0,-1.0,-1.0,-3.0,-14.0,-121.0,7.0,7.0,0.4189453125,-0.5234375,0.7158203125,-2.0121951219512195,10.975609756097562,3.231707317073171
11_36_03_619,2.0,-10.0,-22.0,-36.0,-33.0,-13.0,-5.0,1.0,0.39501953125,-0.47607421875,0.6494140625,-7.073170731707318,16.097560975609756,7.195121951219513
11_36_03_619,10.0,16.0,18.0,-17.0,-44.0,-12.0,-14.0,9.0,0.447265625,-0.517578125,0.63623046875,6.646341463414635,18.170731707317074,1.4634146341463417
11_36_03_619,1.0,9.0,9.0,68.0,94.0,9.0,-2.0,-9.0,0.4765625,-0.533203125,0.6220703125,5.609756097560976,16.70731707317073,5.365853658536586
11_36_03_619,5.0,4.0,-1.0,-58.0,-43.0,1.0,15.0,10.0,0.36328125,-0.55419921875,0.66845703125,2.0121951219512195,17.804878048780488,13.04878048780488
11_36_03_619,-1.0,3.0,0.0,-12.0,-12.0,-54.0,4.0,33.0,0.314453125,-0.53857421875,0.673828125,0.06097560975609757,22.134146341463417,14.085365853658537
11_36_03_619,-5.0,-17.0,14.0,29.0,26.0,36.0,-29.0,-86.0,0.392578125,-0.50048828125,0.66455078125,12.195121951219512,27.31707317073171,10.731707317073171
11_36_03_670,7.0,14.0,6.0,3.0,96.0,37.0,17.0,34.0,0.38671875,-0.56494140625,0.6181640625,1.0365853658536586,2.8658536585365857,-6.2804878048780495
11_36_03_670,11.0,17.0,6.0,-56.0,-83.0,-40.0,-10.0,-1.0,0.427734375,-0.54296875,0.6220703125,-2.6219512195121952,1.3414634146341464,-4.207317073170732
11_36_03_670,-3.0,-5.0,-9.0,2.0,-35.0,-60.0,11.0,5.0,0.431640625,-0.48388671875,0.68310546875,1.524390243902439,0.426829268292683,-1.402439024390244
11_36_03_670,1.0,2.0,9.0,-23.0,-39.0,53.0,-33.0,-8.0,0.380859375,-0.49560546875,0.68359375,6.707317073170732,5.3048780487804885,2.1951219512195124
11_36_03_670,11.0,9.0,2.0,8.0,69.0,-17.0,29.0,-15.0,0.44091796875,-0.5751953125,0.6884765625,7.500000000000001,7.134146341463415,0.7926829268292683
11_36_03_670,9.0,-14.0,-12.0,18.0,-19.0,-9.0,33.0,15.0,0.45068359375,-0.55126953125,0.6630859375,6.890243902439025,8.231707317073171,-0.6707317073170732
11_36_03_670,-9.0,-4.0,16.0,48.0,17.0,27.0,-41.0,20.0,0.4189453125,-0.5234375,0.7158203125,-2.0121951219512195,10.975609756097562,3.231707317073171
11_36_03_670,12.0,33.0,4.0,-16.0,25.0,9.0,52.0,-4.0,0.39501953125,-0.47607421875,0.6494140625,-7.073170731707318,16.097560975609756,7.195121951219513
11_36_03_670,23.0,11.0,20.0,41.0,-30.0,-18.0,10.0,29.0,0.447265625,-0.517578125,0.63623046875,6.646341463414635,18.170731707317074,1.4634146341463417
11_36_03_670,-1.0,-12.0,8.0,28.0,53.0,-16.0,-22.0,18.0,0.4765625,-0.533203125,0.6220703125,5.609756097560976,16.70731707317073,5.365853658536586
11_36_03_720,18.0,-12.0,9.0,-17.0,-39.0,-27.0,-9.0,-8.0,0.44482421875,-0.48095703125,0.76611328125,-2.8658536585365857,-4.817073170731708,-2.1951219512195124
11_36_03_720,-15.0,-64.0,-18.0,-17.0,-73.0,-69.0,13.0,-44.0,0.37060546875,-0.50830078125,0.748046875,-3.4756097560975614,-2.5,-2.3170731707317076
11_36_03_720,-23.0,-39.0,5.0,59.0,20.0,-10.0,13.0,55.0,0.38671875,-0.56494140625,0.6181640625,1.0365853658536586,2.8658536585365857,-6.2804878048780495
11_36_03_720,19.0,24.0,12.0,-31.0,72.0,127.0,-1.0,-2.0,0.427734375,-0.54296875,0.6220703125,-2.6219512195121952,1.3414634146341464,-4.207317073170732
11_36_03_720,-10.0,-47.0,-13.0,25.0,-18.0,-112.0,-21.0,-5.0,0.431640625,-0.48388671875,0.68310546875,1.524390243902439,0.426829268292683,-1.402439024390244
11_36_03_720,-19.0,27.0,40.0,96.0,110.0,60.0,9.0,-13.0,0.380859375,-0.49560546875,0.68359375,6.707317073170732,5.3048780487804885,2.1951219512195124
11_36_03_720,48.0,13.0,-1.0,32.0,-53.0,-25.0,2.0,20.0,0.44091796875,-0.5751953125,0.6884765625,7.500000000000001,7.134146341463415,0.7926829268292683
11_36_03_720,-16.0,3.0,-3.0,-14.0,-11.0,19.0,3.0,43.0,0.45068359375,-0.55126953125,0.6630859375,6.890243902439025,8.231707317073171,-0.6707317073170732
11_36_03_720,-31.0,-32.0,-19.0,-52.0,-52.0,-40.0,-31.0,13.0,0.4189453125,-0.5234375,0.7158203125,-2.0121951219512195,10.975609756097562,3.231707317073171
11_36_03_720,-13.0,11.0,-13.0,15.0,30.0,10.0,2.0,-80.0,0.39501953125,-0.47607421875,0.6494140625,-7.073170731707318,16.097560975609756,7.195121951219513
11_36_03_771,11.0,-30.0,-3.0,-81.0,-125.0,-71.0,-11.0,-33.0,0.3271484375,-0.53271484375,0.7822265625,4.817073170731708,-8.475609756097562,0.9756097560975611
11_36_03_771,-50.0,-29.0,-8.0,43.0,55.0,-7.0,11.0,-22.0,0.4130859375,-0.58203125,0.673828125,4.573170731707317,-3.658536585365854,-3.536585365853659
11_36_03_771,43.0,-2.0,17.0,43.0,102.0,127.0,16.0,11.0,0.4365234375,-0.515625,0.70068359375,-1.1585365853658538,-3.780487804878049,-5.060975609756098
11_36_03_771,-4.0,-48.0,6.0,2.0,-1.0,-85.0,3.0,-22.0,0.44482421875,-0.48095703125,0.76611328125,-2.8658536585365857,-4.817073170731708,-2.1951219512195124
11_36_03_771,-35.0,2.0,-32.0,27.0,-29.0,28.0,1.0,10.0,0.37060546875,-0.50830078125,0.748046875,-3.4756097560975614,-2.5,-2.3170731707317076
11_36_03_771,-26.0,127.0,32.0,-52.0,-23.0,-27.0,-6.0,12.0,0.38671875,-0.56494140625,0.6181640625,1.0365853658536586,2.8658536585365857,-6.2804878048780495
11_36_03_771,-13.0,-128.0,-18.0,-1.0,4.0,-2.0,-11.0,18.0,0.427734375,-0.54296875,0.6220703125,-2.6219512195121952,1.3414634146341464,-4.207317073170732
11_36_03_771,30.0,64.0,15.0,-10.0,-50.0,-20.0,12.0,-7.0,0.431640625,-0.48388671875,0.68310546875,1.524390243902439,0.426829268292683,-1.402439024390244
11_36_03_771,-1.0,-65.0,18.0,21.0,3.0,-12.0,10.0,29.0,0.380859375,-0.49560546875,0.68359375,6.707317073170732,5.3048780487804885,2.1951219512195124
11_36_03_771,-43.0,-9.0,11.0,1.0,56.0,36.0,-8.0,-17.0,0.44091796875,-0.5751953125,0.6884765625,7.500000000000001,7.134146341463415,0.7926829268292683
11_36_03_826,-28.0,-30.0,12.0,76.0,127.0,127.0,18.0,42.0,0.45849609375,-0.474609375,0.76513671875,7.926829268292684,-10.30487804878049,-2.073170731707317
11_36_03_826,0.0,16.0,-6.0,-104.0,-96.0,-97.0,-34.0,-26.0,0.3271484375,-0.53271484375,0.7822265625,4.817073170731708,-8.475609756097562,0.9756097560975611
11_36_03_826,-25.0,-18.0,24.0,1.0,11.0,-20.0,4.0,5.0,0.4130859375,-0.58203125,0.673828125,4.573170731707317,-3.658536585365854,-3.536585365853659
11_36_03_826,-32.0,-17.0,4.0,45.0,10.0,16.0,39.0,-5.0,0.4365234375,-0.515625,0.70068359375,-1.1585365853658538,-3.780487804878049,-5.060975609756098
11_36_03_826,11.0,-30.0,-3.0,-81.0,-125.0,-71.0,-11.0,-33.0,0.44482421875,-0.48095703125,0.76611328125,-2.8658536585365857,-4.817073170731708,-2.1951219512195124
11_36_03_826,-50.0,-29.0,-8.0,43.0,55.0,-7.0,11.0,-22.0,0.37060546875,-0.50830078125,0.748046875,-3.4756097560975614,-2.5,-2.3170731707317076
11_36_03_826,43.0,-2.0,17.0,43.0,102.0,127.0,16.0,11.0,0.38671875,-0.56494140625,0.6181640625,1.0365853658536586,2.8658536585365857,-6.2804878048780495
11_36_03_826,-4.0,-48.0,6.0,2.0,-1.0,-85.0,3.0,-22.0,0.427734375,-0.54296875,0.6220703125,-2.6219512195121952,1.3414634146341464,-4.207317073170732
11_36_03_826,-35.0,2.0,-32.0,27.0,-29.0,28.0,1.0,10.0,0.431640625,-0.48388671875,0.68310546875,1.524390243902439,0.426829268292683,-1.402439024390244
11_36_03_826,-26.0,127.0,32.0,-52.0,-23.0,-27.0,-6.0,12.0,0.380859375,-0.49560546875,0.68359375,6.707317073170732,5.3048780487804885,2.1951219512195124
11_36_03_874,-22.0,-28.0,-12.0,-23.0,12.0,49.0,29.0,8.0,0.5078125,-0.4873046875,0.7197265625,-11.76829268292683,-8.841463414634147,-8.658536585365855
11_36_03_874,13.0,15.0,-6.0,-35.0,-66.0,-39.0,-23.0,-56.0,0.38623046875,-0.46923828125,0.67822265625,-1.3414634146341464,-8.292682926829269,-5.365853658536586
11_36_03_874,10.0,-27.0,7.0,2.0,-7.0,-7.0,5.0,-23.0,0.4443359375,-0.61181640625,0.599609375,4.634146341463415,-5.7926829268292686,-7.926829268292684
11_36_03_874,22.0,-9.0,-35.0,3.0,10.0,-4.0,10.0,-5.0,0.4873046875,-0.5634765625,0.6357421875,-0.7317073170731708,-7.25609756097561,-4.329268292682928
11_36_03_874,2.0,2.0,31.0,28.0,-28.0,18.0,-5.0,-7.0,0.45849609375,-0.474609375,0.76513671875,7.926829268292684,-10.30487804878049,-2.073170731707317
11_36_03_874,1.0,-20.0,-33.0,30.0,10.0,-23.0,13.0,-2.0,0.3271484375,-0.53271484375,0.7822265625,4.817073170731708,-8.475609756097562,0.9756097560975611
11_36_03_874,-3.0,-5.0,44.0,12.0,57.0,72.0,-11.0,11.0,0.4130859375,-0.58203125,0.673828125,4.573170731707317,-3.658536585365854,-3.536585365853659
11_36_03_874,29.0,6.0,-15.0,-54.0,-57.0,-79.0,-14.0,-20.0,0.4365234375,-0.515625,0.70068359375,-1.1585365853658538,-3.780487804878049,-5.060975609756098
11_36_03_874,-12.0,-1.0,4.0,-16.0,-45.0,-33.0,-7.0,29.0,0.44482421875,-0.48095703125,0.76611328125,-2.8658536585365857,-4.817073170731708,-2.1951219512195124
11_36_03_874,-23.0,9.0,5.0,52.0,-2.0,15.0,-16.0,-42.0,0.37060546875,-0.50830078125,0.748046875,-3.4756097560975614,-2.5,-2.3170731707317076
11_36_03_922,4.0,-1.0,-6.0,-112.0,-45.0,-86.0,-8.0,4.0,0.4794921875,-0.56982421875,0.66552734375,1.524390243902439,-4.939024390243903,-7.865853658536586
11_36_03_922,20.0,-7.0,-13.0,22.0,34.0,50.0,0.0,-33.0,0.484375,-0.56884765625,0.6962890625,-8.658536585365855,-7.195121951219513,-7.01219512195122
11_36_03_922,-2.0,-1.0,12.0,28.0,5.0,28.0,4.0,10.0,0.5078125,-0.4873046875,0.7197265625,-11.76829268292683,-8.841463414634147,-8.658536585365855
11_36_03_922,6.0,7.0,3.0,-3.0,13.0,-32.0,6.0,3.0,0.38623046875,-0.46923828125,0.67822265625,-1.3414634146341464,-8.292682926829269,-5.365853658536586
11_36_03_922,-6.0,-5.0,2.0,7.0,18.0,86.0,8.0,21.0,0.4443359375,-0.61181640625,0.599609375,4.634146341463415,-5.7926829268292686,-7.926829268292684
11_36_03_922,-10.0,1.0,13.0,53.0,41.0,-83.0,-56.0,-15.0,0.4873046875,-0.5634765625,0.6357421875,-0.7317073170731708,-7.25609756097561,-4.329268292682928
11_36_03_922,-9.0,-6.0,-24.0,-58.0,-106.0,-57.0,4.0,-25.0,0.45849609375,-0.474609375,0.76513671875,7.926829268292684,-10.30487804878049,-2.073170731707317
11_36_03_922,14.0,15.0,-14.0,-6.0,-18.0,0.0,17.0,21.0,0.3271484375,-0.53271484375,0.7822265625,4.817073170731708,-8.475609756097562,0.9756097560975611
11_36_03_922,16.0,68.0,20.0,41.0,50.0,42.0,7.0,25.0,0.4130859375,-0.58203125,0.673828125,4.573170731707317,-3.658536585365854,-3.536585365853659
11_36_03_922,4.0,6.0,3.0,15.0,39.0,1.0,-79.0,-16.0,0.4365234375,-0.515625,0.70068359375,-1.1585365853658538,-3.780487804878049,-5.060975609756098
11_36_03_980,-35.0,-4.0,-14.0,-58.0,-128.0,-128.0,20.0,18.0,0.4775390625,-0.5830078125,0.724609375,-3.658536585365854,-8.78048780487805,-3.536585365853659
11_36_03_980,13.0,1.0,7.0,38.0,123.0,127.0,-9.0,-4.0,0.447265625,-0.51025390625,0.744140625,-9.26829268292683,-9.26829268292683,-3.231707317073171
11_36_03_980,-5.0,10.0,5.0,46.0,83.0,48.0,19.0,8.0,0.44677734375,-0.482421875,0.6875,-2.5609756097560976,-5.731707317073171,-5.2439024390243905
11_36_03_980,20.0,-6.0,4.0,39.0,-18.0,8.0,-38.0,6.0,0.4794921875,-0.56982421875,0.66552734375,1.524390243902439,-4.939024390243903,-7.865853658536586
11_36_03_980,-7.0,-49.0,-7.0,-32.0,-25.0,-73.0,-30.0,-13.0,0.484375,-0.56884765625,0.6962890625,-8.658536585365855,-7.195121951219513,-7.01219512195122
11_36_03_980,9.0,9.0,-9.0,4.0,-65.0,-13.0,-42.0,48.0,0.5078125,-0.4873046875,0.7197265625,-11.76829268292683,-8.841463414634147,-8.658536585365855
11_36_03_980,-21.0,-18.0,-4.0,-18.0,-21.0,-23.0,3.0,-19.0,0.38623046875,-0.46923828125,0.67822265625,-1.3414634146341464,-8.292682926829269,-5.365853658536586
11_36_03_980,3.0,26.0,30.0,127.0,127.0,110.0,21.0,30.0,0.4443359375,-0.61181640625,0.599609375,4.634146341463415,-5.7926829268292686,-7.926829268292684
11_36_03_980,-3.0,3.0,-8.0,-118.0,-87.0,-48.0,-22.0,19.0,0.4873046875,-0.5634765625,0.6357421875,-0.7317073170731708,-7.25609756097561,-4.329268292682928
11_36_03_980,-3.0,14.0,12.0,-10.0,-49.0,-17.0,-2.0,-3.0,0.45849609375,-0.474609375,0.76513671875,7.926829268292684,-10.30487804878049,-2.073170731707317
11_36_04_023,-12.0,4.0,-7.0,21.0,51.0,39.0,-6.0,34.0,0.412109375,-0.4912109375,0.7099609375,-5.914634146341464,-9.878048780487806,-6.158536585365854
11_36_04_023,13.0,-11.0,-22.0,-32.0,-25.0,-53.0,-21.0,-47.0,0.39697265625,-0.5009765625,0.66796875,-2.439024390243903,-5.670731707317073,-4.878048780487806
11_36_04_023,13.0,16.0,2.0,23.0,1.0,5.0,11.0,8.0,0.50341796875,-0.5400390625,0.6640625,2.3170731707317076,-5.487804878048781,-7.743902439024391
11_36_04_023,12.0,11.0,7.0,-3.0,-43.0,-24.0,-8.0,0.0,0.4775390625,-0.5830078125,0.724609375,-3.658536585365854,-8.78048780487805,-3.536585365853659
11_36_04_023,12.0,-10.0,-4.0,-27.0,-18.0,-12.0,8.0,10.0,0.447265625,-0.51025390625,0.744140625,-9.26829268292683,-9.26829268292683,-3.231707317073171
11_36_04_023,-7.0,-12.0,12.0,58.0,47.0,20.0,-15.0,-11.0,0.44677734375,-0.482421875,0.6875,-2.5609756097560976,-5.731707317073171,-5.2439024390243905
11_36_04_023,-70.0,-2.0,-10.0,-30.0,-27.0,5.0,1.0,8.0,0.4794921875,-0.56982421875,0.66552734375,1.524390243902439,-4.939024390243903,-7.865853658536586
11_36_04_023,25.0,15.0,3.0,-4.0,-12.0,-88.0,2.0,7.0,0.484375,-0.56884765625,0.6962890625,-8.658536585365855,-7.195121951219513,-7.01219512195122
11_36_04_023,14.0,-6.0,-13.0,48.0,127.0,34.0,15.0,17.0,0.5078125,-0.4873046875,0.7197265625,-11.76829268292683,-8.841463414634147,-8.658536585365855
11_36_04_023,0.0,3.0,8.0,23.0,-62.0,30.0,-17.0,-55.0,0.38623046875,-0.46923828125,0.67822265625,-1.3414634146341464,-8.292682926829269,-5.365853658536586
11_36_04_075,4.0,-7.0,-6.0,-10.0,-48.0,-93.0,-8.0,-3.0,0.49951171875,-0.5576171875,0.642578125,-5.121951219512195,-5.2439024390243905,-7.01219512195122
11_36_04_075,5.0,-1.0,0.0,-31.0,-16.0,22.0,-10.0,2.0,0.4892578125,-0.51708984375,0.69970703125,-6.036585365853659,-6.52439024390244,-6.890243902439025
11_36_04_075,-6.0,13.0,3.0,-40.0,-115.0,-48.0,5.0,-2.0,0.412109375,-0.4912109375,0.7099609375,-5.914634146341464,-9.878048780487806,-6.158536585365854
11_36_04_075,-4.0,-7.0,3.0,42.0,62.0,19.0,10.0,6.0,0.39697265625,-0.5009765625,0.66796875,-2.439024390243903,-5.670731707317073,-4.878048780487806
11_36_04_075,13.0,3.0,9.0,21.0,46.0,7.0,-6.0,-12.0,0.50341796875,-0.5400390625,0.6640625,2.3170731707317076,-5.487804878048781,-7.743902439024391
11_36_04_075,-22.0,-22.0,-22.0,-38.0,-110.0,-110.0,-5.0,8.0,0.4775390625,-0.5830078125,0.724609375,-3.658536585365854,-8.78048780487805,-3.536585365853659
11_36_04_075,2.0,19.0,22.0,23.0,90.0,127.0,17.0,-43.0,0.447265625,-0.51025390625,0.744140625,-9.26829268292683,-9.26829268292683,-3.231707317073171
11_36_04_075,-12.0,6.0,-11.0,-37.0,-28.0,-33.0,3.0,35.0,0.44677734375,-0.482421875,0.6875,-2.5609756097560976,-5.731707317073171,-5.2439024390243905
11_36_04_075,2.0,-4.0,-11.0,-30.0,-25.0,-55.0,64.0,20.0,0.4794921875,-0.56982421875,0.66552734375,1.524390243902439,-4.939024390243903,-7.865853658536586
11_36_04_075,8.0,11.0,23.0,86.0,57.0,55.0,8.0,-8.0,0.484375,-0.56884765625,0.6962890625,-8.658536585365855,-7.195121951219513,-7.01219512195122
11_36_04_126,-5.0,-8.0,-3.0,-19.0,45.0,8.0,-71.0,-19.0,0.45166015625,-0.47509765625,0.6484375,-10.060975609756099,-7.987804878048781,-8.109756097560977
11_36_04_126,-10.0,-19.0,0.0,6.0,-23.0,57.0,49.0,-34.0,0.4140625,-0.53564453125,0.62158203125,-2.378048780487805,-5.426829268292684,-8.048780487804878
11_36_04_126,12.0,7.0,-5.0,-10.0,47.0,-39.0,12.0,24.0,0.49951171875,-0.5576171875,0.642578125,-5.121951219512195,-5.2439024390243905,-7.01219512195122
11_36_04_126,14.0,3.0,-6.0,-47.0,-53.0,1.0,1.0,-18.0,0.4892578125,-0.51708984375,0.69970703125,-6.036585365853659,-6.52439024390244,-6.890243902439025
11_36_04_126,10.0,1.0,-2.0,31.0,9.0,-25.0,-37.0,0.0,0.412109375,-0.4912109375,0.7099609375,-5.914634146341464,-9.878048780487806,-6.158536585365854
11_36_04_126,-15.0,-22.0,6.0,-3.0,-6.0,-9.0,16.0,9.0,0.39697265625,-0.5009765625,0.66796875,-2.439024390243903,-5.670731707317073,-4.878048780487806
11_36_04_126,21.0,15.0,6.0,8.0,15.0,36.0,10.0,-1.0,0.50341796875,-0.5400390625,0.6640625,2.3170731707317076,-5.487804878048781,-7.743902439024391
11_36_04_126,-33.0,7.0,1.0,-51.0,35.0,55.0,-6.0,3.0,0.4775390625,-0.5830078125,0.724609375,-3.658536585365854,-8.78048780487805,-3.536585365853659
11_36_04_126,4.0,-7.0,-6.0,-10.0,-48.0,-93.0,-8.0,-3.0,0.447265625,-0.51025390625,0.744140625,-9.26829268292683,-9.26829268292683,-3.231707317073171
11_36_04_126,5.0,-1.0,0.0,-31.0,-16.0,22.0,-10.0,2.0,0.44677734375,-0.482421875,0.6875,-2.5609756097560976,-5.731707317073171,-5.2439024390243905
11_36_04_176,-12.0,-13.0,7.0,52.0,127.0,127.0,8.0,-21.0,0.40771484375,-0.525390625,0.66455078125,-6.219512195121951,-8.658536585365855,-6.707317073170732
11_36_04_176,-6.0,2.0,0.0,8.0,-55.0,-41.0,-2.0,12.0,0.4775390625,-0.56689453125,0.67822265625,-8.597560975609756,-7.439024390243903,-5.914634146341464
11_36_04_176,7.0,6.0,3.0,-26.0,7.0,-32.0,-7.0,-12.0,0.48974609375,-0.5478515625,0.68408203125,-16.82926829268293,-8.475609756097562,-6.829268292682928
11_36_04_176,6.0,7.0,14.0,24.0,-6.0,33.0,3.0,8.0,0.45166015625,-0.47509765625,0.6484375,-10.060975609756099,-7.987804878048781,-8.109756097560977
11_36_04_176,-47.0,-7.0,1.0,-20.0,-48.0,-8.0,-13.0,4.0,0.4140625,-0.53564453125,0.62158203125,-2.378048780487805,-5.426829268292684,-8.048780487804878
11_36_04_176,19.0,1.0,-3.0,-13.0,-70.0,-79.0,-16.0,-9.0,0.49951171875,-0.5576171875,0.642578125,-5.121951219512195,-5.2439024390243905,-7.01219512195122
11_36_04_176,-19.0,-23.0,-13.0,-26.0,-40.0,-62.0,19.0,-42.0,0.4892578125,-0.51708984375,0.69970703125,-6.036585365853659,-6.52439024390244,-6.890243902439025
11_36_04_176,0.0,26.0,2.0,44.0,112.0,64.0,28.0,15.0,0.412109375,-0.4912109375,0.7099609375,-5.914634146341464,-9.878048780487806,-6.158536585365854
11_36_04_176,18.0,16.0,28.0,69.0,96.0,127.0,18.0,32.0,0.39697265625,-0.5009765625,0.66796875,-2.439024390243903,-5.670731707317073,-4.878048780487806
11_36_04_176,-10.0,-21.0,-12.0,-36.0,-128.0,-128.0,-17.0,18.0,0.50341796875,-0.5400390625,0.6640625,2.3170731707317076,-5.487804878048781,-7.743902439024391
11_36_04_231,-33.0,-6.0,-18.0,-32.0,-75.0,-67.0,-62.0,10.0,0.45751953125,-0.5654296875,0.6552734375,-4.390243902439025,-16.097560975609756,-5.914634146341464
11_36_04_231,31.0,6.0,-3.0,-5.0,11.0,-25.0,50.0,-15.0,0.44189453125,-0.52099609375,0.68017578125,-8.353658536585366,-13.536585365853659,-7.073170731707318
11_36_04_231,-7.0,-6.0,5.0,45.0,72.0,88.0,34.0,33.0,0.40771484375,-0.525390625,0.66455078125,-6.219512195121951,-8.658536585365855,-6.707317073170732
11_36_04_231,11.0,2.0,14.0,-35.0,9.0,24.0,-12.0,39.0,0.4775390625,-0.56689453125,0.67822265625,-8.597560975609756,-7.439024390243903,-5.914634146341464
11_36_04_231,-3.0,-14.0,-16.0,-35.0,-71.0,-98.0,-41.0,-77.0,0.48974609375,-0.5478515625,0.68408203125,-16.82926829268293,-8.475609756097562,-6.829268292682928
11_36_04_231,-10.0,4.0,-11.0,-18.0,3.0,-5.0,0.0,11.0,0.45166015625,-0.47509765625,0.6484375,-10.060975609756099,-7.987804878048781,-8.109756097560977
11_36_04_231,35.0,16.0,1.0,-24.0,-108.0,-52.0,10.0,13.0,0.4140625,-0.53564453125,0.62158203125,-2.378048780487805,-5.426829268292684,-8.048780487804878
11_36_04_231,6.0,9.0,-2.0,3.0,22.0,-2.0,11.0,4.0,0.49951171875,-0.5576171875,0.642578125,-5.121951219512195,-5.2439024390243905,-7.01219512195122
11_36_04_231,-12.0,-13.0,7.0,52.0,127.0,127.0,8.0,-21.0,0.4892578125,-0.51708984375,0.69970703125,-6.036585365853659,-6.52439024390244,-6.890243902439025
11_36_04_231,-6.0,2.0,0.0,8.0,-55.0,-41.0,-2.0,12.0,0.412109375,-0.4912109375,0.7099609375,-5.914634146341464,-9.878048780487806,-6.158536585365854
11_36_04_280,-9.0,5.0,-7.0,-14.0,-16.0,-29.0,-4.0,-10.0,0.46923828125,-0.4970703125,0.6240234375,-4.451219512195122,-19.390243902439025,-9.634146341463415
11_36_04_280,-67.0,-24.0,2.0,-32.0,4.0,30.0,5.0,-24.0,0.50927734375,-0.50439453125,0.57861328125,-4.207317073170732,-15.975609756097562,-11.646341463414634
11_36_04_280,-6.0,-3.0,-10.0,-4.0,-10.0,-6.0,-6.0,20.0,0.4951171875,-0.51171875,0.60400390625,-2.25609756097561,-17.804878048780488,-8.841463414634147
11_36_04_280,8.0,-4.0,-7.0,-17.0,-59.0,-33.0,3.0,-30.0,0.45751953125,-0.5654296875,0.6552734375,-4.390243902439025,-16.097560975609756,-5.914634146341464
11_36_04_280,4.0,4.0,6.0,26.0,97.0,38.0,0.0,13.0,0.44189453125,-0.52099609375,0.68017578125,-8.353658536585366,-13.536585365853659,-7.073170731707318
11_36_04_280,0.0,9.0,5.0,-13.0,15.0,38.0,-2.0,5.0,0.40771484375,-0.525390625,0.66455078125,-6.219512195121951,-8.658536585365855,-6.707317073170732
11_36_04_280,-5.0,2.0,9.0,15.0,-73.0,-51.0,-3.0,-12.0,0.4775390625,-0.56689453125,0.67822265625,-8.597560975609756,-7.439024390243903,-5.914634146341464
11_36_04_280,21.0,3.0,-3.0,-8.0,-22.0,-37.0,1.0,19.0,0.48974609375,-0.5478515625,0.68408203125,-16.82926829268293,-8.475609756097562,-6.829268292682928
11_36_04_280,-37.0,-21.0,-24.0,-11.0,-23.0,-19.0,-6.0,-4.0,0.45166015625,-0.47509765625,0.6484375,-10.060975609756099,-7.987804878048781,-8.109756097560977
11_36_04_280,15.0,4.0,5.0,-3.0,51.0,43.0,41.0,-15.0,0.4140625,-0.53564453125,0.62158203125,-2.378048780487805,-5.426829268292684,-8.048780487804878
11_36_04_327,-31.0,-44.0,-2.0,-30.0,-55.0,-58.0,-25.0,2.0,0.4990234375,-0.58740234375,0.583984375,-11.890243902439025,-20.79268292682927,-11.951219512195124
11_36_04_327,21.0,18.0,-1.0,3.0,27.0,43.0,23.0,-52.0,0.52734375,-0.51025390625,0.59521484375,-13.170731707317074,-22.439024390243905,-9.634146341463415
11_36_04_327,9.0,16.0,8.0,19.0,67.0,4.0,-10.0,14.0,0.51904296875,-0.4912109375,0.619140625,-5.914634146341464,-23.10975609756098,-9.878048780487806
11_36_04_327,-25.0,-3.0,-11.0,-44.0,-53.0,10.0,37.0,-8.0,0.46923828125,-0.4970703125,0.6240234375,-4.451219512195122,-19.390243902439025,-9.634146341463415
11_36_04_327,0.0,-3.0,1.0,19.0,0.0,35.0,-23.0,-10.0,0.50927734375,-0.50439453125,0.57861328125,-4.207317073170732,-15.975609756097562,-11.646341463414634
11_36_04_327,1.0,-1.0,7.0,28.0,18.0,-21.0,14.0,-7.0,0.4951171875,-0.51171875,0.60400390625,-2.25609756097561,-17.804878048780488,-8.841463414634147
11_36_04_327,-16.0,-20.0,-20.0,15.0,101.0,41.0,-17.0,8.0,0.45751953125,-0.5654296875,0.6552734375,-4.390243902439025,-16.097560975609756,-5.914634146341464
11_36_04_327,-11.0,13.0,32.0,35.0,-14.0,20.0,11.0,2.0,0.44189453125,-0.52099609375,0.68017578125,-8.353658536585366,-13.536585365853659,-7.073170731707318
11_36_04_327,-12.0,-10.0,-6.0,-32.0,-50.0,-45.0,-26.0,26.0,0.40771484375,-0.525390625,0.66455078125,-6.219512195121951,-8.658536585365855,-6.707317073170732
11_36_04_327,5.0,-11.0,-20.0,7.0,22.0,15.0,15.0,-23.0,0.4775390625,-0.56689453125,0.67822265625,-8.597560975609756,-7.439024390243903,-5.914634146341464
11_36_04_384,-15.0,-23.0,-12.0,-14.0,38.0,5.0,-38.0,-128.0,0.49462890625,-0.50341796875,0.619140625,-15.853658536585368,-24.81707317073171,-10.0
11_36_04_384,13.0,2.0,7.0,16.0,-59.0,-61.0,-48.0,67.0,0.4951171875,-0.533203125,0.59375,-8.109756097560977,-20.853658536585368,-13.353658536585368
11_36_04_384,7.0,8.0,9.0,26.0,101.0,116.0,73.0,-1.0,0.4990234375,-0.58740234375,0.583984375,-11.890243902439025,-20.79268292682927,-11.951219512195124
11_36_04_384,4.0,10.0,6.0,0.0,4.0,42.0,-2.0,37.0,0.52734375,-0.51025390625,0.59521484375,-13.170731707317074,-22.439024390243905,-9.634146341463415
11_36_04_384,8.0,-5.0,-11.0,-46.0,-77.0,-118.0,-21.0,19.0,0.51904296875,-0.4912109375,0.619140625,-5.914634146341464,-23.10975609756098,-9.878048780487806
11_36_04_384,-6.0,-5.0,-4.0,-7.0,-12.0,-10.0,-11.0,-54.0,0.46923828125,-0.4970703125,0.6240234375,-4.451219512195122,-19.390243902439025,-9.634146341463415
11_36_04_384,-14.0,-19.0,1.0,-16.0,-35.0,-18.0,-14.0,36.0,0.50927734375,-0.50439453125,0.57861328125,-4.207317073170732,-15.975609756097562,-11.646341463414634
11_36_04_384,3.0,-3.0,-8.0,-37.0,-10.0,-14.0,-6.0,-45.0,0.4951171875,-0.51171875,0.60400390625,-2.25609756097561,-17.804878048780488,-8.841463414634147
11_36_04_384,20.0,8.0,3.0,57.0,43.0,5.0,15.0,43.0,0.45751953125,-0.5654296875,0.6552734375,-4.390243902439025,-16.097560975609756,-5.914634146341464
11_36_04_384,12.0,11.0,12.0,5.0,-28.0,8.0,6.0,-1.0,0.44189453125,-0.52099609375,0.68017578125,-8.353658536585366,-13.536585365853659,-7.073170731707318
11_36_04_433,-30.0,-7.0,-16.0,-91.0,-60.0,-48.0,-24.0,13.0,0.5107421875,-0.5205078125,0.57470703125,-6.646341463414635,-26.219512195121954,-15.000000000000002
11_36_04_433,5.0,5.0,5.0,8.0,-107.0,-73.0,13.0,6.0,0.5595703125,-0.53466796875,0.60009765625,-9.634146341463415,-23.902439024390247,-12.256097560975611
11_36_04_433,1.0,4.0,-5.0,16.0,104.0,36.0,10.0,-4.0,0.53369140625,-0.54443359375,0.642578125,-15.731707317073171,-26.707317073170735,-9.939024390243903
11_36_04_433,11.0,-1.0,16.0,37.0,34.0,100.0,7.0,8.0,0.49462890625,-0.50341796875,0.619140625,-15.853658536585368,-24.81707317073171,-10.0
11_36_04_433,16.0,2.0,-9.0,-9.0,-25.0,-21.0,3.0,-12.0,0.4951171875,-0.533203125,0.59375,-8.109756097560977,-20.853658536585368,-13.353658536585368
11_36_04_433,3.0,7.0,8.0,-12.0,35.0,47.0,16.0,8.0,0.4990234375,-0.58740234375,0.583984375,-11.890243902439025,-20.79268292682927,-11.951219512195124
11_36_04_433,1.0,1.0,-3.0,4.0,-92.0,-117.0,3.0,-4.0,0.52734375,-0.51025390625,0.59521484375,-13.170731707317074,-22.439024390243905,-9.634146341463415
11_36_04_433,22.0,8.0,-7.0,-17.0,-7.0,59.0,-6.0,11.0,0.51904296875,-0.4912109375,0.619140625,-5.914634146341464,-23.10975609756098,-9.878048780487806
11_36_04_433,-8.0,-13.0,3.0,-24.0,-42.0,-28.0,11.0,5.0,0.46923828125,-0.4970703125,0.6240234375,-4.451219512195122,-19.390243902439025,-9.634146341463415
11_36_04_433,13.0,12.0,7.0,42.0,41.0,11.0,-23.0,39.0,0.50927734375,-0.50439453125,0.57861328125,-4.207317073170732,-15.975609756097562,-11.646341463414634
11_36_04_486,27.0,-4.0,-14.0,38.0,127.0,43.0,-8.0,-7.0,0.537109375,-0.53173828125,0.59814453125,-12.01219512195122,-34.207317073170735,-13.04878048780488
11_36_04_486,-2.0,0.0,22.0,56.0,45.0,62.0,18.0,-7.0,0.53173828125,-0.5234375,0.59619140625,-9.573170731707318,-29.87804878048781,-16.76829268292683
11_36_04_486,6.0,-2.0,-10.0,-29.0,-41.0,-9.0,9.0,-13.0,0.5107421875,-0.5205078125,0.57470703125,-6.646341463414635,-26.219512195121954,-15.000000000000002
11_36_04_486,6.0,-1.0,-19.0,-53.0,-58.0,-44.0,0.0,20.0,0.5595703125,-0.53466796875,0.60009765625,-9.634146341463415,-23.902439024390247,-12.256097560975611
11_36_04_486,-16.0,-2.0,9.0,54.0,36.0,8.0,11.0,-5.0,0.53369140625,-0.54443359375,0.642578125,-15.731707317073171,-26.707317073170735,-9.939024390243903
11_36_04_486,10.0,8.0,2.0,-27.0,9.0,27.0,2.0,32.0,0.49462890625,-0.50341796875,0.619140625,-15.853658536585368,-24.81707317073171,-10.0
11_36_04_486,-12.0,16.0,6.0,18.0,-21.0,31.0,1.0,9.0,0.4951171875,-0.533203125,0.59375,-8.109756097560977,-20.853658536585368,-13.353658536585368
11_36_04_486,36.0,-4.0,-9.0,-17.0,2.0,-52.0,-17.0,-9.0,0.4990234375,-0.58740234375,0.583984375,-11.890243902439025,-20.79268292682927,-11.951219512195124
11_36_04_486,-30.0,-7.0,-16.0,-91.0,-60.0,-48.0,-24.0,13.0,0.52734375,-0.51025390625,0.59521484375,-13.170731707317074,-22.439024390243905,-9.634146341463415
11_36_04_486,5.0,5.0,5.0,8.0,-107.0,-73.0,13.0,6.0,0.51904296875,-0.4912109375,0.619140625,-5.914634146341464,-23.10975609756098,-9.878048780487806
11_36_04_535,5.0,-4.0,0.0,7.0,-26.0,-9.0,5.0,17.0,0.6298828125,-0.5048828125,0.53662109375,-5.2439024390243905,-34.08536585365854,-21.28048780487805
11_36_04_535,9.0,13.0,4.0,-5.0,45.0,-7.0,6.0,-47.0,0.646484375,-0.5556640625,0.51953125,-3.658536585365854,-34.268292682926834,-22.743902439024392
11_36_04_535,8.0,12.0,1.0,-2.0,43.0,47.0,-12.0,21.0,0.6171875,-0.52734375,0.56640625,-6.829268292682928,-34.451219512195124,-18.10975609756098
11_36_04_535,-8.0,-10.0,-9.0,-65.0,-128.0,-89.0,-16.0,-7.0,0.537109375,-0.53173828125,0.59814453125,-12.01219512195122,-34.207317073170735,-13.04878048780488
11_36_04_535,-27.0,-12.0,-12.0,8.0,-14.0,-52.0,-5.0,-7.0,0.53173828125,-0.5234375,0.59619140625,-9.573170731707318,-29.87804878048781,-16.76829268292683
11_36_04_535,24.0,7.0,18.0,68.0,71.0,52.0,25.0,3.0,0.5107421875,-0.5205078125,0.57470703125,-6.646341463414635,-26.219512195121954,-15.000000000000002
11_36_04_535,-10.0,-5.0,7.0,33.0,12.0,34.0,2.0,6.0,0.5595703125,-0.53466796875,0.60009765625,-9.634146341463415,-23.902439024390247,-12.256097560975611
11_36_04_535,15.0,11.0,-9.0,-32.0,5.0,10.0,10.0,6.0,0.53369140625,-0.54443359375,0.642578125,-15.731707317073171,-26.707317073170735,-9.939024390243903
11_36_04_535,0.0,-3.0,0.0,-5.0,-119.0,-110.0,20.0,-8.0,0.49462890625,-0.50341796875,0.619140625,-15.853658536585368,-24.81707317073171,-10.0
11_36_04_535,4.0,-4.0,7.0,4.0,67.0,127.0,-3.0,-1.0,0.4951171875,-0.533203125,0.59375,-8.109756097560977,-20.853658536585368,-13.353658536585368
11_36_04_582,-32.0,-7.0,-1.0,-21.0,-55.0,-49.0,-19.0,-14.0,0.658203125,-0.513671875,0.5,-9.695121951219512,-37.19512195121951,-21.951219512195124
11_36_04_582,3.0,-11.0,8.0,2.0,23.0,-20.0,32.0,-8.0,0.62841796875,-0.55615234375,0.55322265625,-10.30487804878049,-35.54878048780488,-16.463414634146343
11_36_04_582,29.0,11.0,4.0,18.0,4.0,118.0,30.0,4.0,0.6298828125,-0.5048828125,0.53662109375,-5.2439024390243905,-34.08536585365854,-21.28048780487805
11_36_04_582,-3.0,10.0,10.0,44.0,107.0,110.0,28.0,-9.0,0.646484375,-0.5556640625,0.51953125,-3.658536585365854,-34.268292682926834,-22.743902439024392
11_36_04_582,16.0,19.0,7.0,18.0,12.0,-52.0,2.0,38.0,0.6171875,-0.52734375,0.56640625,-6.829268292682928,-34.451219512195124,-18.10975609756098
11_36_04_582,-8.0,-16.0,2.0,-55.0,-107.0,-73.0,-96.0,9.0,0.537109375,-0.53173828125,0.59814453125,-12.01219512195122,-34.207317073170735,-13.04878048780488
11_36_04_582,6.0,5.0,-1.0,22.0,-8.0,-31.0,44.0,11.0,0.53173828125,-0.5234375,0.59619140625,-9.573170731707318,-29.87804878048781,-16.76829268292683
11_36_04_582,-65.0,-57.0,-23.0,-10.0,35.0,20.0,-24.0,-91.0,0.5107421875,-0.5205078125,0.57470703125,-6.646341463414635,-26.219512195121954,-15.000000000000002
11_36_04_582,-18.0,0.0,-5.0,30.0,74.0,79.0,9.0,17.0,0.5595703125,-0.53466796875,0.60009765625,-9.634146341463415,-23.902439024390247,-12.256097560975611
11_36_04_582,37.0,16.0,1.0,-18.0,-84.0,-58.0,-18.0,14.0,0.53369140625,-0.54443359375,0.642578125,-15.731707317073171,-26.707317073170735,-9.939024390243903
11_36_04_644,8.0,0.0,-16.0,-30.0,34.0,127.0,17.0,33.0,0.68408203125,-0.4521484375,0.505859375,-6.219512195121951,-39.81707317073171,-22.073170731707318
11_36_04_644,17.0,7.0,3.0,4.0,-61.0,-90.0,0.0,19.0,0.67431640625,-0.55615234375,0.48681640625,-1.9512195121951221,-36.40243902439025,-24.085365853658537
11_36_04_644,-30.0,-34.0,-5.0,-10.0,34.0,68.0,-49.0,-104.0,0.73828125,-0.537109375,0.42578125,-9.329268292682928,-37.926829268292686,-24.75609756097561
11_36_04_644,-13.0,-7.0,-19.0,7.0,13.0,-22.0,13.0,4.0,0.658203125,-0.513671875,0.5,-9.695121951219512,-37.19512195121951,-21.951219512195124
11_36_04_644,29.0,15.0,22.0,21.0,8.0,5.0,7.0,5.0,0.62841796875,-0.55615234375,0.55322265625,-10.30487804878049,-35.54878048780488,-16.463414634146343
11_36_04_644,17.0,9.0,1.0,24.0,58.0,17.0,-7.0,21.0,0.6298828125,-0.5048828125,0.53662109375,-5.2439024390243905,-34.08536585365854,-21.28048780487805
11_36_04_644,-5.0,-9.0,-4.0,-43.0,-11.0,-18.0,-6.0,-5.0,0.646484375,-0.5556640625,0.51953125,-3.658536585365854,-34.268292682926834,-22.743902439024392
11_36_04_644,-3.0,11.0,11.0,-9.0,-23.0,-4.0,-1.0,-6.0,0.6171875,-0.52734375,0.56640625,-6.829268292682928,-34.451219512195124,-18.10975609756098
11_36_04_644,-17.0,-9.0,-6.0,-25.0,-53.0,6.0,-3.0,-1.0,0.537109375,-0.53173828125,0.59814453125,-12.01219512195122,-34.207317073170735,-13.04878048780488
11_36_04_644,8.0,26.0,5.0,9.0,12.0,-39.0,-19.0,-33.0,0.53173828125,-0.5234375,0.59619140625,-9.573170731707318,-29.87804878048781,-16.76829268292683
11_36_04_687,0.0,-4.0,12.0,29.0,2.0,-15.0,7.0,5.0,0.67529296875,-0.52783203125,0.5029296875,-9.756097560975611,-38.170731707317074,-24.878048780487806
11_36_04_687,4.0,8.0,-1.0,31.0,97.0,86.0,11.0,2.0,0.7275390625,-0.53515625,0.4453125,-19.451219512195124,-35.79268292682927,-23.719512195121954
11_36_04_687,-7.0,0.0,-1.0,-7.0,3.0,-8.0,5.0,-15.0,0.7734375,-0.49072265625,0.45751953125,-17.378048780487806,-36.82926829268293,-22.012195121951223
11_36_04_687,1.0,5.0,-11.0,-40.0,-88.0,-87.0,-11.0,10.0,0.68408203125,-0.4521484375,0.505859375,-6.219512195121951,-39.81707317073171,-22.073170731707318
11_36_04_687,8.0,-5.0,-1.0,-56.0,-102.0,-64.0,3.0,4.0,0.67431640625,-0.55615234375,0.48681640625,-1.9512195121951221,-36.40243902439025,-24.085365853658537
11_36_04_687,14.0,4.0,8.0,39.0,24.0,16.0,22.0,30.0,0.73828125,-0.537109375,0.42578125,-9.329268292682928,-37.926829268292686,-24.75609756097561
11_36_04_687,10.0,6.0,10.0,66.0,127.0,110.0,-60.0,-95.0,0.658203125,-0.513671875,0.5,-9.695121951219512,-37.19512195121951,-21.951219512195124
11_36_04_687,8.0,2.0,-13.0,-41.0,-30.0,-13.0,-10.0,71.0,0.62841796875,-0.55615234375,0.55322265625,-10.30487804878049,-35.54878048780488,-16.463414634146343
11_36_04_687,-75.0,-15.0,-20.0,-44.0,-128.0,-128.0,-18.0,-32.0,0.6298828125,-0.5048828125,0.53662109375,-5.2439024390243905,-34.08536585365854,-21.28048780487805
11_36_04_687,27.0,-13.0,2.0,60.0,73.0,14.0,15.0,22.0,0.646484375,-0.5556640625,0.51953125,-3.658536585365854,-34.268292682926834,-22.743902439024392
11_36_04_741,3.0,-10.0,7.0,18.0,-29.0,5.0,-17.0,0.0,0.755859375,-0.48046875,0.49072265625,-13.475609756097562,-29.02439024390244,-19.390243902439025
11_36_04_741,-15.0,-12.0,-16.0,-53.0,-32.0,-15.0,-28.0,-14.0,0.7900390625,-0.525390625,0.5146484375,-7.682926829268293,-35.426829268292686,-25.853658536585368
11_36_04_741,-10.0,1.0,-2.0,21.0,-20.0,-52.0,7.0,-21.0,0.67529296875,-0.52783203125,0.5029296875,-9.756097560975611,-38.170731707317074,-24.878048780487806
11_36_04_741,43.0,20.0,7.0,-12.0,59.0,33.0,11.0,18.0,0.7275390625,-0.53515625,0.4453125,-19.451219512195124,-35.79268292682927,-23.719512195121954
11_36_04_741,-3.0,8.0,-2.0,12.0,-11.0,-3.0,9.0,4.0,0.7734375,-0.49072265625,0.45751953125,-17.378048780487806,-36.82926829268293,-22.012195121951223
11_36_04_741,-3.0,-2.0,1.0,-15.0,-55.0,-46.0,-8.0,2.0,0.68408203125,-0.4521484375,0.505859375,-6.219512195121951,-39.81707317073171,-22.073170731707318
11_36_04_741,8.0,-12.0,-3.0,-30.0,-30.0,-45.0,-7.0,20.0,0.67431640625,-0.55615234375,0.48681640625,-1.9512195121951221,-36.40243902439025,-24.085365853658537
11_36_04_741,-1.0,14.0,16.0,32.0,20.0,44.0,-27.0,-38.0,0.73828125,-0.537109375,0.42578125,-9.329268292682928,-37.926829268292686,-24.75609756097561
11_36_04_741,4.0,-3.0,-7.0,-21.0,10.0,4.0,10.0,12.0,0.658203125,-0.513671875,0.5,-9.695121951219512,-37.19512195121951,-21.951219512195124
11_36_04_741,29.0,-4.0,-2.0,17.0,-25.0,-19.0,-5.0,23.0,0.62841796875,-0.55615234375,0.55322265625,-10.30487804878049,-35.54878048780488,-16.463414634146343
11_36_04_790,-15.0,5.0,6.0,21.0,-14.0,14.0,3.0,32.0,0.78759765625,-0.54541015625,0.45849609375,-5.975609756097562,-27.5609756097561,-22.195121951219512
11_36_04_790,10.0,8.0,-4.0,-9.0,14.0,-10.0,2.0,-22.0,0.6767578125,-0.5185546875,0.47509765625,-18.10975609756098,-29.75609756097561,-20.30487804878049
11_36_04_790,4.0,-4.0,8.0,-6.0,-3.0,-12.0,3.0,-13.0,0.755859375,-0.48046875,0.49072265625,-13.475609756097562,-29.02439024390244,-19.390243902439025
11_36_04_790,-19.0,-9.0,-18.0,-37.0,-69.0,-45.0,-11.0,10.0,0.7900390625,-0.525390625,0.5146484375,-7.682926829268293,-35.426829268292686,-25.853658536585368
11_36_04_790,9.0,-3.0,1.0,-2.0,-22.0,-53.0,-17.0,-16.0,0.67529296875,-0.52783203125,0.5029296875,-9.756097560975611,-38.170731707317074,-24.878048780487806
11_36_04_790,1.0,-3.0,9.0,-50.0,-26.0,-10.0,33.0,13.0,0.7275390625,-0.53515625,0.4453125,-19.451219512195124,-35.79268292682927,-23.719512195121954
11_36_04_790,13.0,-5.0,2.0,47.0,17.0,29.0,-45.0,-11.0,0.7734375,-0.49072265625,0.45751953125,-17.378048780487806,-36.82926829268293,-22.012195121951223
11_36_04_790,9.0,20.0,2.0,44.0,127.0,81.0,39.0,2.0,0.68408203125,-0.4521484375,0.505859375,-6.219512195121951,-39.81707317073171,-22.073170731707318
11_36_04_790,3.0,-10.0,7.0,18.0,-29.0,5.0,-17.0,0.0,0.67431640625,-0.55615234375,0.48681640625,-1.9512195121951221,-36.40243902439025,-24.085365853658537
11_36_04_790,-15.0,-12.0,-16.0,-53.0,-32.0,-15.0,-28.0,-14.0,0.73828125,-0.537109375,0.42578125,-9.329268292682928,-37.926829268292686,-24.75609756097561
11_36_04_838,10.0,-1.0,-6.0,-52.0,-100.0,-33.0,2.0,-12.0,0.7646484375,-0.49853515625,0.42578125,-11.585365853658537,-24.634146341463417,-17.926829268292686
11_36_04_838,-37.0,-15.0,-4.0,41.0,44.0,0.0,10.0,7.0,0.7939453125,-0.4501953125,0.41796875,-11.402439024390246,-25.48780487804878,-19.75609756097561
11_36_04_838,-17.0,3.0,10.0,14.0,98.0,78.0,-8.0,-8.0,0.75830078125,-0.4580078125,0.42333984375,-0.1829268292682927,-25.000000000000004,-17.5
11_36_04_838,0.0,6.0,-9.0,-11.0,-42.0,-21.0,22.0,6.0,0.78759765625,-0.54541015625,0.45849609375,-5.975609756097562,-27.5609756097561,-22.195121951219512
11_36_04_838,-45.0,-13.0,-7.0,24.0,4.0,-27.0,-15.0,30.0,0.6767578125,-0.5185546875,0.47509765625,-18.10975609756098,-29.75609756097561,-20.30487804878049
11_36_04_838,-4.0,7.0,-4.0,-34.0,24.0,75.0,-8.0,-48.0,0.755859375,-0.48046875,0.49072265625,-13.475609756097562,-29.02439024390244,-19.390243902439025
11_36_04_838,21.0,3.0,5.0,-4.0,-48.0,-78.0,-9.0,5.0,0.7900390625,-0.525390625,0.5146484375,-7.682926829268293,-35.426829268292686,-25.853658536585368
11_36_04_838,-1.0,-7.0,-4.0,5.0,-32.0,-44.0,-5.0,25.0,0.67529296875,-0.52783203125,0.5029296875,-9.756097560975611,-38.170731707317074,-24.878048780487806
11_36_04_838,3.0,-11.0,6.0,35.0,23.0,13.0,17.0,3.0,0.7275390625,-0.53515625,0.4453125,-19.451219512195124,-35.79268292682927,-23.719512195121954
11_36_04_838,6.0,16.0,9.0,-27.0,82.0,71.0,8.0,4.0,0.7734375,-0.49072265625,0.45751953125,-17.378048780487806,-36.82926829268293,-22.012195121951223
11_36_04_892,15.0,7.0,5.0,3.0,44.0,49.0,3.0,0.0,0.8916015625,-0.44775390625,0.39111328125,5.548780487804878,-25.670731707317074,-16.402439024390244
11_36_04_892,0.0,-2.0,0.0,-5.0,6.0,-16.0,-3.0,-7.0,0.80517578125,-0.4833984375,0.4267578125,-2.1341463414634148,-25.914634146341466,-19.207317073170735
11_36_04_892,-8.0,5.0,-10.0,-41.0,-29.0,-33.0,2.0,0.0,0.7646484375,-0.49853515625,0.42578125,-11.585365853658537,-24.634146341463417,-17.926829268292686
11_36_04_892,8.0,12.0,-6.0,-54.0,-65.0,-44.0,-12.0,1.0,0.7939453125,-0.4501953125,0.41796875,-11.402439024390246,-25.48780487804878,-19.75609756097561
11_36_04_892,-27.0,-8.0,-4.0,-28.0,-73.0,-51.0,6.0,-2.0,0.75830078125,-0.4580078125,0.42333984375,-0.1829268292682927,-25.000000000000004,-17.5
11_36_04_892,5.0,-8.0,8.0,32.0,48.0,-3.0,4.0,-2.0,0.78759765625,-0.54541015625,0.45849609375,-5.975609756097562,-27.5609756097561,-22.195121951219512
11_36_04_892,-7.0,-23.0,-3.0,75.0,55.0,17.0,-23.0,-11.0,0.6767578125,-0.5185546875,0.47509765625,-18.10975609756098,-29.75609756097561,-20.30487804878049
11_36_04_892,24.0,18.0,11.0,-6.0,32.0,90.0,33.0,2.0,0.755859375,-0.48046875,0.49072265625,-13.475609756097562,-29.02439024390244,-19.390243902439025
11_36_04_892,-3.0,11.0,-1.0,16.0,73.0,28.0,-19.0,20.0,0.7900390625,-0.525390625,0.5146484375,-7.682926829268293,-35.426829268292686,-25.853658536585368
11_36_04_892,5.0,-1.0,6.0,0.0,-27.0,-42.0,-3.0,-11.0,0.67529296875,-0.52783203125,0.5029296875,-9.756097560975611,-38.170731707317074,-24.878048780487806
11_36_04_941,31.0,20.0,11.0,-25.0,10.0,-17.0,24.0,35.0,0.79931640625,-0.50146484375,0.36328125,-7.926829268292684,-24.207317073170735,-20.243902439024392
11_36_04_941,14.0,3.0,-16.0,-31.0,-81.0,-66.0,-12.0,14.0,0.79541015625,-0.40576171875,0.37353515625,-4.085365853658537,-23.658536585365855,-20.79268292682927
11_36_04_941,-21.0,-15.0,1.0,-36.0,-113.0,-85.0,-4.0,-50.0,0.81982421875,-0.4169921875,0.36083984375,4.634146341463415,-24.26829268292683,-18.231707317073173
11_36_04_941,21.0,-1.0,-13.0,13.0,52.0,0.0,-58.0,19.0,0.8916015625,-0.44775390625,0.39111328125,5.548780487804878,-25.670731707317074,-16.402439024390244
11_36_04_941,0.0,12.0,15.0,45.0,90.0,81.0,39.0,13.0,0.80517578125,-0.4833984375,0.4267578125,-2.1341463414634148,-25.914634146341466,-19.207317073170735
11_36_04_941,15.0,8.0,0.0,25.0,29.0,11.0,-27.0,-6.0,0.7646484375,-0.49853515625,0.42578125,-11.585365853658537,-24.634146341463417,-17.926829268292686
11_36_04_941,-21.0,-20.0,-7.0,-20.0,-32.0,-10.0,8.0,0.0,0.7939453125,-0.4501953125,0.41796875,-11.402439024390246,-25.48780487804878,-19.75609756097561
11_36_04_941,13.0,6.0,-19.0,-35.0,-33.0,-58.0,-1.0,5.0,0.75830078125,-0.4580078125,0.42333984375,-0.1829268292682927,-25.000000000000004,-17.5
11_36_04_941,-7.0,-5.0,0.0,10.0,20.0,22.0,-1.0,2.0,0.78759765625,-0.54541015625,0.45849609375,-5.975609756097562,-27.5609756097561,-22.195121951219512
11_36_04_941,14.0,-3.0,-4.0,-37.0,-43.0,-18.0,-8.0,3.0,0.6767578125,-0.5185546875,0.47509765625,-18.10975609756098,-29.75609756097561,-20.30487804878049
11_36_04_990,12.0,18.0,13.0,-31.0,36.0,34.0,-3.0,-9.0,0.7958984375,-0.4072265625,0.353515625,-3.1097560975609757,-10.426829268292684,-19.573170731707318
11_36_04_990,2.0,-33.0,-51.0,81.0,19.0,57.0,8.0,8.0,0.88671875,-0.427734375,0.33056640625,-1.2195121951219514,-13.963414634146343,-17.5609756097561
11_36_04_990,-9.0,30.0,8.0,-70.0,-44.0,-54.0,-2.0,-5.0,0.865234375,-0.4921875,0.33984375,-1.8902439024390245,-20.0609756097561,-22.500000000000004
11_36_04_990,7.0,12.0,-3.0,-9.0,11.0,9.0,-8.0,13.0,0.79931640625,-0.50146484375,0.36328125,-7.926829268292684,-24.207317073170735,-20.243902439024392
11_36_04_990,-33.0,-26.0,3.0,-48.0,-57.0,-45.0,8.0,28.0,0.79541015625,-0.40576171875,0.37353515625,-4.085365853658537,-23.658536585365855,-20.79268292682927
11_36_04_990,27.0,-8.0,-14.0,-14.0,-75.0,-61.0,-2.0,-32.0,0.81982421875,-0.4169921875,0.36083984375,4.634146341463415,-24.26829268292683,-18.231707317073173
11_36_04_990,-30.0,6.0,-2.0,65.0,124.0,35.0,10.0,9.0,0.8916015625,-0.44775390625,0.39111328125,5.548780487804878,-25.670731707317074,-16.402439024390244
11_36_04_990,1.0,-13.0,6.0,25.0,41.0,116.0,-13.0,-11.0,0.80517578125,-0.4833984375,0.4267578125,-2.1341463414634148,-25.914634146341466,-19.207317073170735
11_36_04_990,31.0,20.0,11.0,-25.0,10.0,-17.0,24.0,35.0,0.7646484375,-0.49853515625,0.42578125,-11.585365853658537,-24.634146341463417,-17.926829268292686
11_36_04_990,14.0,3.0,-16.0,-31.0,-81.0,-66.0,-12.0,14.0,0.7939453125,-0.4501953125,0.41796875,-11.402439024390246,-25.48780487804878,-19.75609756097561
11_36_05_044,7.0,-12.0,5.0,67.0,98.0,100.0,-9.0,3.0,0.78515625,-0.41650390625,0.34375,-8.597560975609756,-17.378048780487806,-19.878048780487806
11_36_05_044,-2.0,26.0,14.0,2.0,-16.0,-49.0,-9.0,1.0,0.7958984375,-0.4072265625,0.353515625,-3.1097560975609757,-10.426829268292684,-19.573170731707318
11_36_05_044,8.0,12.0,-7.0,-25.0,-47.0,9.0,1.0,8.0,0.88671875,-0.427734375,0.33056640625,-1.2195121951219514,-13.963414634146343,-17.5609756097561
11_36_05_044,8.0,-4.0,2.0,-66.0,-96.0,-66.0,-11.0,-1.0,0.865234375,-0.4921875,0.33984375,-1.8902439024390245,-20.0609756097561,-22.500000000000004
