Timestamps,channel_1,channel_2,channel_3,channel_4,channel_5,channel_6,channel_7,channel_8,ACC_X,ACC_Y,ACC_Z,GYR_X,GYR_Y,GYR_Z
10_41_05_676,0.0,0.0,0.0,0.0,0.0,0.0,0.0,0.0,0.0,0.0,0.0,0.0,0.0,0.0
10_41_05_676,0.0,0.0,0.0,0.0,0.0,0.0,0.0,0.0,0.0,0.0,0.0,0.0,0.0,0.0
10_41_05_676,0.0,0.0,0.0,0.0,0.0,0.0,0.0,0.0,0.0,0.0,0.0,0.0,0.0,0.0
10_41_05_676,0.0,0.0,0.0,0.0,0.0,0.0,0.0,0.0,0.0,0.0,0.0,0.0,0.0,0.0
10_41_05_676,0.0,0.0,0.0,0.0,0.0,0.0,0.0,0.0,0.0,0.0,0.0,0.0,0.0,0.0
10_41_05_676,0.0,0.0,0.0,0.0,0.0,0.0,0.0,0.0,0.0,0.0,0.0,0.0,0.0,0.0
10_41_05_676,0.0,0.0,0.0,0.0,0.0,0.0,0.0,0.0,0.0,0.0,0.0,0.0,0.0,0.0
10_41_05_676,0.0,0.0,0.0,0.0,0.0,0.0,0.0,0.0,0.0,0.0,0.0,0.0,0.0,0.0
10_41_05_676,0.0,0.0,0.0,0.0,0.0,0.0,0.0,0.0,0.0,0.0,0.0,0.0,0.0,0.0
10_41_05_676,0.0,0.0,0.0,0.0,0.0,0.0,0.0,0.0,0.0,0.0,0.0,0.0,0.0,0.0
10_41_07_972,-6.0,-2.0,-3.0,-6.0,-2.0,9.0,-4.0,-12.0,0.0,0.0,0.0,0.0,0.0,0.0
10_41_07_972,2.0,0.0,-4.0,1.0,-1.0,-3.0,2.0,10.0,0.0,0.0,0.0,0.0,0.0,0.0
10_41_07_972,0.0,0.0,0.0,0.0,0.0,0.0,0.0,0.0,0.0,0.0,0.0,0.0,0.0,0.0
10_41_07_972,0.0,0.0,0.0,0.0,0.0,0.0,0.0,0.0,0.0,0.0,0.0,0.0,0.0,0.0
10_41_07_972,0.0,0.0,0.0,0.0,0.0,0.0,0.0,0.0,0.0,0.0,0.0,0.0,0.0,0.0
10_41_07_972,0.0,0.0,0.0,0.0,0.0,0.0,0.0,0.0,0.0,0.0,0.0,0.0,0.0,0.0
10_41_07_972,0.0,0.0,0.0,0.0,0.0,0.0,0.0,0.0,0.0,0.0,0.0,0.0,0.0,0.0
10_41_07_972,0.0,0.0,0.0,0.0,0.0,0.0,0.0,0.0,0.0,0.0,0.0,0.0,0.0,0.0
10_41_07_972,0.0,0.0,0.0,0.0,0.0,0.0,0.0,0.0,0.0,0.0,0.0,0.0,0.0,0.0
10_41_07_972,0.0,0.0,0.0,0.0,0.0,0.0,0.0,0.0,0.0,0.0,0.0,0.0,0.0,0.0
10_41_08_010,1.0,-2.0,-3.0,-2.0,-4.0,0.0,-1.0,1.0,0.94970703125,0.16455078125,0.15380859375,-1.7682926829268295,-2.073170731707317,-1.2195121951219514
10_41_08_010,-1.0,-1.0,3.0,0.0,-1.0,0.0,1.0,-2.0,0.94970703125,0.201171875,0.17578125,-0.9146341463414634,-0.853658536585366,-1.3414634146341464
10_41_08_010,2.0,6.0,0.0,-1.0,4.0,1.0,0.0,-1.0,0.96337890625,0.193359375,0.1845703125,5.365853658536586,-0.9756097560975611,-1.3414634146341464
10_41_08_010,-2.0,0.0,-1.0,-4.0,-1.0,4.0,1.0,-6.0,0.0,0.0,0.0,0.0,0.0,0.0
10_41_08_010,-8.0,-3.0,-2.0,1.0,1.0,-3.0,0.0,-5.0,0.0,0.0,0.0,0.0,0.0,0.0
10_41_08_010,0.0,0.0,-2.0,-1.0,1.0,1.0,2.0,4.0,0.0,0.0,0.0,0.0,0.0,0.0
10_41_08_010,-1.0,1.0,0.0,3.0,0.0,1.0,-8.0,5.0,0.0,0.0,0.0,0.0,0.0,0.0
10_41_08_010,-1.0,-1.0,-1.0,2.0,-2.0,-2.0,-3.0,-3.0,0.0,0.0,0.0,0.0,0.0,0.0
10_41_08_010,-6.0,1.0,0.0,-3.0,-3.0,-2.0,-2.0,-4.0,0.0,0.0,0.0,0.0,0.0,0.0
10_41_08_051,1.0,-1.0,-1.0,-9.0,-5.0,-51.0,-14.0,15.0,0.92041015625,0.1728515625,0.1748046875,2.8658536585365857,-3.780487804878049,-0.7317073170731708
10_41_08_051,-2.0,-4.0,5.0,-11.0,-5.0,-2.0,-12.0,-20.0,0.9365234375,0.17822265625,0.15966796875,0.12195121951219513,-1.707317073170732,-0.06097560975609757
10_41_08_051,6.0,3.0,0.0,11.0,7.0,-20.0,3.0,17.0,0.94970703125,0.16455078125,0.15380859375,-1.7682926829268295,-2.073170731707317,-1.2195121951219514
10_41_08_051,-1.0,-3.0,-1.0,-12.0,0.0,-4.0,9.0,-12.0,0.94970703125,0.16455078125,0.15380859375,-1.7682926829268295,-2.073170731707317,-1.2195121951219514
10_41_08_051,7.0,3.0,-3.0,3.0,7.0,5.0,-6.0,11.0,0.94970703125,0.201171875,0.17578125,-0.9146341463414634,-0.853658536585366,-1.3414634146341464
10_41_08_051,8.0,5.0,4.0,-2.0,0.0,10.0,10.0,-6.0,0.96337890625,0.193359375,0.1845703125,5.365853658536586,-0.9756097560975611,-1.3414634146341464
10_41_08_051,1.0,8.0,-5.0,1.0,3.0,-9.0,-7.0,4.0,0.0,0.0,0.0,0.0,0.0,0.0
10_41_08_051,0.0,0.0,2.0,3.0,3.0,4.0,5.0,2.0,0.0,0.0,0.0,0.0,0.0,0.0
10_41_08_106,-8.0,-4.0,5.0,-15.0,-4.0,12.0,28.0,-26.0,0.39013671875,-0.0380859375,-0.388671875,18.170731707317074,-5.853658536585367,-1.402439024390244
10_41_08_106,-1.0,-4.0,-7.0,-9.0,-5.0,-27.0,-20.0,10.0,1.09375,0.13525390625,0.63232421875,5.670731707317073,-6.52439024390244,1.3414634146341464
10_41_08_106,-6.0,-7.0,2.0,-9.0,-4.0,6.0,21.0,-21.0,0.8857421875,0.14208984375,0.1953125,6.463414634146342,-7.25609756097561,-3.048780487804878
10_41_08_106,9.0,6.0,-2.0,4.0,2.0,-21.0,7.0,13.0,0.92041015625,0.1728515625,0.1748046875,2.8658536585365857,-3.780487804878049,-0.7317073170731708
10_41_08_106,-5.0,-2.0,-4.0,-4.0,0.0,14.0,11.0,-24.0,0.9365234375,0.17822265625,0.15966796875,0.12195121951219513,-1.707317073170732,-0.06097560975609757
10_41_08_106,4.0,3.0,-2.0,2.0,5.0,10.0,3.0,7.0,0.94970703125,0.16455078125,0.15380859375,-1.7682926829268295,-2.073170731707317,-1.2195121951219514
10_41_08_106,-1.0,-3.0,-1.0,-10.0,2.0,3.0,15.0,-16.0,0.94970703125,0.16455078125,0.15380859375,-1.7682926829268295,-2.073170731707317,-1.2195121951219514
10_41_08_106,-2.0,0.0,-4.0,-3.0,-1.0,-63.0,-17.0,6.0,0.94970703125,0.201171875,0.17578125,-0.9146341463414634,-0.853658536585366,-1.3414634146341464
10_41_08_106,-12.0,-7.0,5.0,-15.0,-2.0,26.0,-4.0,-29.0,0.96337890625,0.193359375,0.1845703125,5.365853658536586,-0.9756097560975611,-1.3414634146341464
10_41_08_163,4.0,5.0,-5.0,-3.0,3.0,18.0,-1.0,1.0,0.76416015625,0.0546875,-0.68505859375,12.01219512195122,-7.8048780487804885,-1.6463414634146343
10_41_08_163,-6.0,-5.0,4.0,-6.0,-3.0,5.0,14.0,-12.0,1.443359375,0.369140625,0.39794921875,5.548780487804878,-8.414634146341465,-0.6707317073170732
10_41_08_163,-7.0,4.0,-1.0,-2.0,0.0,9.0,10.0,-11.0,1.25634765625,0.36572265625,1.0634765625,7.01219512195122,-7.500000000000001,-1.524390243902439
10_41_08_163,-6.0,-7.0,-4.0,-2.0,1.0,23.0,34.0,-13.0,0.39013671875,-0.0380859375,-0.388671875,18.170731707317074,-5.853658536585367,-1.402439024390244
10_41_08_163,4.0,2.0,-3.0,5.0,2.0,14.0,7.0,7.0,1.09375,0.13525390625,0.63232421875,5.670731707317073,-6.52439024390244,1.3414634146341464
10_41_08_163,-17.0,-8.0,1.0,-12.0,-15.0,-37.0,-41.0,-28.0,0.8857421875,0.14208984375,0.1953125,6.463414634146342,-7.25609756097561,-3.048780487804878
10_41_08_163,5.0,1.0,-3.0,-23.0,-12.0,-48.0,-79.0,2.0,0.92041015625,0.1728515625,0.1748046875,2.8658536585365857,-3.780487804878049,-0.7317073170731708
10_41_08_163,-11.0,-5.0,3.0,-5.0,5.0,12.0,11.0,-27.0,0.9365234375,0.17822265625,0.15966796875,0.12195121951219513,-1.707317073170732,-0.06097560975609757
10_41_08_163,1.0,0.0,-6.0,0.0,-2.0,13.0,-20.0,-6.0,0.94970703125,0.16455078125,0.15380859375,-1.7682926829268295,-2.073170731707317,-1.2195121951219514
10_41_08_163,-4.0,-3.0,2.0,-1.0,-3.0,-17.0,-5.0,-12.0,0.94970703125,0.16455078125,0.15380859375,-1.7682926829268295,-2.073170731707317,-1.2195121951219514
10_41_08_209,1.0,-1.0,-4.0,-3.0,-5.0,-5.0,-13.0,0.0,1.048828125,0.2724609375,0.8740234375,13.902439024390246,-3.414634146341464,-0.853658536585366
10_41_08_209,-7.0,-6.0,0.0,-2.0,-7.0,8.0,32.0,-6.0,0.4189453125,-0.0390625,-0.32470703125,21.219512195121954,-5.731707317073171,-3.048780487804878
10_41_08_209,2.0,0.0,-2.0,-9.0,0.0,-19.0,-19.0,-8.0,0.76416015625,0.0546875,-0.68505859375,12.01219512195122,-7.8048780487804885,-1.6463414634146343
10_41_08_209,-6.0,-1.0,0.0,2.0,0.0,8.0,2.0,-12.0,1.443359375,0.369140625,0.39794921875,5.548780487804878,-8.414634146341465,-0.6707317073170732
10_41_08_209,4.0,0.0,-7.0,-3.0,-1.0,-9.0,-8.0,6.0,1.25634765625,0.36572265625,1.0634765625,7.01219512195122,-7.500000000000001,-1.524390243902439
10_41_08_209,-10.0,-11.0,3.0,-3.0,-7.0,12.0,12.0,-15.0,0.39013671875,-0.0380859375,-0.388671875,18.170731707317074,-5.853658536585367,-1.402439024390244
10_41_08_209,4.0,5.0,-5.0,-3.0,3.0,18.0,-1.0,1.0,1.09375,0.13525390625,0.63232421875,5.670731707317073,-6.52439024390244,1.3414634146341464
10_41_08_209,-6.0,-5.0,4.0,-6.0,-3.0,5.0,14.0,-12.0,0.8857421875,0.14208984375,0.1953125,6.463414634146342,-7.25609756097561,-3.048780487804878
10_41_08_209,-7.0,4.0,-1.0,-2.0,0.0,9.0,10.0,-11.0,0.92041015625,0.1728515625,0.1748046875,2.8658536585365857,-3.780487804878049,-0.7317073170731708
10_41_08_209,-6.0,-7.0,-4.0,-2.0,1.0,23.0,34.0,-13.0,0.9365234375,0.17822265625,0.15966796875,0.12195121951219513,-1.707317073170732,-0.06097560975609757
10_41_08_270,1.0,4.0,-2.0,0.0,-6.0,-1.0,-2.0,4.0,0.85498046875,0.1083984375,-0.65771484375,8.902439024390244,-4.329268292682928,-0.5487804878048781
10_41_08_270,-6.0,-3.0,1.0,11.0,1.0,2.0,3.0,-5.0,1.50146484375,0.4208984375,0.6064453125,7.01219512195122,-4.573170731707317,0.1829268292682927
10_41_08_270,-3.0,-3.0,-3.0,-11.0,-4.0,-28.0,-39.0,-5.0,1.048828125,0.2724609375,0.8740234375,13.902439024390246,-3.414634146341464,-0.853658536585366
10_41_08_270,-2.0,-5.0,3.0,0.0,3.0,4.0,30.0,-8.0,0.4189453125,-0.0390625,-0.32470703125,21.219512195121954,-5.731707317073171,-3.048780487804878
10_41_08_270,-2.0,-2.0,-1.0,-6.0,-4.0,-2.0,0.0,-4.0,0.76416015625,0.0546875,-0.68505859375,12.01219512195122,-7.8048780487804885,-1.6463414634146343
10_41_08_270,-3.0,-3.0,2.0,9.0,4.0,8.0,6.0,-7.0,1.443359375,0.369140625,0.39794921875,5.548780487804878,-8.414634146341465,-0.6707317073170732
10_41_08_270,1.0,-1.0,-4.0,-3.0,-5.0,-5.0,-13.0,0.0,1.25634765625,0.36572265625,1.0634765625,7.01219512195122,-7.500000000000001,-1.524390243902439
10_41_08_270,-7.0,-6.0,0.0,-2.0,-7.0,8.0,32.0,-6.0,0.39013671875,-0.0380859375,-0.388671875,18.170731707317074,-5.853658536585367,-1.402439024390244
10_41_08_270,2.0,0.0,-2.0,-9.0,0.0,-19.0,-19.0,-8.0,1.09375,0.13525390625,0.63232421875,5.670731707317073,-6.52439024390244,1.3414634146341464
10_41_08_270,-6.0,-1.0,0.0,2.0,0.0,8.0,2.0,-12.0,0.8857421875,0.14208984375,0.1953125,6.463414634146342,-7.25609756097561,-3.048780487804878
10_41_08_310,-2.0,-1.0,-5.0,-6.0,-2.0,1.0,-15.0,1.0,0.67236328125,0.02587890625,-0.74755859375,9.207317073170733,-5.487804878048781,-0.48780487804878053
10_41_08_310,1.0,4.0,-5.0,20.0,3.0,12.0,14.0,10.0,1.45068359375,0.384765625,0.453125,-1.9512195121951221,-3.780487804878049,1.1585365853658538
10_41_08_310,-1.0,-3.0,-1.0,-6.0,1.0,11.0,3.0,-2.0,1.1005859375,0.30029296875,0.9189453125,3.353658536585366,-1.829268292682927,-0.9146341463414634
10_41_08_310,-12.0,-5.0,-1.0,-1.0,-12.0,-46.0,-21.0,-25.0,0.40673828125,-0.02783203125,-0.36865234375,13.04878048780488,-2.8658536585365857,-1.7682926829268295
10_41_08_310,-5.0,-2.0,2.0,-15.0,1.0,-2.0,-33.0,-8.0,0.85498046875,0.1083984375,-0.65771484375,8.902439024390244,-4.329268292682928,-0.5487804878048781
10_41_08_310,4.0,2.0,-3.0,16.0,9.0,52.0,0.0,7.0,1.50146484375,0.4208984375,0.6064453125,7.01219512195122,-4.573170731707317,0.1829268292682927
10_41_08_310,1.0,-1.0,-5.0,-2.0,-6.0,-28.0,9.0,2.0,1.048828125,0.2724609375,0.8740234375,13.902439024390246,-3.414634146341464,-0.853658536585366
10_41_08_310,-10.0,-5.0,2.0,9.0,-3.0,11.0,20.0,3.0,0.4189453125,-0.0390625,-0.32470703125,21.219512195121954,-5.731707317073171,-3.048780487804878
10_41_08_310,-3.0,1.0,-1.0,-13.0,-3.0,-32.0,-32.0,-9.0,0.76416015625,0.0546875,-0.68505859375,12.01219512195122,-7.8048780487804885,-1.6463414634146343
10_41_08_310,-3.0,-4.0,-4.0,2.0,-7.0,20.0,32.0,-3.0,1.443359375,0.369140625,0.39794921875,5.548780487804878,-8.414634146341465,-0.6707317073170732
10_41_08_359,0.0,-2.0,1.0,-3.0,0.0,15.0,8.0,0.0,1.27685546875,0.30126953125,-0.02978515625,-1.2804878048780488,-2.1341463414634148,0.5487804878048781
10_41_08_359,9.0,6.0,1.0,11.0,3.0,-5.0,-84.0,23.0,1.34619140625,0.40625,1.0185546875,-0.5487804878048781,-1.2195121951219514,0.9756097560975611
10_41_08_359,-8.0,-4.0,2.0,3.0,-5.0,-27.0,44.0,-6.0,0.51611328125,0.0263671875,0.013671875,11.585365853658537,-3.536585365853659,-1.707317073170732
10_41_08_359,6.0,3.0,-7.0,8.0,6.0,36.0,-20.0,29.0,0.67236328125,0.02587890625,-0.74755859375,9.207317073170733,-5.487804878048781,-0.48780487804878053
10_41_08_359,-9.0,-1.0,-5.0,-6.0,1.0,20.0,25.0,-11.0,1.45068359375,0.384765625,0.453125,-1.9512195121951221,-3.780487804878049,1.1585365853658538
10_41_08_359,3.0,3.0,0.0,6.0,-2.0,-19.0,-12.0,10.0,1.1005859375,0.30029296875,0.9189453125,3.353658536585366,-1.829268292682927,-0.9146341463414634
10_41_08_359,4.0,1.0,-1.0,-2.0,1.0,16.0,-2.0,1.0,0.40673828125,-0.02783203125,-0.36865234375,13.04878048780488,-2.8658536585365857,-1.7682926829268295
10_41_08_359,-2.0,-1.0,4.0,17.0,2.0,-27.0,-11.0,11.0,0.85498046875,0.1083984375,-0.65771484375,8.902439024390244,-4.329268292682928,-0.5487804878048781
10_41_08_359,1.0,2.0,-5.0,-5.0,-3.0,-2.0,-7.0,-11.0,1.50146484375,0.4208984375,0.6064453125,7.01219512195122,-4.573170731707317,0.1829268292682927
10_41_08_359,1.0,2.0,-7.0,3.0,-3.0,-3.0,-8.0,17.0,1.048828125,0.2724609375,0.8740234375,13.902439024390246,-3.414634146341464,-0.853658536585366
10_41_08_420,6.0,6.0,5.0,7.0,4.0,16.0,51.0,5.0,0.77392578125,0.1455078125,0.5087890625,4.207317073170732,-1.0365853658536586,-0.9756097560975611
10_41_08_420,5.0,2.0,-5.0,10.0,0.0,-5.0,-13.0,5.0,0.4462890625,-0.04931640625,-0.763671875,7.378048780487806,-2.987804878048781,-0.6707317073170732
10_41_08_420,-7.0,-1.0,6.0,1.0,4.0,9.0,-1.0,-9.0,1.27685546875,0.30126953125,-0.02978515625,-1.2804878048780488,-2.1341463414634148,0.5487804878048781
10_41_08_420,0.0,2.0,-5.0,0.0,-1.0,-6.0,-7.0,9.0,1.34619140625,0.40625,1.0185546875,-0.5487804878048781,-1.2195121951219514,0.9756097560975611
10_41_08_420,1.0,-2.0,0.0,-12.0,-4.0,-1.0,6.0,-2.0,0.51611328125,0.0263671875,0.013671875,11.585365853658537,-3.536585365853659,-1.707317073170732
10_41_08_420,3.0,2.0,-6.0,7.0,1.0,-6.0,-10.0,15.0,0.67236328125,0.02587890625,-0.74755859375,9.207317073170733,-5.487804878048781,-0.48780487804878053
10_41_08_420,-1.0,-1.0,-2.0,1.0,-1.0,-2.0,5.0,-5.0,1.45068359375,0.384765625,0.453125,-1.9512195121951221,-3.780487804878049,1.1585365853658538
10_41_08_420,8.0,2.0,-5.0,12.0,2.0,11.0,-6.0,21.0,1.1005859375,0.30029296875,0.9189453125,3.353658536585366,-1.829268292682927,-0.9146341463414634
10_41_08_420,-3.0,-1.0,0.0,-8.0,1.0,5.0,12.0,-5.0,0.40673828125,-0.02783203125,-0.36865234375,13.04878048780488,-2.8658536585365857,-1.7682926829268295
10_41_08_420,9.0,3.0,-4.0,10.0,1.0,2.0,13.0,13.0,0.85498046875,0.1083984375,-0.65771484375,8.902439024390244,-4.329268292682928,-0.5487804878048781
10_41_08_482,-4.0,-3.0,4.0,-10.0,-3.0,4.0,8.0,-18.0,0.42431640625,-0.02001953125,-0.3115234375,3.1097560975609757,-0.853658536585366,-2.439024390243903
10_41_08_482,4.0,3.0,-3.0,0.0,0.0,-3.0,-5.0,9.0,0.89599609375,0.123046875,-0.6123046875,0.1829268292682927,-1.7682926829268295,0.7926829268292683
10_41_08_482,12.0,-13.0,5.0,-5.0,-1.0,5.0,10.0,-2.0,1.49609375,0.4287109375,0.791015625,-4.085365853658537,-0.1829268292682927,2.5
10_41_08_482,-2.0,4.0,-5.0,1.0,0.0,-18.0,-15.0,7.0,0.77392578125,0.1455078125,0.5087890625,4.207317073170732,-1.0365853658536586,-0.9756097560975611
10_41_08_482,-6.0,-6.0,4.0,-17.0,-8.0,0.0,-1.0,-21.0,0.4462890625,-0.04931640625,-0.763671875,7.378048780487806,-2.987804878048781,-0.6707317073170732
10_41_08_482,4.0,4.0,-2.0,4.0,0.0,1.0,2.0,9.0,1.27685546875,0.30126953125,-0.02978515625,-1.2804878048780488,-2.1341463414634148,0.5487804878048781
10_41_08_482,-6.0,-3.0,2.0,-5.0,-4.0,11.0,15.0,-16.0,1.34619140625,0.40625,1.0185546875,-0.5487804878048781,-1.2195121951219514,0.9756097560975611
10_41_08_482,4.0,1.0,-3.0,7.0,5.0,4.0,3.0,22.0,0.51611328125,0.0263671875,0.013671875,11.585365853658537,-3.536585365853659,-1.707317073170732
10_41_08_482,-8.0,-3.0,1.0,-11.0,-6.0,-17.0,-16.0,-49.0,0.67236328125,0.02587890625,-0.74755859375,9.207317073170733,-5.487804878048781,-0.48780487804878053
10_41_08_482,6.0,6.0,-1.0,10.0,9.0,1.0,22.0,29.0,1.45068359375,0.384765625,0.453125,-1.9512195121951221,-3.780487804878049,1.1585365853658538
10_41_08_533,-11.0,-6.0,4.0,1.0,-1.0,8.0,2.0,-17.0,0.49658203125,-0.0390625,-0.79296875,-3.5975609756097566,3.8414634146341466,-0.6097560975609757
10_41_08_533,5.0,2.0,-4.0,1.0,0.0,-2.0,-5.0,7.0,1.384765625,0.3623046875,0.1455078125,-11.646341463414634,5.548780487804878,1.707317073170732
10_41_08_533,-8.0,-8.0,1.0,-8.0,-2.0,3.0,9.0,-13.0,1.25390625,0.37353515625,0.96728515625,-7.926829268292684,4.024390243902439,-0.06097560975609757
10_41_08_533,9.0,11.0,2.0,-6.0,1.0,-4.0,-1.0,-1.0,0.42431640625,-0.02001953125,-0.3115234375,3.1097560975609757,-0.853658536585366,-2.439024390243903
10_41_08_533,-6.0,-1.0,2.0,-8.0,-1.0,7.0,10.0,-13.0,0.89599609375,0.123046875,-0.6123046875,0.1829268292682927,-1.7682926829268295,0.7926829268292683
10_41_08_533,-9.0,1.0,-1.0,0.0,4.0,-4.0,-6.0,5.0,1.49609375,0.4287109375,0.791015625,-4.085365853658537,-0.1829268292682927,2.5
10_41_08_533,-6.0,-4.0,3.0,3.0,-3.0,1.0,6.0,-14.0,0.77392578125,0.1455078125,0.5087890625,4.207317073170732,-1.0365853658536586,-0.9756097560975611
10_41_08_533,4.0,2.0,-1.0,4.0,1.0,-4.0,-6.0,5.0,0.4462890625,-0.04931640625,-0.763671875,7.378048780487806,-2.987804878048781,-0.6707317073170732
10_41_08_533,-7.0,-4.0,3.0,-12.0,-5.0,1.0,12.0,-17.0,1.27685546875,0.30126953125,-0.02978515625,-1.2804878048780488,-2.1341463414634148,0.5487804878048781
10_41_08_533,0.0,3.0,-7.0,-4.0,3.0,-3.0,-1.0,2.0,1.34619140625,0.40625,1.0185546875,-0.5487804878048781,-1.2195121951219514,0.9756097560975611
10_41_08_573,-7.0,-1.0,4.0,4.0,1.0,24.0,-21.0,-11.0,1.51513671875,0.43994140625,0.87158203125,-14.085365853658537,4.573170731707317,1.0365853658536586
10_41_08_573,2.0,1.0,-4.0,1.0,4.0,9.0,19.0,3.0,0.73388671875,0.1220703125,0.4609375,-6.341463414634147,3.7195121951219514,-0.9146341463414634
10_41_08_573,-7.0,-4.0,0.0,-8.0,-2.0,22.0,17.0,-10.0,0.49658203125,-0.0390625,-0.79296875,-3.5975609756097566,3.8414634146341466,-0.6097560975609757
10_41_08_573,-7.0,1.0,-2.0,-7.0,-5.0,-19.0,-4.0,-3.0,1.384765625,0.3623046875,0.1455078125,-11.646341463414634,5.548780487804878,1.707317073170732
10_41_08_573,-7.0,-4.0,-2.0,-2.0,0.0,21.0,12.0,-9.0,1.25390625,0.37353515625,0.96728515625,-7.926829268292684,4.024390243902439,-0.06097560975609757
10_41_08_573,-1.0,0.0,-2.0,-3.0,-4.0,-36.0,-36.0,1.0,0.42431640625,-0.02001953125,-0.3115234375,3.1097560975609757,-0.853658536585366,-2.439024390243903
10_41_08_573,-1.0,-4.0,1.0,4.0,-1.0,22.0,35.0,-18.0,0.89599609375,0.123046875,-0.6123046875,0.1829268292682927,-1.7682926829268295,0.7926829268292683
10_41_08_573,0.0,-1.0,0.0,-3.0,2.0,-6.0,-4.0,0.0,1.49609375,0.4287109375,0.791015625,-4.085365853658537,-0.1829268292682927,2.5
10_41_08_573,-6.0,-7.0,4.0,-9.0,-4.0,7.0,7.0,-17.0,0.77392578125,0.1455078125,0.5087890625,4.207317073170732,-1.0365853658536586,-0.9756097560975611
10_41_08_573,0.0,-2.0,0.0,-9.0,-1.0,-1.0,-2.0,-1.0,0.4462890625,-0.04931640625,-0.763671875,7.378048780487806,-2.987804878048781,-0.6707317073170732
10_41_08_620,7.0,5.0,-1.0,25.0,11.0,88.0,127.0,10.0,1.2783203125,0.34619140625,1.04345703125,-11.036585365853659,0.6097560975609757,-2.439024390243903
10_41_08_620,-5.0,-5.0,-5.0,-17.0,-5.0,-41.0,-13.0,-6.0,0.40478515625,-0.03076171875,-0.255859375,-2.6219512195121952,2.1341463414634148,-1.6463414634146343
10_41_08_620,1.0,-4.0,5.0,1.0,-1.0,-19.0,-23.0,-7.0,0.92138671875,0.1455078125,-0.5283203125,-6.951219512195123,5.670731707317073,0.426829268292683
10_41_08_620,3.0,2.0,-5.0,3.0,3.0,35.0,14.0,4.0,1.51513671875,0.43994140625,0.87158203125,-14.085365853658537,4.573170731707317,1.0365853658536586
10_41_08_620,-4.0,-1.0,0.0,12.0,1.0,-22.0,-12.0,-8.0,0.73388671875,0.1220703125,0.4609375,-6.341463414634147,3.7195121951219514,-0.9146341463414634
10_41_08_620,1.0,-3.0,-1.0,-8.0,-5.0,3.0,-6.0,9.0,0.49658203125,-0.0390625,-0.79296875,-3.5975609756097566,3.8414634146341466,-0.6097560975609757
10_41_08_620,-2.0,-5.0,-2.0,-3.0,1.0,47.0,23.0,-3.0,1.384765625,0.3623046875,0.1455078125,-11.646341463414634,5.548780487804878,1.707317073170732
10_41_08_620,1.0,3.0,0.0,-2.0,-1.0,-1.0,5.0,-5.0,1.25390625,0.37353515625,0.96728515625,-7.926829268292684,4.024390243902439,-0.06097560975609757
10_41_08_620,-3.0,-6.0,3.0,0.0,2.0,15.0,12.0,-7.0,0.42431640625,-0.02001953125,-0.3115234375,3.1097560975609757,-0.853658536585366,-2.439024390243903
10_41_08_620,-2.0,-3.0,-2.0,-5.0,-12.0,-29.0,-10.0,4.0,0.89599609375,0.123046875,-0.6123046875,0.1829268292682927,-1.7682926829268295,0.7926829268292683
10_41_08_686,-6.0,-2.0,-4.0,3.0,-3.0,16.0,12.0,-7.0,1.2783203125,0.34619140625,1.04345703125,-11.036585365853659,0.6097560975609757,-2.439024390243903
10_41_08_686,0.0,2.0,-1.0,-3.0,3.0,24.0,24.0,0.0,0.40478515625,-0.03076171875,-0.255859375,-2.6219512195121952,2.1341463414634148,-1.6463414634146343
10_41_08_686,-11.0,-11.0,-2.0,1.0,-21.0,-63.0,-45.0,-10.0,0.92138671875,0.1455078125,-0.5283203125,-6.951219512195123,5.670731707317073,0.426829268292683
10_41_08_686,-2.0,-2.0,-1.0,-13.0,-2.0,2.0,-123.0,7.0,1.51513671875,0.43994140625,0.87158203125,-14.085365853658537,4.573170731707317,1.0365853658536586
10_41_08_686,7.0,5.0,-1.0,25.0,11.0,88.0,127.0,10.0,0.73388671875,0.1220703125,0.4609375,-6.341463414634147,3.7195121951219514,-0.9146341463414634
10_41_08_686,-5.0,-5.0,-5.0,-17.0,-5.0,-41.0,-13.0,-6.0,0.49658203125,-0.0390625,-0.79296875,-3.5975609756097566,3.8414634146341466,-0.6097560975609757
10_41_08_686,1.0,-4.0,5.0,1.0,-1.0,-19.0,-23.0,-7.0,1.384765625,0.3623046875,0.1455078125,-11.646341463414634,5.548780487804878,1.707317073170732
10_41_08_686,3.0,2.0,-5.0,3.0,3.0,35.0,14.0,4.0,1.25390625,0.37353515625,0.96728515625,-7.926829268292684,4.024390243902439,-0.06097560975609757
10_41_08_686,-4.0,-1.0,0.0,12.0,1.0,-22.0,-12.0,-8.0,0.42431640625,-0.02001953125,-0.3115234375,3.1097560975609757,-0.853658536585366,-2.439024390243903
10_41_08_686,1.0,-3.0,-1.0,-8.0,-5.0,3.0,-6.0,9.0,0.89599609375,0.123046875,-0.6123046875,0.1829268292682927,-1.7682926829268295,0.7926829268292683
10_41_08_719,3.0,3.0,-3.0,8.0,-1.0,-2.0,-1.0,14.0,0.654296875,0.02978515625,-0.72802734375,7.560975609756098,-1.0975609756097562,-0.5487804878048781
10_41_08_719,0.0,-1.0,-5.0,-4.0,2.0,3.0,12.0,-3.0,1.4951171875,0.40673828125,0.6220703125,-8.353658536585366,-1.7682926829268295,1.402439024390244
10_41_08_719,1.0,-3.0,-3.0,6.0,4.0,-8.0,-1.0,9.0,0.89794921875,0.212890625,0.75927734375,-3.5975609756097566,-0.3658536585365854,-0.30487804878048785
10_41_08_719,1.0,2.0,-5.0,3.0,-1.0,11.0,-7.0,-3.0,0.419921875,-0.0341796875,-0.68017578125,5.060975609756098,3.1707317073170733,-0.3658536585365854
10_41_08_719,2.0,0.0,-1.0,12.0,-9.0,-25.0,17.0,26.0,1.31103515625,0.3115234375,0.07275390625,-6.2804878048780495,2.682926829268293,0.30487804878048785
10_41_08_719,-7.0,2.0,0.0,-9.0,-1.0,-13.0,-10.0,3.0,1.2783203125,0.34619140625,1.04345703125,-11.036585365853659,0.6097560975609757,-2.439024390243903
10_41_08_719,6.0,5.0,-4.0,10.0,2.0,11.0,5.0,13.0,0.40478515625,-0.03076171875,-0.255859375,-2.6219512195121952,2.1341463414634148,-1.6463414634146343
10_41_08_719,-1.0,1.0,2.0,-8.0,4.0,4.0,2.0,-3.0,0.92138671875,0.1455078125,-0.5283203125,-6.951219512195123,5.670731707317073,0.426829268292683
10_41_08_719,0.0,-2.0,-5.0,10.0,0.0,-21.0,-5.0,11.0,1.51513671875,0.43994140625,0.87158203125,-14.085365853658537,4.573170731707317,1.0365853658536586
10_41_08_719,-1.0,-1.0,0.0,-3.0,0.0,21.0,-10.0,-7.0,0.73388671875,0.1220703125,0.4609375,-6.341463414634147,3.7195121951219514,-0.9146341463414634
10_41_08_781,5.0,3.0,-2.0,12.0,-2.0,-6.0,-9.0,14.0,0.5869140625,0.07763671875,0.2109375,7.865853658536586,-0.6707317073170732,-0.06097560975609757
10_41_08_781,-2.0,1.0,3.0,-3.0,0.0,3.0,7.0,-6.0,0.654296875,0.02978515625,-0.72802734375,7.560975609756098,-1.0975609756097562,-0.5487804878048781
10_41_08_781,3.0,3.0,-3.0,8.0,-1.0,-2.0,-1.0,14.0,1.4951171875,0.40673828125,0.6220703125,-8.353658536585366,-1.7682926829268295,1.402439024390244
10_41_08_781,0.0,-1.0,-5.0,-4.0,2.0,3.0,12.0,-3.0,0.89794921875,0.212890625,0.75927734375,-3.5975609756097566,-0.3658536585365854,-0.30487804878048785
10_41_08_781,1.0,-3.0,-3.0,6.0,4.0,-8.0,-1.0,9.0,0.419921875,-0.0341796875,-0.68017578125,5.060975609756098,3.1707317073170733,-0.3658536585365854
10_41_08_781,1.0,2.0,-5.0,3.0,-1.0,11.0,-7.0,-3.0,1.31103515625,0.3115234375,0.07275390625,-6.2804878048780495,2.682926829268293,0.30487804878048785
10_41_08_781,2.0,0.0,-1.0,12.0,-9.0,-25.0,17.0,26.0,1.2783203125,0.34619140625,1.04345703125,-11.036585365853659,0.6097560975609757,-2.439024390243903
10_41_08_781,-7.0,2.0,0.0,-9.0,-1.0,-13.0,-10.0,3.0,0.40478515625,-0.03076171875,-0.255859375,-2.6219512195121952,2.1341463414634148,-1.6463414634146343
10_41_08_781,6.0,5.0,-4.0,10.0,2.0,11.0,5.0,13.0,0.92138671875,0.1455078125,-0.5283203125,-6.951219512195123,5.670731707317073,0.426829268292683
10_41_08_781,-1.0,1.0,2.0,-8.0,4.0,4.0,2.0,-3.0,1.51513671875,0.43994140625,0.87158203125,-14.085365853658537,4.573170731707317,1.0365853658536586
10_41_08_826,9.0,3.0,-1.0,8.0,8.0,36.0,5.0,14.0,0.40087890625,-0.0361328125,-0.33447265625,9.695121951219512,-4.390243902439025,-1.829268292682927
10_41_08_826,-1.0,-1.0,4.0,-2.0,-5.0,-36.0,14.0,-9.0,0.9873046875,0.162109375,-0.4453125,2.7439024390243905,-2.3170731707317076,1.7682926829268295
10_41_08_826,7.0,-1.0,-7.0,-4.0,-3.0,-19.0,-69.0,34.0,1.46923828125,0.4384765625,0.970703125,-3.780487804878049,-0.9756097560975611,1.0365853658536586
10_41_08_826,9.0,2.0,3.0,-9.0,1.0,20.0,64.0,3.0,0.5869140625,0.07763671875,0.2109375,7.865853658536586,-0.6707317073170732,-0.06097560975609757
10_41_08_826,4.0,3.0,-1.0,11.0,7.0,16.0,12.0,14.0,0.654296875,0.02978515625,-0.72802734375,7.560975609756098,-1.0975609756097562,-0.5487804878048781
10_41_08_826,-3.0,-2.0,1.0,-5.0,4.0,10.0,18.0,-2.0,1.4951171875,0.40673828125,0.6220703125,-8.353658536585366,-1.7682926829268295,1.402439024390244
10_41_08_826,-2.0,-2.0,-4.0,2.0,-6.0,-53.0,-27.0,12.0,0.89794921875,0.212890625,0.75927734375,-3.5975609756097566,-0.3658536585365854,-0.30487804878048785
10_41_08_826,-6.0,-2.0,0.0,-4.0,-8.0,10.0,-44.0,-9.0,0.419921875,-0.0341796875,-0.68017578125,5.060975609756098,3.1707317073170733,-0.3658536585365854
10_41_08_826,10.0,3.0,-5.0,8.0,6.0,34.0,34.0,25.0,1.31103515625,0.3115234375,0.07275390625,-6.2804878048780495,2.682926829268293,0.30487804878048785
10_41_08_826,-3.0,-6.0,-1.0,-9.0,2.0,0.0,-8.0,-1.0,1.2783203125,0.34619140625,1.04345703125,-11.036585365853659,0.6097560975609757,-2.439024390243903
10_41_08_876,-12.0,-14.0,3.0,-11.0,-8.0,-16.0,-44.0,-15.0,1.28271484375,0.359375,1.01123046875,-1.402439024390244,-2.804878048780488,-1.7682926829268295
10_41_08_876,2.0,2.0,-3.0,-4.0,-8.0,76.0,-11.0,8.0,0.40087890625,-0.0361328125,-0.33447265625,9.695121951219512,-4.390243902439025,-1.829268292682927
10_41_08_876,2.0,-3.0,4.0,-13.0,7.0,19.0,15.0,6.0,0.9873046875,0.162109375,-0.4453125,2.7439024390243905,-2.3170731707317076,1.7682926829268295
10_41_08_876,-5.0,3.0,0.0,-4.0,0.0,-40.0,-107.0,-3.0,1.46923828125,0.4384765625,0.970703125,-3.780487804878049,-0.9756097560975611,1.0365853658536586
10_41_08_876,6.0,4.0,-3.0,4.0,3.0,26.0,69.0,-7.0,0.5869140625,0.07763671875,0.2109375,7.865853658536586,-0.6707317073170732,-0.06097560975609757
10_41_08_876,3.0,5.0,-2.0,2.0,4.0,6.0,-13.0,6.0,0.654296875,0.02978515625,-0.72802734375,7.560975609756098,-1.0975609756097562,-0.5487804878048781
10_41_08_876,-1.0,-4.0,3.0,-9.0,-4.0,0.0,26.0,-10.0,1.4951171875,0.40673828125,0.6220703125,-8.353658536585366,-1.7682926829268295,1.402439024390244
10_41_08_876,3.0,-1.0,-2.0,-2.0,-3.0,5.0,7.0,10.0,0.89794921875,0.212890625,0.75927734375,-3.5975609756097566,-0.3658536585365854,-0.30487804878048785
10_41_08_876,-3.0,-5.0,3.0,-14.0,0.0,-6.0,12.0,-14.0,0.419921875,-0.0341796875,-0.68017578125,5.060975609756098,3.1707317073170733,-0.3658536585365854
10_41_08_931,-7.0,-5.0,0.0,2.0,-3.0,8.0,5.0,-9.0,0.4189453125,-0.05419921875,-0.6826171875,5.914634146341464,-3.048780487804878,-1.2804878048780488
10_41_08_931,3.0,-3.0,-1.0,-12.0,0.0,-1.0,-4.0,4.0,1.27783203125,0.29541015625,0.00048828125,-3.048780487804878,-1.4634146341463417,2.6219512195121952
10_41_08_931,-10.0,0.0,7.0,-7.0,-6.0,4.0,9.0,-19.0,1.28271484375,0.359375,1.01123046875,-1.402439024390244,-2.804878048780488,-1.7682926829268295
10_41_08_931,6.0,1.0,-4.0,-6.0,1.0,-6.0,-5.0,3.0,0.40087890625,-0.0361328125,-0.33447265625,9.695121951219512,-4.390243902439025,-1.829268292682927
10_41_08_931,-1.0,-7.0,3.0,-2.0,-7.0,3.0,6.0,-10.0,0.9873046875,0.162109375,-0.4453125,2.7439024390243905,-2.3170731707317076,1.7682926829268295
10_41_08_931,8.0,1.0,-7.0,3.0,-1.0,-6.0,-10.0,17.0,1.46923828125,0.4384765625,0.970703125,-3.780487804878049,-0.9756097560975611,1.0365853658536586
10_41_08_931,-12.0,-5.0,4.0,-2.0,-1.0,4.0,4.0,-24.0,0.5869140625,0.07763671875,0.2109375,7.865853658536586,-0.6707317073170732,-0.06097560975609757
10_41_08_931,12.0,-1.0,-7.0,-5.0,-1.0,-2.0,0.0,11.0,0.654296875,0.02978515625,-0.72802734375,7.560975609756098,-1.0975609756097562,-0.5487804878048781
10_41_08_931,0.0,-7.0,2.0,-13.0,-3.0,13.0,20.0,-6.0,1.4951171875,0.40673828125,0.6220703125,-8.353658536585366,-1.7682926829268295,1.402439024390244
10_41_08_969,7.0,5.0,1.0,5.0,6.0,31.0,37.0,23.0,1.43115234375,0.4208984375,1.0087890625,-5.487804878048781,-0.9146341463414634,-0.426829268292683
10_41_08_969,-12.0,-7.0,0.0,0.0,-2.0,-2.0,-13.0,-60.0,0.55126953125,0.0361328125,0.1162109375,1.5853658536585367,-1.1585365853658538,-2.804878048780488
10_41_08_969,1.0,2.0,-3.0,1.0,-1.0,9.0,16.0,16.0,0.64453125,0.04541015625,-0.7763671875,1.402439024390244,0.30487804878048785,-1.6463414634146343
10_41_08_969,-7.0,-7.0,4.0,-7.0,-5.0,-35.0,-2.0,-17.0,0.96044921875,0.23583984375,0.77001953125,1.707317073170732,-0.9146341463414634,-0.9756097560975611
10_41_08_969,1.0,2.0,-1.0,-7.0,1.0,21.0,-7.0,-1.0,0.4189453125,-0.05419921875,-0.6826171875,5.914634146341464,-3.048780487804878,-1.2804878048780488
10_41_08_969,-5.0,-6.0,0.0,1.0,0.0,12.0,19.0,-12.0,1.27783203125,0.29541015625,0.00048828125,-3.048780487804878,-1.4634146341463417,2.6219512195121952
10_41_08_969,6.0,2.0,-1.0,0.0,2.0,5.0,10.0,2.0,1.28271484375,0.359375,1.01123046875,-1.402439024390244,-2.804878048780488,-1.7682926829268295
10_41_08_969,-5.0,-3.0,3.0,2.0,-3.0,8.0,5.0,-9.0,0.40087890625,-0.0361328125,-0.33447265625,9.695121951219512,-4.390243902439025,-1.829268292682927
10_41_08_969,-3.0,0.0,0.0,-6.0,1.0,-39.0,-51.0,-7.0,0.9873046875,0.162109375,-0.4453125,2.7439024390243905,-2.3170731707317076,1.7682926829268295
10_41_08_969,-1.0,-4.0,2.0,-3.0,-5.0,41.0,52.0,-11.0,1.46923828125,0.4384765625,0.970703125,-3.780487804878049,-0.9756097560975611,1.0365853658536586
10_41_09_033,-2.0,2.0,-2.0,-4.0,5.0,4.0,3.0,-3.0,1.1328125,0.23974609375,-0.2744140625,-1.524390243902439,-0.426829268292683,0.7317073170731708
10_41_09_033,-7.0,-4.0,-2.0,3.0,-9.0,7.0,5.0,-5.0,1.43115234375,0.4208984375,1.0087890625,-5.487804878048781,-0.9146341463414634,-0.426829268292683
10_41_09_033,-5.0,-2.0,1.0,-14.0,1.0,-19.0,14.0,-4.0,0.55126953125,0.0361328125,0.1162109375,1.5853658536585367,-1.1585365853658538,-2.804878048780488
10_41_09_033,-3.0,2.0,3.0,6.0,-4.0,15.0,-19.0,-18.0,0.64453125,0.04541015625,-0.7763671875,1.402439024390244,0.30487804878048785,-1.6463414634146343
10_41_09_033,6.0,3.0,-3.0,4.0,3.0,19.0,41.0,15.0,0.96044921875,0.23583984375,0.77001953125,1.707317073170732,-0.9146341463414634,-0.9756097560975611
10_41_09_033,-6.0,-2.0,3.0,10.0,-1.0,10.0,18.0,-8.0,0.4189453125,-0.05419921875,-0.6826171875,5.914634146341464,-3.048780487804878,-1.2804878048780488
10_41_09_033,-10.0,-5.0,-5.0,-15.0,-12.0,-48.0,-30.0,4.0,1.27783203125,0.29541015625,0.00048828125,-3.048780487804878,-1.4634146341463417,2.6219512195121952
10_41_09_033,-5.0,-3.0,2.0,-2.0,2.0,45.0,-16.0,-7.0,1.28271484375,0.359375,1.01123046875,-1.402439024390244,-2.804878048780488,-1.7682926829268295
10_41_09_084,11.0,5.0,1.0,2.0,-3.0,-3.0,-1.0,-5.0,0.62109375,0.03955078125,-0.783203125,-3.231707317073171,-1.8902439024390245,-2.7439024390243905
10_41_09_084,-2.0,-3.0,0.0,17.0,2.0,-5.0,-13.0,20.0,1.48388671875,0.42578125,0.5166015625,-9.390243902439025,-1.5853658536585367,-0.12195121951219513
10_41_09_084,2.0,1.0,-2.0,-4.0,-2.0,-5.0,-1.0,-1.0,1.017578125,0.259765625,0.87158203125,-5.487804878048781,-1.829268292682927,-1.0975609756097562
10_41_09_084,2.0,2.0,-4.0,6.0,-2.0,-4.0,-9.0,14.0,0.39306640625,-0.0576171875,-0.5712890625,2.378048780487805,-1.829268292682927,-1.9512195121951221
10_41_09_084,-3.0,-3.0,2.0,-12.0,0.0,-3.0,9.0,-7.0,1.1328125,0.23974609375,-0.2744140625,-1.524390243902439,-0.426829268292683,0.7317073170731708
10_41_09_084,2.0,0.0,-1.0,10.0,0.0,24.0,1.0,14.0,1.43115234375,0.4208984375,1.0087890625,-5.487804878048781,-0.9146341463414634,-0.426829268292683
10_41_09_084,-1.0,1.0,2.0,1.0,4.0,12.0,14.0,-4.0,0.55126953125,0.0361328125,0.1162109375,1.5853658536585367,-1.1585365853658538,-2.804878048780488
10_41_09_084,1.0,4.0,0.0,21.0,5.0,19.0,0.0,13.0,0.64453125,0.04541015625,-0.7763671875,1.402439024390244,0.30487804878048785,-1.6463414634146343
10_41_09_084,-2.0,1.0,-1.0,1.0,-4.0,-11.0,6.0,-6.0,0.96044921875,0.23583984375,0.77001953125,1.707317073170732,-0.9146341463414634,-0.9756097560975611
10_41_09_084,-5.0,-6.0,-1.0,-6.0,-12.0,-16.0,-38.0,3.0,0.4189453125,-0.05419921875,-0.6826171875,5.914634146341464,-3.048780487804878,-1.2804878048780488
10_41_09_120,-2.0,4.0,0.0,3.0,3.0,1.0,-1.0,-4.0,1.005859375,0.19287109375,-0.4501953125,-11.341463414634147,-0.30487804878048785,0.7926829268292683
10_41_09_120,2.0,2.0,-6.0,12.0,-2.0,-8.0,-11.0,14.0,1.4658203125,0.44189453125,0.97705078125,-15.365853658536587,1.0365853658536586,1.1585365853658538
10_41_09_120,-6.0,1.0,1.0,-8.0,-3.0,0.0,3.0,-8.0,0.6123046875,0.07177734375,0.20556640625,-6.036585365853659,-0.5487804878048781,-2.6219512195121952
10_41_09_120,0.0,2.0,0.0,0.0,-2.0,0.0,-6.0,5.0,0.62109375,0.03955078125,-0.783203125,-3.231707317073171,-1.8902439024390245,-2.7439024390243905
10_41_09_120,1.0,3.0,-3.0,-8.0,0.0,-4.0,1.0,-2.0,1.48388671875,0.42578125,0.5166015625,-9.390243902439025,-1.5853658536585367,-0.12195121951219513
10_41_09_120,-74.0,-18.0,-1.0,6.0,-1.0,-5.0,-8.0,22.0,1.017578125,0.259765625,0.87158203125,-5.487804878048781,-1.829268292682927,-1.0975609756097562
10_41_09_120,-8.0,9.0,-4.0,-3.0,1.0,-2.0,1.0,-2.0,0.39306640625,-0.0576171875,-0.5712890625,2.378048780487805,-1.829268292682927,-1.9512195121951221
10_41_09_120,2.0,7.0,-6.0,9.0,4.0,-1.0,-9.0,9.0,1.1328125,0.23974609375,-0.2744140625,-1.524390243902439,-0.426829268292683,0.7317073170731708
10_41_09_120,-3.0,-3.0,-2.0,-8.0,-2.0,-5.0,0.0,-7.0,1.43115234375,0.4208984375,1.0087890625,-5.487804878048781,-0.9146341463414634,-0.426829268292683
10_41_09_120,4.0,0.0,-3.0,5.0,0.0,-2.0,-10.0,14.0,0.55126953125,0.0361328125,0.1162109375,1.5853658536585367,-1.1585365853658538,-2.804878048780488
10_41_09_185,2.0,3.0,-4.0,4.0,-2.0,-9.0,-17.0,6.0,0.40869140625,-0.02880859375,-0.38037109375,-6.585365853658537,-0.853658536585366,-1.0365853658536586
10_41_09_185,7.0,1.0,4.0,4.0,3.0,11.0,10.0,1.0,1.005859375,0.19287109375,-0.4501953125,-11.341463414634147,-0.30487804878048785,0.7926829268292683
10_41_09_185,6.0,7.0,-4.0,9.0,-6.0,5.0,-25.0,8.0,1.4658203125,0.44189453125,0.97705078125,-15.365853658536587,1.0365853658536586,1.1585365853658538
10_41_09_185,8.0,-1.0,1.0,-2.0,8.0,14.0,12.0,2.0,0.6123046875,0.07177734375,0.20556640625,-6.036585365853659,-0.5487804878048781,-2.6219512195121952
10_41_09_185,-39.0,-8.0,-2.0,-2.0,-1.0,-12.0,-20.0,13.0,0.62109375,0.03955078125,-0.783203125,-3.231707317073171,-1.8902439024390245,-2.7439024390243905
10_41_09_185,-5.0,0.0,2.0,-16.0,2.0,1.0,14.0,0.0,1.48388671875,0.42578125,0.5166015625,-9.390243902439025,-1.5853658536585367,-0.12195121951219513
10_41_09_185,3.0,2.0,-6.0,8.0,0.0,-8.0,-5.0,9.0,1.017578125,0.259765625,0.87158203125,-5.487804878048781,-1.829268292682927,-1.0975609756097562
10_41_09_185,-2.0,4.0,0.0,3.0,3.0,1.0,-1.0,-4.0,0.39306640625,-0.0576171875,-0.5712890625,2.378048780487805,-1.829268292682927,-1.9512195121951221
10_41_09_185,2.0,2.0,-6.0,12.0,-2.0,-8.0,-11.0,14.0,1.1328125,0.23974609375,-0.2744140625,-1.524390243902439,-0.426829268292683,0.7317073170731708
10_41_09_225,-71.0,-9.0,3.0,-13.0,-4.0,6.0,16.0,-29.0,0.97412109375,0.26318359375,0.79248046875,-8.048780487804878,-1.1585365853658538,1.2195121951219514
10_41_09_225,29.0,-2.0,-5.0,1.0,2.0,-2.0,-10.0,17.0,0.4091796875,-0.04541015625,-0.68896484375,0.6097560975609757,-2.25609756097561,0.48780487804878053
10_41_09_225,-4.0,-6.0,6.0,-7.0,-4.0,6.0,6.0,-16.0,1.30859375,0.33349609375,0.06396484375,-12.195121951219512,0.48780487804878053,1.9512195121951221
10_41_09_225,1.0,1.0,-7.0,-5.0,2.0,-4.0,-12.0,10.0,1.25732421875,0.36279296875,1.0244140625,-15.731707317073171,0.426829268292683,-0.7317073170731708
10_41_09_225,-10.0,-5.0,2.0,-14.0,-3.0,3.0,12.0,-22.0,0.40869140625,-0.02880859375,-0.38037109375,-6.585365853658537,-0.853658536585366,-1.0365853658536586
10_41_09_225,7.0,9.0,-3.0,0.0,2.0,-7.0,-4.0,3.0,1.005859375,0.19287109375,-0.4501953125,-11.341463414634147,-0.30487804878048785,0.7926829268292683
10_41_09_225,-54.0,-3.0,3.0,-13.0,-6.0,3.0,8.0,-7.0,1.4658203125,0.44189453125,0.97705078125,-15.365853658536587,1.0365853658536586,1.1585365853658538
10_41_09_225,3.0,3.0,-2.0,10.0,0.0,-3.0,-10.0,15.0,0.6123046875,0.07177734375,0.20556640625,-6.036585365853659,-0.5487804878048781,-2.6219512195121952
10_41_09_225,-3.0,-3.0,2.0,-9.0,0.0,3.0,11.0,-17.0,0.62109375,0.03955078125,-0.783203125,-3.231707317073171,-1.8902439024390245,-2.7439024390243905
10_41_09_225,1.0,1.0,-1.0,-3.0,2.0,-3.0,-4.0,6.0,1.48388671875,0.42578125,0.5166015625,-9.390243902439025,-1.5853658536585367,-0.12195121951219513
10_41_09_269,-4.0,11.0,2.0,-4.0,-5.0,0.0,1.0,-9.0,1.28076171875,0.19091796875,0.158203125,-7.865853658536586,-5.365853658536586,7.743902439024391
10_41_09_269,-4.0,1.0,0.0,6.0,-2.0,-4.0,-6.0,4.0,0.537109375,-0.0107421875,-0.76513671875,-0.426829268292683,-0.9146341463414634,3.658536585365854
10_41_09_269,0.0,3.0,-4.0,1.0,-2.0,0.0,-1.0,-4.0,1.447265625,0.41015625,0.4580078125,-11.76829268292683,0.853658536585366,4.329268292682928
10_41_09_269,1.0,11.0,0.0,-1.0,0.0,-2.0,2.0,-2.0,0.97412109375,0.26318359375,0.79248046875,-8.048780487804878,-1.1585365853658538,1.2195121951219514
10_41_09_269,-8.0,-5.0,-1.0,-7.0,-7.0,0.0,1.0,-6.0,0.4091796875,-0.04541015625,-0.68896484375,0.6097560975609757,-2.25609756097561,0.48780487804878053
10_41_09_269,-20.0,9.0,3.0,4.0,8.0,2.0,3.0,-14.0,1.30859375,0.33349609375,0.06396484375,-12.195121951219512,0.48780487804878053,1.9512195121951221
10_41_09_269,-5.0,-8.0,1.0,-8.0,-2.0,7.0,9.0,-21.0,1.25732421875,0.36279296875,1.0244140625,-15.731707317073171,0.426829268292683,-0.7317073170731708
10_41_09_269,6.0,-1.0,-5.0,7.0,-1.0,-9.0,-10.0,12.0,0.40869140625,-0.02880859375,-0.38037109375,-6.585365853658537,-0.853658536585366,-1.0365853658536586
10_41_09_269,-1.0,-4.0,0.0,-2.0,-4.0,5.0,10.0,-10.0,1.005859375,0.19287109375,-0.4501953125,-11.341463414634147,-0.30487804878048785,0.7926829268292683
10_41_09_269,4.0,-1.0,-2.0,-2.0,3.0,-2.0,-2.0,8.0,1.4658203125,0.44189453125,0.97705078125,-15.365853658536587,1.0365853658536586,1.1585365853658538
10_41_09_338,2.0,0.0,-4.0,0.0,-3.0,22.0,-11.0,8.0,1.28076171875,0.19091796875,0.158203125,-7.865853658536586,-5.365853658536586,7.743902439024391
10_41_09_338,-2.0,-2.0,-2.0,-3.0,-4.0,-5.0,-7.0,-4.0,0.537109375,-0.0107421875,-0.76513671875,-0.426829268292683,-0.9146341463414634,3.658536585365854
10_41_09_338,3.0,1.0,-2.0,-3.0,3.0,2.0,28.0,-7.0,1.447265625,0.41015625,0.4580078125,-11.76829268292683,0.853658536585366,4.329268292682928
10_41_09_338,-4.0,5.0,0.0,6.0,4.0,1.0,-18.0,-31.0,0.97412109375,0.26318359375,0.79248046875,-8.048780487804878,-1.1585365853658538,1.2195121951219514
10_41_09_338,-4.0,11.0,2.0,-4.0,-5.0,0.0,1.0,-9.0,0.4091796875,-0.04541015625,-0.68896484375,0.6097560975609757,-2.25609756097561,0.48780487804878053
10_41_09_338,-4.0,1.0,0.0,6.0,-2.0,-4.0,-6.0,4.0,1.30859375,0.33349609375,0.06396484375,-12.195121951219512,0.48780487804878053,1.9512195121951221
10_41_09_338,0.0,3.0,-4.0,1.0,-2.0,0.0,-1.0,-4.0,1.25732421875,0.36279296875,1.0244140625,-15.731707317073171,0.426829268292683,-0.7317073170731708
10_41_09_338,1.0,11.0,0.0,-1.0,0.0,-2.0,2.0,-2.0,0.40869140625,-0.02880859375,-0.38037109375,-6.585365853658537,-0.853658536585366,-1.0365853658536586
10_41_09_338,-8.0,-5.0,-1.0,-7.0,-7.0,0.0,1.0,-6.0,1.005859375,0.19287109375,-0.4501953125,-11.341463414634147,-0.30487804878048785,0.7926829268292683
10_41_09_338,-20.0,9.0,3.0,4.0,8.0,2.0,3.0,-14.0,1.4658203125,0.44189453125,0.97705078125,-15.365853658536587,1.0365853658536586,1.1585365853658538
10_41_09_374,1.0,-2.0,1.0,0.0,-3.0,-3.0,-1.0,0.0,0.9814453125,0.19970703125,0.1669921875,-18.719512195121954,3.048780487804878,3.9024390243902443
10_41_09_374,-3.0,35.0,-10.0,-1.0,0.0,-5.0,0.0,-5.0,0.98095703125,0.22412109375,0.1484375,-14.939024390243905,3.5975609756097566,4.634146341463415
10_41_09_374,3.0,-5.0,1.0,-2.0,-1.0,0.0,1.0,-2.0,0.9755859375,0.212890625,0.1259765625,-5.914634146341464,1.2195121951219514,4.51219512195122
10_41_09_374,-13.0,11.0,-2.0,-8.0,-5.0,0.0,2.0,8.0,0.96337890625,0.18505859375,0.10107421875,-3.1707317073170733,-3.8414634146341466,5.3048780487804885
10_41_09_374,27.0,-4.0,-7.0,5.0,1.0,-3.0,-6.0,1.0,1.28076171875,0.19091796875,0.158203125,-7.865853658536586,-5.365853658536586,7.743902439024391
10_41_09_374,7.0,-2.0,-1.0,3.0,2.0,-3.0,1.0,-2.0,0.537109375,-0.0107421875,-0.76513671875,-0.426829268292683,-0.9146341463414634,3.658536585365854
10_41_09_374,1.0,-5.0,-4.0,-5.0,-6.0,-6.0,1.0,-1.0,1.447265625,0.41015625,0.4580078125,-11.76829268292683,0.853658536585366,4.329268292682928
10_41_09_374,-6.0,-4.0,-3.0,-1.0,-1.0,2.0,-2.0,-6.0,0.97412109375,0.26318359375,0.79248046875,-8.048780487804878,-1.1585365853658538,1.2195121951219514
10_41_09_374,0.0,1.0,-6.0,3.0,-1.0,-2.0,-3.0,6.0,0.4091796875,-0.04541015625,-0.68896484375,0.6097560975609757,-2.25609756097561,0.48780487804878053
10_41_09_374,11.0,-1.0,-2.0,1.0,-2.0,-2.0,3.0,-3.0,1.30859375,0.33349609375,0.06396484375,-12.195121951219512,0.48780487804878053,1.9512195121951221
10_41_09_424,5.0,0.0,-2.0,3.0,-4.0,1.0,-2.0,-3.0,0.9248046875,0.20263671875,0.1708984375,-13.170731707317074,-2.1951219512195124,4.207317073170732
10_41_09_424,-2.0,2.0,0.0,-1.0,3.0,2.0,1.0,-3.0,0.9560546875,0.201171875,0.17626953125,-17.865853658536587,0.9146341463414634,5.060975609756098
10_41_09_424,-1.0,2.0,-3.0,-4.0,2.0,10.0,4.0,-4.0,0.9814453125,0.19970703125,0.1669921875,-18.719512195121954,3.048780487804878,3.9024390243902443
10_41_09_424,-8.0,-3.0,-2.0,-5.0,-4.0,-18.0,-11.0,-11.0,0.98095703125,0.22412109375,0.1484375,-14.939024390243905,3.5975609756097566,4.634146341463415
10_41_09_424,-2.0,-20.0,-6.0,-8.0,-14.0,-9.0,-12.0,22.0,0.9755859375,0.212890625,0.1259765625,-5.914634146341464,1.2195121951219514,4.51219512195122
10_41_09_424,-3.0,16.0,1.0,5.0,6.0,12.0,15.0,-10.0,0.96337890625,0.18505859375,0.10107421875,-3.1707317073170733,-3.8414634146341466,5.3048780487804885
10_41_09_424,1.0,-4.0,-5.0,-1.0,-1.0,0.0,-3.0,-1.0,1.28076171875,0.19091796875,0.158203125,-7.865853658536586,-5.365853658536586,7.743902439024391
10_41_09_424,-2.0,-9.0,0.0,-1.0,0.0,3.0,0.0,-1.0,0.537109375,-0.0107421875,-0.76513671875,-0.426829268292683,-0.9146341463414634,3.658536585365854
10_41_09_424,1.0,-2.0,1.0,0.0,-3.0,-3.0,-1.0,0.0,1.447265625,0.41015625,0.4580078125,-11.76829268292683,0.853658536585366,4.329268292682928
10_41_09_424,-3.0,35.0,-10.0,-1.0,0.0,-5.0,0.0,-5.0,0.97412109375,0.26318359375,0.79248046875,-8.048780487804878,-1.1585365853658538,1.2195121951219514
10_41_09_491,-1.0,-3.0,-5.0,5.0,3.0,2.0,-9.0,-1.0,0.91064453125,0.14306640625,0.17529296875,-3.353658536585366,-5.426829268292684,5.2439024390243905
10_41_09_491,12.0,6.0,3.0,-1.0,-2.0,-2.0,2.0,10.0,0.9228515625,0.1611328125,0.15185546875,-8.658536585365855,-5.0,2.378048780487805
10_41_09_491,28.0,-8.0,8.0,12.0,3.0,-2.0,-1.0,-12.0,0.9228515625,0.19189453125,0.173828125,-7.8048780487804885,-4.817073170731708,1.6463414634146343
10_41_09_491,-46.0,3.0,-12.0,-6.0,-3.0,1.0,2.0,-10.0,0.9248046875,0.20263671875,0.1708984375,-13.170731707317074,-2.1951219512195124,4.207317073170732
10_41_09_491,-23.0,-8.0,1.0,-6.0,6.0,-4.0,-6.0,3.0,0.9560546875,0.201171875,0.17626953125,-17.865853658536587,0.9146341463414634,5.060975609756098
10_41_09_491,6.0,1.0,-3.0,0.0,-7.0,-1.0,0.0,-2.0,0.9814453125,0.19970703125,0.1669921875,-18.719512195121954,3.048780487804878,3.9024390243902443
10_41_09_491,1.0,2.0,-2.0,-1.0,1.0,-3.0,-2.0,1.0,0.98095703125,0.22412109375,0.1484375,-14.939024390243905,3.5975609756097566,4.634146341463415
10_41_09_491,-2.0,-3.0,0.0,-3.0,-2.0,1.0,3.0,-6.0,0.9755859375,0.212890625,0.1259765625,-5.914634146341464,1.2195121951219514,4.51219512195122
10_41_09_491,5.0,0.0,-2.0,3.0,-4.0,1.0,-2.0,-3.0,0.96337890625,0.18505859375,0.10107421875,-3.1707317073170733,-3.8414634146341466,5.3048780487804885
10_41_09_491,-2.0,2.0,0.0,-1.0,3.0,2.0,1.0,-3.0,1.28076171875,0.19091796875,0.158203125,-7.865853658536586,-5.365853658536586,7.743902439024391
10_41_09_524,3.0,3.0,0.0,11.0,9.0,37.0,28.0,1.0,0.94189453125,0.14208984375,0.17919921875,4.390243902439025,-9.51219512195122,3.7195121951219514
10_41_09_524,2.0,-1.0,3.0,-7.0,-9.0,-118.0,-79.0,0.0,0.91064453125,0.14306640625,0.17529296875,-3.353658536585366,-5.426829268292684,5.2439024390243905
10_41_09_524,-1.0,-3.0,-1.0,-24.0,-12.0,36.0,-47.0,-22.0,0.9228515625,0.1611328125,0.15185546875,-8.658536585365855,-5.0,2.378048780487805
10_41_09_524,3.0,5.0,1.0,10.0,4.0,31.0,90.0,1.0,0.9228515625,0.19189453125,0.173828125,-7.8048780487804885,-4.817073170731708,1.6463414634146343
10_41_09_524,2.0,-5.0,0.0,1.0,2.0,12.0,-16.0,3.0,0.9248046875,0.20263671875,0.1708984375,-13.170731707317074,-2.1951219512195124,4.207317073170732
10_41_09_524,-2.0,-1.0,-3.0,-4.0,1.0,-10.0,-25.0,0.0,0.9560546875,0.201171875,0.17626953125,-17.865853658536587,0.9146341463414634,5.060975609756098
10_41_09_524,-4.0,-7.0,0.0,1.0,-12.0,-29.0,13.0,-2.0,0.9814453125,0.19970703125,0.1669921875,-18.719512195121954,3.048780487804878,3.9024390243902443
10_41_09_524,-1.0,-3.0,-5.0,5.0,3.0,2.0,-9.0,-1.0,0.98095703125,0.22412109375,0.1484375,-14.939024390243905,3.5975609756097566,4.634146341463415
10_41_09_524,12.0,6.0,3.0,-1.0,-2.0,-2.0,2.0,10.0,0.9755859375,0.212890625,0.1259765625,-5.914634146341464,1.2195121951219514,4.51219512195122
10_41_09_592,6.0,9.0,-1.0,0.0,1.0,17.0,41.0,8.0,0.943359375,0.20263671875,0.1240234375,0.6707317073170732,-1.8902439024390245,5.7926829268292686
10_41_09_592,-3.0,-2.0,0.0,-5.0,-3.0,-29.0,-8.0,-4.0,0.96337890625,0.185546875,0.12744140625,14.329268292682928,-4.695121951219512,2.7439024390243905
10_41_09_592,-1.0,-3.0,2.0,-3.0,-5.0,-12.0,1.0,0.0,0.96044921875,0.1748046875,0.1484375,10.30487804878049,-9.085365853658537,3.048780487804878
10_41_09_592,-2.0,-1.0,0.0,-6.0,-2.0,-7.0,-65.0,1.0,0.94189453125,0.14208984375,0.17919921875,4.390243902439025,-9.51219512195122,3.7195121951219514
10_41_09_592,13.0,-3.0,-7.0,4.0,1.0,14.0,57.0,8.0,0.91064453125,0.14306640625,0.17529296875,-3.353658536585366,-5.426829268292684,5.2439024390243905
10_41_09_592,2.0,0.0,2.0,4.0,-1.0,-1.0,-2.0,-5.0,0.9228515625,0.1611328125,0.15185546875,-8.658536585365855,-5.0,2.378048780487805
10_41_09_592,7.0,0.0,-1.0,-1.0,-3.0,2.0,13.0,17.0,0.9228515625,0.19189453125,0.173828125,-7.8048780487804885,-4.817073170731708,1.6463414634146343
10_41_09_592,16.0,-1.0,3.0,0.0,-3.0,6.0,0.0,-3.0,0.9248046875,0.20263671875,0.1708984375,-13.170731707317074,-2.1951219512195124,4.207317073170732
10_41_09_592,8.0,-11.0,-5.0,-1.0,-1.0,6.0,11.0,-1.0,0.9560546875,0.201171875,0.17626953125,-17.865853658536587,0.9146341463414634,5.060975609756098
10_41_09_592,9.0,8.0,0.0,-3.0,2.0,11.0,7.0,-2.0,0.9814453125,0.19970703125,0.1669921875,-18.719512195121954,3.048780487804878,3.9024390243902443
10_41_09_630,-3.0,1.0,-5.0,0.0,0.0,4.0,16.0,3.0,0.94921875,0.12060546875,0.103515625,-6.341463414634147,-11.76829268292683,1.5853658536585367
10_41_09_630,-4.0,-1.0,0.0,2.0,-1.0,-30.0,-6.0,-4.0,0.943359375,0.20263671875,0.1240234375,0.6707317073170732,-1.8902439024390245,5.7926829268292686
10_41_09_630,-5.0,-1.0,2.0,1.0,-2.0,31.0,-72.0,-7.0,0.96337890625,0.185546875,0.12744140625,14.329268292682928,-4.695121951219512,2.7439024390243905
10_41_09_630,-6.0,-5.0,2.0,-1.0,1.0,7.0,42.0,-18.0,0.96044921875,0.1748046875,0.1484375,10.30487804878049,-9.085365853658537,3.048780487804878
10_41_09_630,-1.0,-15.0,-8.0,-20.0,-5.0,-28.0,-80.0,-17.0,0.94189453125,0.14208984375,0.17919921875,4.390243902439025,-9.51219512195122,3.7195121951219514
10_41_09_630,-28.0,4.0,1.0,-1.0,1.0,9.0,50.0,-3.0,0.91064453125,0.14306640625,0.17529296875,-3.353658536585366,-5.426829268292684,5.2439024390243905
10_41_09_630,-67.0,-15.0,-5.0,-10.0,-5.0,-17.0,2.0,-16.0,0.9228515625,0.1611328125,0.15185546875,-8.658536585365855,-5.0,2.378048780487805
10_41_09_630,10.0,-19.0,-4.0,-7.0,-1.0,-8.0,-42.0,-7.0,0.9228515625,0.19189453125,0.173828125,-7.8048780487804885,-4.817073170731708,1.6463414634146343
10_41_09_692,-1.0,-2.0,-2.0,-1.0,1.0,-3.0,-6.0,0.0,0.9833984375,0.169921875,0.08935546875,6.646341463414635,-8.719512195121952,1.707317073170732
10_41_09_692,-5.0,0.0,-1.0,-4.0,1.0,-4.0,-8.0,-1.0,0.98876953125,0.16162109375,0.10986328125,9.451219512195122,-11.890243902439025,0.7317073170731708
10_41_09_692,-6.0,-4.0,2.0,-8.0,-14.0,-3.0,-11.0,-15.0,0.974609375,0.1767578125,0.14404296875,8.170731707317074,-12.80487804878049,1.4634146341463417
10_41_09_692,-6.0,-10.0,-4.0,1.0,0.0,-4.0,-4.0,1.0,0.95068359375,0.17529296875,0.13720703125,11.52439024390244,-10.670731707317074,3.780487804878049
10_41_09_692,0.0,1.0,0.0,0.0,-1.0,-7.0,11.0,1.0,0.958984375,0.13720703125,0.1142578125,6.7682926829268295,-10.182926829268293,3.231707317073171
10_41_09_692,-2.0,5.0,-2.0,0.0,0.0,6.0,1.0,-1.0,0.94921875,0.12060546875,0.103515625,-6.341463414634147,-11.76829268292683,1.5853658536585367
10_41_09_692,-2.0,-1.0,-1.0,0.0,0.0,3.0,-1.0,-4.0,0.943359375,0.20263671875,0.1240234375,0.6707317073170732,-1.8902439024390245,5.7926829268292686
10_41_09_692,-1.0,-1.0,-3.0,1.0,1.0,5.0,3.0,4.0,0.96337890625,0.185546875,0.12744140625,14.329268292682928,-4.695121951219512,2.7439024390243905
10_41_09_692,-3.0,-5.0,-4.0,-3.0,-1.0,-8.0,-3.0,-4.0,0.96044921875,0.1748046875,0.1484375,10.30487804878049,-9.085365853658537,3.048780487804878
10_41_09_692,-3.0,-3.0,-5.0,-4.0,-3.0,1.0,-13.0,0.0,0.94189453125,0.14208984375,0.17919921875,4.390243902439025,-9.51219512195122,3.7195121951219514
10_41_09_736,-4.0,-6.0,-2.0,2.0,-1.0,5.0,8.0,-4.0,0.97021484375,0.1767578125,0.099609375,0.06097560975609757,-6.219512195121951,0.5487804878048781
10_41_09_736,-3.0,-6.0,-3.0,-4.0,0.0,-4.0,5.0,6.0,0.9873046875,0.17431640625,0.07470703125,5.914634146341464,-6.951219512195123,0.6097560975609757
10_41_09_736,-31.0,4.0,2.0,5.0,-3.0,0.0,6.0,-3.0,0.9833984375,0.169921875,0.08935546875,6.646341463414635,-8.719512195121952,1.707317073170732
10_41_09_736,-1.0,-5.0,0.0,-4.0,-5.0,-6.0,-14.0,0.0,0.98876953125,0.16162109375,0.10986328125,9.451219512195122,-11.890243902439025,0.7317073170731708
10_41_09_736,3.0,2.0,1.0,4.0,-1.0,-3.0,4.0,2.0,0.974609375,0.1767578125,0.14404296875,8.170731707317074,-12.80487804878049,1.4634146341463417
10_41_09_736,-53.0,-6.0,-1.0,-7.0,-4.0,1.0,7.0,-1.0,0.95068359375,0.17529296875,0.13720703125,11.52439024390244,-10.670731707317074,3.780487804878049
10_41_09_736,25.0,3.0,-6.0,2.0,-1.0,-1.0,1.0,-2.0,0.958984375,0.13720703125,0.1142578125,6.7682926829268295,-10.182926829268293,3.231707317073171
10_41_09_736,0.0,1.0,1.0,5.0,3.0,4.0,-3.0,1.0,0.94921875,0.12060546875,0.103515625,-6.341463414634147,-11.76829268292683,1.5853658536585367
10_41_09_736,-1.0,-2.0,-2.0,-1.0,1.0,-3.0,-6.0,0.0,0.943359375,0.20263671875,0.1240234375,0.6707317073170732,-1.8902439024390245,5.7926829268292686
10_41_09_736,-5.0,0.0,-1.0,-4.0,1.0,-4.0,-8.0,-1.0,0.96337890625,0.185546875,0.12744140625,14.329268292682928,-4.695121951219512,2.7439024390243905
10_41_09_783,29.0,-4.0,-6.0,5.0,4.0,-1.0,0.0,-1.0,0.98583984375,0.15087890625,0.12158203125,3.1707317073170733,-12.256097560975611,-3.4756097560975614
10_41_09_783,1.0,1.0,-3.0,1.0,-1.0,0.0,-1.0,-5.0,0.9716796875,0.1513671875,0.13037109375,2.5,-11.219512195121952,-1.524390243902439
10_41_09_783,0.0,2.0,-1.0,1.0,2.0,-7.0,6.0,1.0,0.97021484375,0.1767578125,0.099609375,0.06097560975609757,-6.219512195121951,0.5487804878048781
10_41_09_783,-1.0,-3.0,-1.0,-3.0,1.0,8.0,8.0,6.0,0.9873046875,0.17431640625,0.07470703125,5.914634146341464,-6.951219512195123,0.6097560975609757
10_41_09_783,-1.0,-2.0,-2.0,-5.0,-9.0,-30.0,-38.0,-5.0,0.9833984375,0.169921875,0.08935546875,6.646341463414635,-8.719512195121952,1.707317073170732
10_41_09_783,-10.0,-17.0,-7.0,-8.0,-3.0,29.0,25.0,-10.0,0.98876953125,0.16162109375,0.10986328125,9.451219512195122,-11.890243902439025,0.7317073170731708
10_41_09_783,4.0,5.0,-1.0,0.0,0.0,-16.0,-12.0,-8.0,0.974609375,0.1767578125,0.14404296875,8.170731707317074,-12.80487804878049,1.4634146341463417
10_41_09_783,0.0,-1.0,2.0,5.0,-6.0,-23.0,7.0,3.0,0.95068359375,0.17529296875,0.13720703125,11.52439024390244,-10.670731707317074,3.780487804878049
10_41_09_783,-11.0,-4.0,0.0,-14.0,-11.0,18.0,-43.0,-12.0,0.958984375,0.13720703125,0.1142578125,6.7682926829268295,-10.182926829268293,3.231707317073171
10_41_09_836,9.0,2.0,-4.0,-4.0,-3.0,-10.0,9.0,7.0,0.95263671875,0.15283203125,0.10009765625,-2.378048780487805,-6.341463414634147,-3.536585365853659
10_41_09_836,-2.0,-8.0,0.0,-3.0,0.0,6.0,4.0,3.0,0.97705078125,0.17041015625,0.11376953125,3.1707317073170733,-6.585365853658537,-2.987804878048781
10_41_09_836,1.0,-3.0,-5.0,-4.0,-1.0,0.0,-3.0,3.0,0.98779296875,0.15283203125,0.11669921875,9.51219512195122,-9.02439024390244,-3.780487804878049
10_41_09_836,2.0,9.0,6.0,3.0,1.0,-2.0,-4.0,-6.0,0.98583984375,0.15087890625,0.12158203125,3.1707317073170733,-12.256097560975611,-3.4756097560975614
10_41_09_836,-4.0,-11.0,-4.0,-5.0,-2.0,-3.0,1.0,3.0,0.9716796875,0.1513671875,0.13037109375,2.5,-11.219512195121952,-1.524390243902439
10_41_09_836,16.0,-13.0,-5.0,2.0,-3.0,-7.0,-2.0,0.0,0.97021484375,0.1767578125,0.099609375,0.06097560975609757,-6.219512195121951,0.5487804878048781
10_41_09_836,-6.0,0.0,1.0,-3.0,-3.0,0.0,-1.0,-1.0,0.9873046875,0.17431640625,0.07470703125,5.914634146341464,-6.951219512195123,0.6097560975609757
10_41_09_836,6.0,1.0,2.0,1.0,1.0,-1.0,-6.0,7.0,0.9833984375,0.169921875,0.08935546875,6.646341463414635,-8.719512195121952,1.707317073170732
10_41_09_836,-18.0,-15.0,2.0,2.0,1.0,-3.0,0.0,3.0,0.98876953125,0.16162109375,0.10986328125,9.451219512195122,-11.890243902439025,0.7317073170731708
10_41_09_836,29.0,-4.0,-6.0,5.0,4.0,-1.0,0.0,-1.0,0.974609375,0.1767578125,0.14404296875,8.170731707317074,-12.80487804878049,1.4634146341463417
10_41_09_896,-6.0,-2.0,1.0,-12.0,-11.0,-29.0,-69.0,1.0,1.00830078125,0.150390625,0.0751953125,0.9146341463414634,-6.829268292682928,-8.170731707317074
10_41_09_896,-8.0,-10.0,-9.0,-8.0,-5.0,2.0,3.0,-12.0,0.97998046875,0.13330078125,0.08740234375,-2.25609756097561,-8.231707317073171,-6.097560975609756
10_41_09_896,10.0,-4.0,-3.0,2.0,4.0,-12.0,22.0,-1.0,0.95751953125,0.138671875,0.10009765625,-1.6463414634146343,-8.414634146341465,-5.365853658536586
10_41_09_896,1.0,13.0,-2.0,0.0,1.0,-2.0,-4.0,-1.0,0.95263671875,0.15283203125,0.10009765625,-2.378048780487805,-6.341463414634147,-3.536585365853659
10_41_09_896,-3.0,-15.0,-4.0,1.0,-1.0,1.0,1.0,3.0,0.97705078125,0.17041015625,0.11376953125,3.1707317073170733,-6.585365853658537,-2.987804878048781
10_41_09_896,7.0,14.0,0.0,-1.0,-1.0,-1.0,-3.0,3.0,0.98779296875,0.15283203125,0.11669921875,9.51219512195122,-9.02439024390244,-3.780487804878049
10_41_09_896,3.0,7.0,2.0,3.0,1.0,-9.0,-3.0,3.0,0.98583984375,0.15087890625,0.12158203125,3.1707317073170733,-12.256097560975611,-3.4756097560975614
10_41_09_896,-11.0,-14.0,-1.0,-3.0,-1.0,-28.0,-13.0,0.0,0.9716796875,0.1513671875,0.13037109375,2.5,-11.219512195121952,-1.524390243902439
10_41_09_896,12.0,-43.0,-13.0,-6.0,1.0,19.0,14.0,-1.0,0.97021484375,0.1767578125,0.099609375,0.06097560975609757,-6.219512195121951,0.5487804878048781
10_41_09_896,-11.0,10.0,10.0,3.0,-6.0,-42.0,1.0,-4.0,0.9873046875,0.17431640625,0.07470703125,5.914634146341464,-6.951219512195123,0.6097560975609757
10_41_09_940,15.0,29.0,4.0,3.0,2.0,4.0,4.0,7.0,0.98193359375,0.17919921875,0.13427734375,-23.29268292682927,1.524390243902439,-15.853658536585368
10_41_09_940,-128.0,-90.0,-9.0,-14.0,0.0,18.0,15.0,-11.0,1.01220703125,0.193359375,0.072265625,-15.30487804878049,0.9756097560975611,-14.146341463414636
10_41_09_940,0.0,22.0,5.0,-5.0,-9.0,-72.0,-9.0,0.0,1.0126953125,0.18359375,0.06787109375,-6.158536585365854,-2.8658536585365857,-10.548780487804878
10_41_09_940,30.0,7.0,3.0,-5.0,-8.0,28.0,-68.0,-3.0,1.00830078125,0.150390625,0.0751953125,0.9146341463414634,-6.829268292682928,-8.170731707317074
10_41_09_940,3.0,10.0,1.0,9.0,10.0,22.0,56.0,8.0,0.97998046875,0.13330078125,0.08740234375,-2.25609756097561,-8.231707317073171,-6.097560975609756
10_41_09_940,-6.0,-22.0,-13.0,0.0,-2.0,14.0,-1.0,-3.0,0.95751953125,0.138671875,0.10009765625,-1.6463414634146343,-8.414634146341465,-5.365853658536586
10_41_09_940,-1.0,4.0,1.0,6.0,2.0,8.0,6.0,-2.0,0.95263671875,0.15283203125,0.10009765625,-2.378048780487805,-6.341463414634147,-3.536585365853659
10_41_09_940,-3.0,14.0,10.0,1.0,4.0,16.0,16.0,-5.0,0.97705078125,0.17041015625,0.11376953125,3.1707317073170733,-6.585365853658537,-2.987804878048781
10_41_09_940,-8.0,-4.0,-4.0,-4.0,5.0,37.0,15.0,2.0,0.98779296875,0.15283203125,0.11669921875,9.51219512195122,-9.02439024390244,-3.780487804878049
10_41_09_940,-3.0,-12.0,-1.0,-5.0,-6.0,-91.0,-22.0,-7.0,0.98583984375,0.15087890625,0.12158203125,3.1707317073170733,-12.256097560975611,-3.4756097560975614
10_41_09_995,1.0,-12.0,-11.0,0.0,2.0,40.0,11.0,1.0,0.98193359375,0.17919921875,0.13427734375,-23.29268292682927,1.524390243902439,-15.853658536585368
10_41_09_995,-44.0,1.0,3.0,0.0,2.0,-10.0,2.0,-2.0,1.01220703125,0.193359375,0.072265625,-15.30487804878049,0.9756097560975611,-14.146341463414636
10_41_09_995,28.0,2.0,-1.0,3.0,3.0,10.0,5.0,3.0,1.0126953125,0.18359375,0.06787109375,-6.158536585365854,-2.8658536585365857,-10.548780487804878
10_41_09_995,15.0,29.0,4.0,3.0,2.0,4.0,4.0,7.0,1.00830078125,0.150390625,0.0751953125,0.9146341463414634,-6.829268292682928,-8.170731707317074
10_41_09_995,-128.0,-90.0,-9.0,-14.0,0.0,18.0,15.0,-11.0,0.97998046875,0.13330078125,0.08740234375,-2.25609756097561,-8.231707317073171,-6.097560975609756
10_41_09_995,0.0,22.0,5.0,-5.0,-9.0,-72.0,-9.0,0.0,0.95751953125,0.138671875,0.10009765625,-1.6463414634146343,-8.414634146341465,-5.365853658536586
10_41_09_995,30.0,7.0,3.0,-5.0,-8.0,28.0,-68.0,-3.0,0.95263671875,0.15283203125,0.10009765625,-2.378048780487805,-6.341463414634147,-3.536585365853659
10_41_09_995,3.0,10.0,1.0,9.0,10.0,22.0,56.0,8.0,0.97705078125,0.17041015625,0.11376953125,3.1707317073170733,-6.585365853658537,-2.987804878048781
10_41_09_995,-6.0,-22.0,-13.0,0.0,-2.0,14.0,-1.0,-3.0,0.98779296875,0.15283203125,0.11669921875,9.51219512195122,-9.02439024390244,-3.780487804878049
10_41_10_045,-1.0,35.0,11.0,4.0,1.0,-5.0,-8.0,8.0,1.0078125,0.18603515625,0.130859375,-26.402439024390247,9.085365853658537,-21.951219512195124
10_41_10_045,8.0,6.0,0.0,-6.0,-1.0,-1.0,-1.0,-2.0,1.01025390625,0.20263671875,0.12109375,-24.451219512195124,3.7195121951219514,-21.951219512195124
10_41_10_045,-72.0,-52.0,-22.0,-11.0,-5.0,0.0,-4.0,-9.0,1.00634765625,0.19775390625,0.14208984375,-22.500000000000004,-0.24390243902439027,-20.60975609756098
10_41_10_045,19.0,33.0,13.0,11.0,5.0,-3.0,-4.0,7.0,1.00537109375,0.15966796875,0.1298828125,-23.10975609756098,-1.9512195121951221,-18.658536585365855
10_41_10_045,-24.0,-43.0,4.0,-16.0,-6.0,-5.0,-2.0,-10.0,0.98779296875,0.16455078125,0.1455078125,-23.84146341463415,-1.829268292682927,-17.378048780487806
10_41_10_045,-1.0,-21.0,-21.0,-2.0,-6.0,-5.0,-2.0,-4.0,0.98193359375,0.17919921875,0.13427734375,-23.29268292682927,1.524390243902439,-15.853658536585368
10_41_10_045,6.0,23.0,9.0,2.0,1.0,-1.0,-2.0,0.0,1.01220703125,0.193359375,0.072265625,-15.30487804878049,0.9756097560975611,-14.146341463414636
10_41_10_045,-7.0,-5.0,4.0,-4.0,1.0,-3.0,-1.0,0.0,1.0126953125,0.18359375,0.06787109375,-6.158536585365854,-2.8658536585365857,-10.548780487804878
10_41_10_045,-2.0,-8.0,6.0,-1.0,-2.0,-6.0,-2.0,-1.0,1.00830078125,0.150390625,0.0751953125,0.9146341463414634,-6.829268292682928,-8.170731707317074
10_41_10_045,-6.0,-14.0,1.0,-7.0,0.0,-2.0,2.0,-6.0,0.97998046875,0.13330078125,0.08740234375,-2.25609756097561,-8.231707317073171,-6.097560975609756
10_41_10_096,19.0,-46.0,4.0,4.0,-6.0,-4.0,-4.0,-2.0,0.998046875,0.14208984375,0.1201171875,-27.80487804878049,18.963414634146343,-21.28048780487805
10_41_10_096,9.0,31.0,-26.0,-7.0,1.0,-1.0,-3.0,1.0,1.015625,0.16357421875,0.12060546875,-25.54878048780488,13.902439024390246,-20.914634146341466
10_41_10_096,-17.0,-25.0,-6.0,-3.0,0.0,-4.0,1.0,-3.0,1.0078125,0.18603515625,0.130859375,-26.402439024390247,9.085365853658537,-21.951219512195124
10_41_10_096,20.0,13.0,4.0,1.0,-4.0,-4.0,-4.0,-1.0,1.01025390625,0.20263671875,0.12109375,-24.451219512195124,3.7195121951219514,-21.951219512195124
10_41_10_096,-12.0,10.0,13.0,-9.0,-1.0,2.0,4.0,-7.0,1.00634765625,0.19775390625,0.14208984375,-22.500000000000004,-0.24390243902439027,-20.60975609756098
10_41_10_096,18.0,-74.0,-28.0,-5.0,-3.0,1.0,6.0,-3.0,1.00537109375,0.15966796875,0.1298828125,-23.10975609756098,-1.9512195121951221,-18.658536585365855
10_41_10_096,-1.0,35.0,11.0,4.0,1.0,-5.0,-8.0,8.0,0.98779296875,0.16455078125,0.1455078125,-23.84146341463415,-1.829268292682927,-17.378048780487806
10_41_10_096,8.0,6.0,0.0,-6.0,-1.0,-1.0,-1.0,-2.0,0.98193359375,0.17919921875,0.13427734375,-23.29268292682927,1.524390243902439,-15.853658536585368
10_41_10_096,-72.0,-52.0,-22.0,-11.0,-5.0,0.0,-4.0,-9.0,1.01220703125,0.193359375,0.072265625,-15.30487804878049,0.9756097560975611,-14.146341463414636
10_41_10_096,19.0,33.0,13.0,11.0,5.0,-3.0,-4.0,7.0,1.0126953125,0.18359375,0.06787109375,-6.158536585365854,-2.8658536585365857,-10.548780487804878
10_41_10_150,16.0,50.0,-30.0,2.0,-6.0,-6.0,-4.0,0.0,0.95556640625,0.11279296875,0.125,-56.524390243902445,25.000000000000004,-22.134146341463417
10_41_10_150,59.0,-5.0,-7.0,4.0,-3.0,-4.0,5.0,4.0,0.97021484375,0.154296875,0.11572265625,-41.40243902439025,23.902439024390247,-21.402439024390247
10_41_10_150,-31.0,14.0,37.0,11.0,2.0,-3.0,-4.0,-3.0,0.998046875,0.14208984375,0.1201171875,-27.80487804878049,18.963414634146343,-21.28048780487805
10_41_10_150,47.0,60.0,19.0,1.0,8.0,4.0,2.0,8.0,1.015625,0.16357421875,0.12060546875,-25.54878048780488,13.902439024390246,-20.914634146341466
10_41_10_150,-17.0,-18.0,-30.0,-7.0,-9.0,-16.0,-4.0,-5.0,1.0078125,0.18603515625,0.130859375,-26.402439024390247,9.085365853658537,-21.951219512195124
10_41_10_150,5.0,-2.0,5.0,2.0,1.0,5.0,2.0,6.0,1.01025390625,0.20263671875,0.12109375,-24.451219512195124,3.7195121951219514,-21.951219512195124
10_41_10_150,2.0,24.0,10.0,1.0,-1.0,1.0,-1.0,0.0,1.00634765625,0.19775390625,0.14208984375,-22.500000000000004,-0.24390243902439027,-20.60975609756098
10_41_10_150,-19.0,-20.0,-8.0,-4.0,-3.0,-4.0,0.0,-4.0,1.00537109375,0.15966796875,0.1298828125,-23.10975609756098,-1.9512195121951221,-18.658536585365855
10_41_10_150,-5.0,9.0,-5.0,8.0,-1.0,0.0,-2.0,1.0,0.98779296875,0.16455078125,0.1455078125,-23.84146341463415,-1.829268292682927,-17.378048780487806
10_41_10_150,8.0,20.0,11.0,-10.0,-3.0,-5.0,9.0,-3.0,0.98193359375,0.17919921875,0.13427734375,-23.29268292682927,1.524390243902439,-15.853658536585368
10_41_10_196,3.0,-3.0,-1.0,-1.0,-6.0,-2.0,-3.0,-1.0,0.93310546875,-0.0478515625,0.14404296875,-29.573170731707318,12.073170731707318,-12.134146341463415
10_41_10_196,-5.0,-3.0,4.0,-4.0,-2.0,-1.0,-3.0,-2.0,0.93798828125,-0.029296875,0.125,-40.91463414634147,17.25609756097561,-16.219512195121954
10_41_10_196,-2.0,-4.0,-35.0,-10.0,-2.0,-1.0,1.0,-6.0,0.93798828125,0.01318359375,0.13427734375,-55.365853658536594,20.853658536585368,-18.53658536585366
10_41_10_196,3.0,1.0,12.0,3.0,1.0,2.0,-1.0,1.0,0.95556640625,0.11279296875,0.125,-56.524390243902445,25.000000000000004,-22.134146341463417
10_41_10_196,-22.0,-34.0,-3.0,-6.0,-9.0,2.0,1.0,-12.0,0.97021484375,0.154296875,0.11572265625,-41.40243902439025,23.902439024390247,-21.402439024390247
10_41_10_196,34.0,-4.0,3.0,4.0,5.0,-4.0,1.0,0.0,0.998046875,0.14208984375,0.1201171875,-27.80487804878049,18.963414634146343,-21.28048780487805
10_41_10_196,1.0,-12.0,6.0,-2.0,-1.0,-4.0,-5.0,-5.0,1.015625,0.16357421875,0.12060546875,-25.54878048780488,13.902439024390246,-20.914634146341466
10_41_10_196,27.0,-30.0,-17.0,-3.0,-3.0,-3.0,-1.0,-3.0,1.0078125,0.18603515625,0.130859375,-26.402439024390247,9.085365853658537,-21.951219512195124
10_41_10_196,15.0,44.0,18.0,11.0,-1.0,-7.0,-8.0,7.0,1.01025390625,0.20263671875,0.12109375,-24.451219512195124,3.7195121951219514,-21.951219512195124
10_41_10_196,-6.0,19.0,-13.0,-11.0,4.0,5.0,4.0,-5.0,1.00634765625,0.19775390625,0.14208984375,-22.500000000000004,-0.24390243902439027,-20.60975609756098
10_41_10_241,22.0,-4.0,-5.0,-5.0,-4.0,-4.0,8.0,1.0,0.96484375,0.0029296875,0.220703125,3.963414634146342,8.719512195121952,-2.3170731707317076
10_41_10_241,-12.0,2.0,-10.0,-3.0,-4.0,-2.0,3.0,-4.0,0.9296875,-0.0419921875,0.17822265625,-17.5,7.987804878048781,-7.195121951219513
10_41_10_241,23.0,27.0,27.0,15.0,4.0,-1.0,-6.0,-5.0,0.93310546875,-0.0478515625,0.14404296875,-29.573170731707318,12.073170731707318,-12.134146341463415
10_41_10_241,-13.0,-17.0,19.0,-8.0,-5.0,-2.0,4.0,-3.0,0.93798828125,-0.029296875,0.125,-40.91463414634147,17.25609756097561,-16.219512195121954
10_41_10_241,-1.0,-3.0,-14.0,-10.0,-8.0,-2.0,-8.0,4.0,0.93798828125,0.01318359375,0.13427734375,-55.365853658536594,20.853658536585368,-18.53658536585366
10_41_10_241,0.0,6.0,10.0,2.0,2.0,-2.0,-2.0,0.0,0.95556640625,0.11279296875,0.125,-56.524390243902445,25.000000000000004,-22.134146341463417
10_41_10_241,-43.0,-10.0,-8.0,-8.0,-9.0,-2.0,5.0,-19.0,0.97021484375,0.154296875,0.11572265625,-41.40243902439025,23.902439024390247,-21.402439024390247
10_41_10_241,-6.0,-22.0,-24.0,-10.0,0.0,-1.0,-3.0,-4.0,0.998046875,0.14208984375,0.1201171875,-27.80487804878049,18.963414634146343,-21.28048780487805
10_41_10_241,3.0,-3.0,-1.0,-1.0,-6.0,-2.0,-3.0,-1.0,1.015625,0.16357421875,0.12060546875,-25.54878048780488,13.902439024390246,-20.914634146341466
10_41_10_241,-5.0,-3.0,4.0,-4.0,-2.0,-1.0,-3.0,-2.0,1.0078125,0.18603515625,0.130859375,-26.402439024390247,9.085365853658537,-21.951219512195124
10_41_10_307,0.0,9.0,7.0,8.0,1.0,-5.0,0.0,2.0,1.02001953125,0.19970703125,0.3232421875,4.817073170731708,37.07317073170732,13.658536585365855
10_41_10_307,-13.0,-21.0,1.0,-6.0,0.0,0.0,-1.0,15.0,1.0419921875,0.1591796875,0.27490234375,18.10975609756098,27.743902439024392,6.219512195121951
10_41_10_307,-9.0,-5.0,-4.0,-1.0,0.0,0.0,8.0,-16.0,1.015625,0.0859375,0.2578125,21.463414634146343,16.219512195121954,1.829268292682927
10_41_10_307,24.0,22.0,2.0,1.0,-5.0,-3.0,-24.0,0.0,0.96484375,0.0029296875,0.220703125,3.963414634146342,8.719512195121952,-2.3170731707317076
10_41_10_307,3.0,-5.0,-3.0,-1.0,-3.0,1.0,10.0,-2.0,0.9296875,-0.0419921875,0.17822265625,-17.5,7.987804878048781,-7.195121951219513
10_41_10_307,7.0,5.0,1.0,0.0,-1.0,2.0,5.0,-1.0,0.93310546875,-0.0478515625,0.14404296875,-29.573170731707318,12.073170731707318,-12.134146341463415
10_41_10_307,10.0,7.0,-1.0,1.0,7.0,-3.0,5.0,-8.0,0.93798828125,-0.029296875,0.125,-40.91463414634147,17.25609756097561,-16.219512195121954
10_41_10_307,-10.0,9.0,2.0,-4.0,1.0,-1.0,2.0,-6.0,0.93798828125,0.01318359375,0.13427734375,-55.365853658536594,20.853658536585368,-18.53658536585366
10_41_10_307,4.0,-2.0,-3.0,-5.0,3.0,-1.0,9.0,-3.0,0.95556640625,0.11279296875,0.125,-56.524390243902445,25.000000000000004,-22.134146341463417
10_41_10_307,-12.0,-3.0,-3.0,-4.0,-5.0,0.0,-32.0,-2.0,0.97021484375,0.154296875,0.11572265625,-41.40243902439025,23.902439024390247,-21.402439024390247
10_41_10_347,-2.0,-11.0,-5.0,-2.0,-1.0,4.0,4.0,0.0,0.904296875,0.14697265625,0.330078125,6.2804878048780495,29.75609756097561,31.89024390243903
10_41_10_347,3.0,11.0,0.0,4.0,-1.0,-4.0,1.0,-10.0,0.9306640625,0.171875,0.32177734375,1.0365853658536586,36.40243902439025,28.719512195121954
10_41_10_347,-34.0,8.0,2.0,-8.0,-9.0,-1.0,-2.0,-3.0,0.98095703125,0.21337890625,0.349609375,-0.30487804878048785,39.08536585365854,21.707317073170735
10_41_10_347,46.0,26.0,-7.0,3.0,0.0,-5.0,-4.0,9.0,1.02001953125,0.19970703125,0.3232421875,4.817073170731708,37.07317073170732,13.658536585365855
10_41_10_347,-7.0,-25.0,-6.0,-2.0,0.0,1.0,0.0,0.0,1.0419921875,0.1591796875,0.27490234375,18.10975609756098,27.743902439024392,6.219512195121951
10_41_10_347,-3.0,-11.0,3.0,-1.0,1.0,-2.0,5.0,-1.0,1.015625,0.0859375,0.2578125,21.463414634146343,16.219512195121954,1.829268292682927
10_41_10_347,1.0,-10.0,-4.0,-4.0,1.0,3.0,1.0,-2.0,0.96484375,0.0029296875,0.220703125,3.963414634146342,8.719512195121952,-2.3170731707317076
10_41_10_347,-1.0,1.0,0.0,-2.0,-1.0,-2.0,3.0,-5.0,0.9296875,-0.0419921875,0.17822265625,-17.5,7.987804878048781,-7.195121951219513
10_41_10_347,-1.0,1.0,2.0,1.0,-1.0,-2.0,2.0,-4.0,0.93310546875,-0.0478515625,0.14404296875,-29.573170731707318,12.073170731707318,-12.134146341463415
10_41_10_347,-2.0,6.0,2.0,-1.0,-1.0,2.0,3.0,1.0,0.93798828125,-0.029296875,0.125,-40.91463414634147,17.25609756097561,-16.219512195121954
10_41_10_404,-2.0,1.0,-4.0,-6.0,-4.0,-4.0,3.0,1.0,0.904296875,0.14697265625,0.330078125,6.2804878048780495,29.75609756097561,31.89024390243903
10_41_10_404,4.0,-3.0,2.0,2.0,3.0,-1.0,3.0,1.0,0.9306640625,0.171875,0.32177734375,1.0365853658536586,36.40243902439025,28.719512195121954
10_41_10_404,16.0,4.0,-3.0,3.0,0.0,2.0,-1.0,2.0,0.98095703125,0.21337890625,0.349609375,-0.30487804878048785,39.08536585365854,21.707317073170735
10_41_10_404,-2.0,-11.0,-5.0,-2.0,-1.0,4.0,4.0,0.0,1.02001953125,0.19970703125,0.3232421875,4.817073170731708,37.07317073170732,13.658536585365855
10_41_10_404,3.0,11.0,0.0,4.0,-1.0,-4.0,1.0,-10.0,1.0419921875,0.1591796875,0.27490234375,18.10975609756098,27.743902439024392,6.219512195121951
10_41_10_404,-34.0,8.0,2.0,-8.0,-9.0,-1.0,-2.0,-3.0,1.015625,0.0859375,0.2578125,21.463414634146343,16.219512195121954,1.829268292682927
10_41_10_404,46.0,26.0,-7.0,3.0,0.0,-5.0,-4.0,9.0,0.96484375,0.0029296875,0.220703125,3.963414634146342,8.719512195121952,-2.3170731707317076
10_41_10_404,-7.0,-25.0,-6.0,-2.0,0.0,1.0,0.0,0.0,0.9296875,-0.0419921875,0.17822265625,-17.5,7.987804878048781,-7.195121951219513
10_41_10_404,-3.0,-11.0,3.0,-1.0,1.0,-2.0,5.0,-1.0,0.93310546875,-0.0478515625,0.14404296875,-29.573170731707318,12.073170731707318,-12.134146341463415
10_41_10_451,-5.0,1.0,-4.0,-1.0,4.0,1.0,3.0,-4.0,0.80615234375,0.177734375,0.16259765625,1.707317073170732,18.475609756097562,22.80487804878049
10_41_10_451,-4.0,5.0,-1.0,3.0,-1.0,0.0,3.0,-4.0,0.7451171875,0.37646484375,0.28173828125,2.3170731707317076,22.743902439024392,22.134146341463417
10_41_10_451,13.0,-5.0,0.0,-3.0,-4.0,-7.0,-3.0,10.0,0.796875,0.3271484375,0.2705078125,4.146341463414634,24.390243902439025,19.75609756097561
10_41_10_451,0.0,-2.0,0.0,-5.0,-6.0,0.0,2.0,-2.0,0.86376953125,0.14697265625,0.29296875,10.0,22.378048780487806,28.292682926829272
10_41_10_451,-4.0,-4.0,2.0,1.0,-5.0,-7.0,0.0,2.0,0.904296875,0.14697265625,0.330078125,6.2804878048780495,29.75609756097561,31.89024390243903
10_41_10_451,0.0,-9.0,-10.0,-7.0,-9.0,-1.0,-1.0,0.0,0.9306640625,0.171875,0.32177734375,1.0365853658536586,36.40243902439025,28.719512195121954
10_41_10_451,2.0,0.0,-2.0,6.0,-3.0,-1.0,-1.0,2.0,0.98095703125,0.21337890625,0.349609375,-0.30487804878048785,39.08536585365854,21.707317073170735
10_41_10_451,-47.0,51.0,38.0,10.0,-8.0,-3.0,-3.0,-4.0,1.02001953125,0.19970703125,0.3232421875,4.817073170731708,37.07317073170732,13.658536585365855
10_41_10_451,13.0,-26.0,-2.0,-1.0,-6.0,-3.0,0.0,-1.0,1.0419921875,0.1591796875,0.27490234375,18.10975609756098,27.743902439024392,6.219512195121951
10_41_10_505,-37.0,-9.0,-3.0,-1.0,0.0,2.0,3.0,6.0,1.068359375,0.099609375,0.18603515625,20.853658536585368,8.353658536585366,18.53658536585366
10_41_10_505,13.0,-9.0,-7.0,-2.0,-1.0,0.0,-1.0,-7.0,0.93896484375,-0.00732421875,0.13330078125,6.341463414634147,4.573170731707317,20.30487804878049
10_41_10_505,-1.0,1.0,-3.0,-6.0,-2.0,0.0,0.0,3.0,0.80615234375,0.177734375,0.16259765625,1.707317073170732,18.475609756097562,22.80487804878049
10_41_10_505,1.0,2.0,3.0,-1.0,0.0,-2.0,-1.0,-4.0,0.7451171875,0.37646484375,0.28173828125,2.3170731707317076,22.743902439024392,22.134146341463417
10_41_10_505,0.0,0.0,0.0,5.0,0.0,-1.0,0.0,6.0,0.796875,0.3271484375,0.2705078125,4.146341463414634,24.390243902439025,19.75609756097561
10_41_10_505,-5.0,1.0,-4.0,-1.0,4.0,1.0,3.0,-4.0,0.86376953125,0.14697265625,0.29296875,10.0,22.378048780487806,28.292682926829272
10_41_10_505,-4.0,5.0,-1.0,3.0,-1.0,0.0,3.0,-4.0,0.904296875,0.14697265625,0.330078125,6.2804878048780495,29.75609756097561,31.89024390243903
10_41_10_505,13.0,-5.0,0.0,-3.0,-4.0,-7.0,-3.0,10.0,0.9306640625,0.171875,0.32177734375,1.0365853658536586,36.40243902439025,28.719512195121954
10_41_10_505,0.0,-2.0,0.0,-5.0,-6.0,0.0,2.0,-2.0,0.98095703125,0.21337890625,0.349609375,-0.30487804878048785,39.08536585365854,21.707317073170735
10_41_10_505,-4.0,-4.0,2.0,1.0,-5.0,-7.0,0.0,2.0,1.02001953125,0.19970703125,0.3232421875,4.817073170731708,37.07317073170732,13.658536585365855
10_41_10_544,-4.0,8.0,3.0,2.0,-2.0,-5.0,0.0,-5.0,0.83935546875,0.2763671875,0.2451171875,-13.170731707317074,40.0,28.353658536585368
10_41_10_544,-2.0,-3.0,-6.0,-2.0,-5.0,-3.0,-4.0,0.0,0.87939453125,0.30419921875,0.20166015625,14.207317073170733,36.951219512195124,20.975609756097562
10_41_10_544,0.0,6.0,1.0,-3.0,-2.0,3.0,0.0,0.0,0.9580078125,0.3662109375,0.1865234375,40.85365853658537,30.853658536585368,14.878048780487806
10_41_10_544,5.0,-6.0,-27.0,-4.0,1.0,-1.0,-3.0,-4.0,1.00390625,0.30810546875,0.18798828125,40.304878048780495,21.28048780487805,12.073170731707318
10_41_10_544,0.0,0.0,22.0,-5.0,-1.0,-5.0,5.0,0.0,1.068359375,0.099609375,0.18603515625,20.853658536585368,8.353658536585366,18.53658536585366
10_41_10_544,0.0,-11.0,-10.0,-3.0,0.0,-2.0,-4.0,-1.0,0.93896484375,-0.00732421875,0.13330078125,6.341463414634147,4.573170731707317,20.30487804878049
10_41_10_544,-4.0,0.0,-3.0,4.0,2.0,3.0,-2.0,1.0,0.80615234375,0.177734375,0.16259765625,1.707317073170732,18.475609756097562,22.80487804878049
10_41_10_544,-17.0,8.0,-1.0,0.0,-2.0,-2.0,1.0,3.0,0.7451171875,0.37646484375,0.28173828125,2.3170731707317076,22.743902439024392,22.134146341463417
10_41_10_544,15.0,-19.0,0.0,-5.0,-3.0,-4.0,4.0,-5.0,0.796875,0.3271484375,0.2705078125,4.146341463414634,24.390243902439025,19.75609756097561
10_41_10_544,10.0,30.0,26.0,12.0,4.0,1.0,-2.0,6.0,0.86376953125,0.14697265625,0.29296875,10.0,22.378048780487806,28.292682926829272
10_41_10_609,13.0,-1.0,-2.0,1.0,-2.0,0.0,1.0,-3.0,0.79443359375,0.2978515625,0.36328125,2.804878048780488,41.58536585365854,21.585365853658537
10_41_10_609,8.0,-4.0,4.0,1.0,1.0,-5.0,-5.0,6.0,0.806640625,0.27978515625,0.30859375,-10.548780487804878,41.34146341463415,25.853658536585368
10_41_10_609,-12.0,5.0,10.0,-1.0,0.0,2.0,4.0,-1.0,0.83935546875,0.2763671875,0.2451171875,-13.170731707317074,40.0,28.353658536585368
10_41_10_609,-5.0,-11.0,-15.0,-1.0,-2.0,-7.0,5.0,7.0,0.87939453125,0.30419921875,0.20166015625,14.207317073170733,36.951219512195124,20.975609756097562
10_41_10_609,10.0,2.0,6.0,3.0,6.0,3.0,15.0,1.0,0.9580078125,0.3662109375,0.1865234375,40.85365853658537,30.853658536585368,14.878048780487806
10_41_10_609,-11.0,24.0,-21.0,-2.0,1.0,1.0,-8.0,-10.0,1.00390625,0.30810546875,0.18798828125,40.304878048780495,21.28048780487805,12.073170731707318
10_41_10_609,2.0,-7.0,3.0,6.0,-1.0,0.0,19.0,19.0,1.068359375,0.099609375,0.18603515625,20.853658536585368,8.353658536585366,18.53658536585366
10_41_10_609,8.0,15.0,-1.0,2.0,-5.0,-2.0,-9.0,-7.0,0.93896484375,-0.00732421875,0.13330078125,6.341463414634147,4.573170731707317,20.30487804878049
10_41_10_609,-4.0,8.0,3.0,2.0,-2.0,-5.0,0.0,-5.0,0.80615234375,0.177734375,0.16259765625,1.707317073170732,18.475609756097562,22.80487804878049
10_41_10_609,-2.0,-3.0,-6.0,-2.0,-5.0,-3.0,-4.0,0.0,0.7451171875,0.37646484375,0.28173828125,2.3170731707317076,22.743902439024392,22.134146341463417
10_41_10_654,4.0,-4.0,-4.0,-8.0,-3.0,-1.0,-6.0,-5.0,0.7275390625,0.33837890625,0.3994140625,12.256097560975611,36.58536585365854,18.719512195121954
10_41_10_654,3.0,12.0,13.0,0.0,-2.0,-4.0,-10.0,-3.0,0.76318359375,0.36474609375,0.41796875,11.585365853658537,40.426829268292686,19.75609756097561
10_41_10_654,-8.0,2.0,-9.0,5.0,0.0,3.0,1.0,3.0,0.79443359375,0.2978515625,0.36328125,2.804878048780488,41.58536585365854,21.585365853658537
10_41_10_654,-9.0,1.0,-2.0,-2.0,0.0,2.0,-6.0,-6.0,0.806640625,0.27978515625,0.30859375,-10.548780487804878,41.34146341463415,25.853658536585368
10_41_10_654,8.0,-2.0,4.0,-4.0,0.0,-1.0,-4.0,3.0,0.83935546875,0.2763671875,0.2451171875,-13.170731707317074,40.0,28.353658536585368
10_41_10_654,-13.0,10.0,32.0,5.0,6.0,-1.0,0.0,1.0,0.87939453125,0.30419921875,0.20166015625,14.207317073170733,36.951219512195124,20.975609756097562
10_41_10_654,1.0,8.0,-28.0,-5.0,-3.0,-2.0,-4.0,1.0,0.9580078125,0.3662109375,0.1865234375,40.85365853658537,30.853658536585368,14.878048780487806
10_41_10_654,-7.0,-21.0,1.0,0.0,-1.0,-1.0,-1.0,-10.0,1.00390625,0.30810546875,0.18798828125,40.304878048780495,21.28048780487805,12.073170731707318
10_41_10_654,22.0,-39.0,-23.0,-9.0,-7.0,-2.0,-1.0,-9.0,1.068359375,0.099609375,0.18603515625,20.853658536585368,8.353658536585366,18.53658536585366
10_41_10_654,-50.0,-31.0,17.0,2.0,-2.0,-2.0,-4.0,-1.0,0.93896484375,-0.00732421875,0.13330078125,6.341463414634147,4.573170731707317,20.30487804878049
10_41_10_705,10.0,9.0,-1.0,4.0,2.0,1.0,-4.0,-1.0,0.818359375,0.23486328125,0.54248046875,20.731707317073173,32.19512195121951,12.256097560975611
10_41_10_705,-7.0,-7.0,-17.0,0.0,2.0,-2.0,10.0,2.0,0.7822265625,0.2783203125,0.51416015625,7.560975609756098,34.390243902439025,14.878048780487806
10_41_10_705,7.0,10.0,16.0,-2.0,2.0,2.0,6.0,0.0,0.76953125,0.3154296875,0.4384765625,4.51219512195122,36.15853658536586,17.439024390243905
10_41_10_705,-21.0,-1.0,-26.0,-2.0,1.0,-2.0,-4.0,-5.0,0.7275390625,0.33837890625,0.3994140625,12.256097560975611,36.58536585365854,18.719512195121954
10_41_10_705,8.0,-1.0,4.0,1.0,0.0,-1.0,-43.0,5.0,0.76318359375,0.36474609375,0.41796875,11.585365853658537,40.426829268292686,19.75609756097561
10_41_10_705,-7.0,-57.0,-33.0,-11.0,-7.0,-2.0,11.0,-9.0,0.79443359375,0.2978515625,0.36328125,2.804878048780488,41.58536585365854,21.585365853658537
10_41_10_705,-8.0,38.0,1.0,-3.0,-4.0,-1.0,-7.0,-6.0,0.806640625,0.27978515625,0.30859375,-10.548780487804878,41.34146341463415,25.853658536585368
10_41_10_705,2.0,-30.0,-8.0,-1.0,5.0,5.0,-1.0,-4.0,0.83935546875,0.2763671875,0.2451171875,-13.170731707317074,40.0,28.353658536585368
10_41_10_705,6.0,28.0,12.0,5.0,-3.0,-2.0,-4.0,-2.0,0.87939453125,0.30419921875,0.20166015625,14.207317073170733,36.951219512195124,20.975609756097562
10_41_10_705,1.0,-3.0,-4.0,-1.0,-1.0,0.0,8.0,5.0,0.9580078125,0.3662109375,0.1865234375,40.85365853658537,30.853658536585368,14.878048780487806
10_41_10_752,4.0,17.0,-4.0,-3.0,-5.0,0.0,-4.0,1.0,0.81982421875,0.20556640625,0.49267578125,20.48780487804878,38.65853658536586,11.219512195121952
10_41_10_752,3.0,-3.0,0.0,1.0,2.0,1.0,-1.0,-5.0,0.83447265625,0.240234375,0.548828125,31.09756097560976,34.51219512195122,7.8048780487804885
10_41_10_752,11.0,13.0,2.0,-2.0,0.0,-4.0,0.0,5.0,0.83544921875,0.2626953125,0.55322265625,26.09756097560976,31.82926829268293,7.8048780487804885
10_41_10_752,-4.0,-1.0,1.0,1.0,4.0,-1.0,-3.0,1.0,0.818359375,0.23486328125,0.54248046875,20.731707317073173,32.19512195121951,12.256097560975611
10_41_10_752,6.0,1.0,13.0,4.0,1.0,2.0,11.0,10.0,0.7822265625,0.2783203125,0.51416015625,7.560975609756098,34.390243902439025,14.878048780487806
10_41_10_752,2.0,-7.0,-19.0,-2.0,-4.0,-5.0,-13.0,-2.0,0.76953125,0.3154296875,0.4384765625,4.51219512195122,36.15853658536586,17.439024390243905
10_41_10_752,4.0,5.0,10.0,3.0,-1.0,0.0,-3.0,4.0,0.7275390625,0.33837890625,0.3994140625,12.256097560975611,36.58536585365854,18.719512195121954
10_41_10_752,-14.0,-6.0,-24.0,-1.0,-1.0,0.0,2.0,-6.0,0.76318359375,0.36474609375,0.41796875,11.585365853658537,40.426829268292686,19.75609756097561
10_41_10_752,12.0,-2.0,3.0,3.0,-4.0,0.0,-4.0,10.0,0.79443359375,0.2978515625,0.36328125,2.804878048780488,41.58536585365854,21.585365853658537
10_41_10_752,12.0,20.0,22.0,10.0,1.0,-1.0,-2.0,1.0,0.806640625,0.27978515625,0.30859375,-10.548780487804878,41.34146341463415,25.853658536585368
10_41_10_804,-14.0,-62.0,-12.0,-6.0,-7.0,-1.0,-12.0,-17.0,0.798828125,0.208984375,0.47802734375,18.597560975609756,40.426829268292686,8.597560975609756
10_41_10_804,15.0,11.0,2.0,4.0,4.0,0.0,-3.0,8.0,0.81982421875,0.20556640625,0.49267578125,20.48780487804878,38.65853658536586,11.219512195121952
10_41_10_804,-3.0,9.0,-2.0,-2.0,-3.0,-1.0,14.0,10.0,0.83447265625,0.240234375,0.548828125,31.09756097560976,34.51219512195122,7.8048780487804885
10_41_10_804,-10.0,-4.0,-5.0,-6.0,-4.0,0.0,-6.0,-8.0,0.83544921875,0.2626953125,0.55322265625,26.09756097560976,31.82926829268293,7.8048780487804885
10_41_10_804,4.0,4.0,3.0,-4.0,-3.0,-2.0,-2.0,-2.0,0.818359375,0.23486328125,0.54248046875,20.731707317073173,32.19512195121951,12.256097560975611
10_41_10_804,5.0,-19.0,-14.0,2.0,-6.0,-2.0,-5.0,1.0,0.7822265625,0.2783203125,0.51416015625,7.560975609756098,34.390243902439025,14.878048780487806
10_41_10_804,12.0,6.0,-14.0,-4.0,-1.0,-3.0,-3.0,-1.0,0.76953125,0.3154296875,0.4384765625,4.51219512195122,36.15853658536586,17.439024390243905
10_41_10_804,-2.0,-45.0,-5.0,-1.0,-4.0,-4.0,8.0,-2.0,0.7275390625,0.33837890625,0.3994140625,12.256097560975611,36.58536585365854,18.719512195121954
10_41_10_804,10.0,-1.0,3.0,2.0,1.0,-3.0,-7.0,4.0,0.76318359375,0.36474609375,0.41796875,11.585365853658537,40.426829268292686,19.75609756097561
10_41_10_847,-1.0,29.0,7.0,0.0,-1.0,-1.0,2.0,-2.0,0.7841796875,0.1494140625,0.45703125,22.378048780487806,39.51219512195122,10.670731707317074
10_41_10_847,-3.0,3.0,10.0,6.0,0.0,1.0,-4.0,0.0,0.78857421875,0.16162109375,0.43994140625,20.0,40.1829268292683,7.865853658536586
10_41_10_847,1.0,-4.0,-4.0,-2.0,-2.0,4.0,-3.0,1.0,0.796875,0.21435546875,0.4765625,18.231707317073173,41.58536585365854,6.707317073170732
10_41_10_847,11.0,15.0,10.0,-7.0,-1.0,4.0,-4.0,-6.0,0.798828125,0.208984375,0.47802734375,18.597560975609756,40.426829268292686,8.597560975609756
10_41_10_847,2.0,-8.0,-2.0,-3.0,1.0,-5.0,11.0,6.0,0.81982421875,0.20556640625,0.49267578125,20.48780487804878,38.65853658536586,11.219512195121952
10_41_10_847,-16.0,-8.0,-7.0,-1.0,-2.0,1.0,-5.0,-9.0,0.83447265625,0.240234375,0.548828125,31.09756097560976,34.51219512195122,7.8048780487804885
10_41_10_847,-1.0,-8.0,1.0,-6.0,-2.0,-3.0,-5.0,-11.0,0.83544921875,0.2626953125,0.55322265625,26.09756097560976,31.82926829268293,7.8048780487804885
10_41_10_847,-65.0,-17.0,-5.0,-14.0,-5.0,1.0,1.0,-9.0,0.818359375,0.23486328125,0.54248046875,20.731707317073173,32.19512195121951,12.256097560975611
10_41_10_847,22.0,-31.0,-7.0,4.0,3.0,-4.0,-8.0,6.0,0.7822265625,0.2783203125,0.51416015625,7.560975609756098,34.390243902439025,14.878048780487806
10_41_10_912,16.0,11.0,-41.0,1.0,-1.0,2.0,2.0,2.0,0.8017578125,0.14404296875,0.458984375,40.60975609756098,22.195121951219512,10.121951219512196
10_41_10_912,-16.0,-11.0,11.0,2.0,0.0,0.0,2.0,-3.0,0.7763671875,0.138671875,0.44482421875,32.5,29.146341463414636,10.853658536585368
10_41_10_912,13.0,34.0,6.0,-3.0,-4.0,-4.0,4.0,-19.0,0.74267578125,0.17041015625,0.4609375,24.32926829268293,36.09756097560976,9.878048780487806
10_41_10_912,-2.0,-26.0,-11.0,-3.0,-3.0,2.0,-10.0,0.0,0.7421875,0.17919921875,0.4580078125,25.426829268292686,39.87804878048781,10.670731707317074
10_41_10_912,0.0,3.0,1.0,2.0,1.0,1.0,-10.0,3.0,0.7841796875,0.1494140625,0.45703125,22.378048780487806,39.51219512195122,10.670731707317074
10_41_10_912,-23.0,-1.0,-20.0,-4.0,0.0,1.0,18.0,-5.0,0.78857421875,0.16162109375,0.43994140625,20.0,40.1829268292683,7.865853658536586
10_41_10_912,0.0,10.0,14.0,-6.0,-5.0,-2.0,3.0,2.0,0.796875,0.21435546875,0.4765625,18.231707317073173,41.58536585365854,6.707317073170732
10_41_10_912,-4.0,-36.0,-12.0,-7.0,-7.0,-3.0,3.0,-3.0,0.798828125,0.208984375,0.47802734375,18.597560975609756,40.426829268292686,8.597560975609756
10_41_10_912,1.0,9.0,9.0,4.0,3.0,-1.0,-1.0,0.0,0.81982421875,0.20556640625,0.49267578125,20.48780487804878,38.65853658536586,11.219512195121952
10_41_10_912,-12.0,-2.0,-7.0,-1.0,2.0,-5.0,-2.0,0.0,0.83447265625,0.240234375,0.548828125,31.09756097560976,34.51219512195122,7.8048780487804885
10_41_10_954,-24.0,-3.0,-3.0,-4.0,-3.0,3.0,-15.0,-11.0,0.82470703125,0.2021484375,0.3837890625,24.81707317073171,9.817073170731708,13.414634146341465
10_41_10_954,-12.0,-20.0,-2.0,-4.0,3.0,3.0,13.0,4.0,0.81396484375,0.1708984375,0.435546875,34.207317073170735,14.085365853658537,11.52439024390244
10_41_10_954,10.0,-4.0,-10.0,-5.0,-1.0,-2.0,-10.0,2.0,0.8017578125,0.14404296875,0.458984375,40.60975609756098,22.195121951219512,10.121951219512196
10_41_10_954,-10.0,-6.0,-4.0,-5.0,-2.0,-1.0,-2.0,-7.0,0.7763671875,0.138671875,0.44482421875,32.5,29.146341463414636,10.853658536585368
10_41_10_954,-20.0,12.0,5.0,5.0,3.0,-2.0,15.0,0.0,0.74267578125,0.17041015625,0.4609375,24.32926829268293,36.09756097560976,9.878048780487806
10_41_10_954,-19.0,-43.0,-8.0,-7.0,0.0,0.0,-3.0,-7.0,0.7421875,0.17919921875,0.4580078125,25.426829268292686,39.87804878048781,10.670731707317074
10_41_10_954,8.0,30.0,3.0,4.0,-3.0,-5.0,-42.0,2.0,0.7841796875,0.1494140625,0.45703125,22.378048780487806,39.51219512195122,10.670731707317074
10_41_10_954,-3.0,-26.0,-5.0,-2.0,2.0,-2.0,13.0,-5.0,0.78857421875,0.16162109375,0.43994140625,20.0,40.1829268292683,7.865853658536586
10_41_10_954,7.0,32.0,5.0,7.0,1.0,0.0,11.0,9.0,0.796875,0.21435546875,0.4765625,18.231707317073173,41.58536585365854,6.707317073170732
10_41_10_954,6.0,0.0,2.0,-6.0,1.0,-6.0,-31.0,-4.0,0.798828125,0.208984375,0.47802734375,18.597560975609756,40.426829268292686,8.597560975609756
10_41_11_000,-2.0,-5.0,-22.0,2.0,-2.0,-1.0,-2.0,4.0,0.796875,0.1611328125,0.34326171875,14.573170731707318,-0.6707317073170732,14.756097560975611
10_41_11_000,-13.0,23.0,-3.0,-6.0,-1.0,-1.0,-5.0,-3.0,0.80224609375,0.18359375,0.3564453125,15.000000000000002,4.51219512195122,13.658536585365855
10_41_11_000,-2.0,-48.0,-7.0,-5.0,-1.0,2.0,4.0,-4.0,0.8212890625,0.2099609375,0.37060546875,16.951219512195124,7.8048780487804885,13.719512195121952
10_41_11_000,2.0,4.0,-1.0,-6.0,3.0,1.0,-1.0,-2.0,0.82470703125,0.2021484375,0.3837890625,24.81707317073171,9.817073170731708,13.414634146341465
10_41_11_000,-3.0,-1.0,-2.0,2.0,3.0,-1.0,2.0,2.0,0.81396484375,0.1708984375,0.435546875,34.207317073170735,14.085365853658537,11.52439024390244
10_41_11_000,-6.0,5.0,4.0,2.0,-2.0,2.0,-7.0,-21.0,0.8017578125,0.14404296875,0.458984375,40.60975609756098,22.195121951219512,10.121951219512196
10_41_11_000,5.0,24.0,10.0,2.0,-3.0,-6.0,7.0,7.0,0.7763671875,0.138671875,0.44482421875,32.5,29.146341463414636,10.853658536585368
10_41_11_000,-9.0,-27.0,-29.0,-8.0,2.0,-1.0,28.0,8.0,0.74267578125,0.17041015625,0.4609375,24.32926829268293,36.09756097560976,9.878048780487806
10_41_11_000,15.0,0.0,4.0,5.0,4.0,-4.0,-17.0,6.0,0.7421875,0.17919921875,0.4580078125,25.426829268292686,39.87804878048781,10.670731707317074
10_41_11_000,7.0,14.0,-2.0,-3.0,-3.0,-2.0,9.0,3.0,0.7841796875,0.1494140625,0.45703125,22.378048780487806,39.51219512195122,10.670731707317074
10_41_11_064,24.0,27.0,6.0,5.0,3.0,-5.0,2.0,6.0,0.8115234375,0.1630859375,0.33642578125,20.426829268292686,-6.2804878048780495,15.060975609756099
10_41_11_064,0.0,8.0,-2.0,0.0,0.0,-1.0,-7.0,1.0,0.796875,0.1611328125,0.34326171875,14.573170731707318,-0.6707317073170732,14.756097560975611
10_41_11_064,9.0,2.0,2.0,2.0,-3.0,3.0,-8.0,3.0,0.80224609375,0.18359375,0.3564453125,15.000000000000002,4.51219512195122,13.658536585365855
10_41_11_064,-1.0,4.0,14.0,1.0,4.0,7.0,8.0,0.0,0.8212890625,0.2099609375,0.37060546875,16.951219512195124,7.8048780487804885,13.719512195121952
10_41_11_064,-11.0,-31.0,-3.0,0.0,-1.0,-14.0,-8.0,6.0,0.82470703125,0.2021484375,0.3837890625,24.81707317073171,9.817073170731708,13.414634146341465
10_41_11_064,6.0,-3.0,-1.0,6.0,-4.0,2.0,8.0,18.0,0.81396484375,0.1708984375,0.435546875,34.207317073170735,14.085365853658537,11.52439024390244
10_41_11_064,8.0,-3.0,-10.0,-3.0,2.0,-4.0,23.0,5.0,0.8017578125,0.14404296875,0.458984375,40.60975609756098,22.195121951219512,10.121951219512196
10_41_11_064,21.0,-12.0,2.0,-8.0,-8.0,0.0,5.0,2.0,0.7763671875,0.138671875,0.44482421875,32.5,29.146341463414636,10.853658536585368
10_41_11_064,-6.0,53.0,6.0,4.0,7.0,0.0,-7.0,4.0,0.74267578125,0.17041015625,0.4609375,24.32926829268293,36.09756097560976,9.878048780487806
10_41_11_100,-17.0,-21.0,-5.0,-5.0,-3.0,-4.0,-7.0,-5.0,0.87841796875,0.232421875,0.2900390625,10.670731707317074,-14.51219512195122,16.70731707317073
10_41_11_100,18.0,21.0,7.0,2.0,1.0,2.0,-5.0,4.0,0.87890625,0.22216796875,0.31591796875,16.76829268292683,-12.865853658536587,12.01219512195122
10_41_11_100,-9.0,-65.0,-9.0,-5.0,-1.0,4.0,-1.0,-14.0,0.841796875,0.21142578125,0.33544921875,19.81707317073171,-10.060975609756099,12.378048780487806
10_41_11_100,-4.0,1.0,-12.0,-1.0,-6.0,-2.0,-7.0,-2.0,0.8115234375,0.1630859375,0.33642578125,20.426829268292686,-6.2804878048780495,15.060975609756099
10_41_11_100,-12.0,-13.0,-10.0,-8.0,7.0,-3.0,-3.0,2.0,0.796875,0.1611328125,0.34326171875,14.573170731707318,-0.6707317073170732,14.756097560975611
10_41_11_100,13.0,-24.0,1.0,10.0,2.0,-1.0,-5.0,-5.0,0.80224609375,0.18359375,0.3564453125,15.000000000000002,4.51219512195122,13.658536585365855
10_41_11_100,-66.0,12.0,2.0,-14.0,-4.0,-1.0,-2.0,-14.0,0.8212890625,0.2099609375,0.37060546875,16.951219512195124,7.8048780487804885,13.719512195121952
10_41_11_100,24.0,27.0,6.0,5.0,3.0,-5.0,2.0,6.0,0.82470703125,0.2021484375,0.3837890625,24.81707317073171,9.817073170731708,13.414634146341465
10_41_11_100,0.0,8.0,-2.0,0.0,0.0,-1.0,-7.0,1.0,0.81396484375,0.1708984375,0.435546875,34.207317073170735,14.085365853658537,11.52439024390244
10_41_11_100,9.0,2.0,2.0,2.0,-3.0,3.0,-8.0,3.0,0.8017578125,0.14404296875,0.458984375,40.60975609756098,22.195121951219512,10.121951219512196
10_41_11_151,2.0,18.0,6.0,0.0,2.0,0.0,-3.0,-5.0,0.85498046875,0.197265625,0.31103515625,6.585365853658537,-18.29268292682927,23.353658536585368
10_41_11_151,5.0,-28.0,-4.0,-4.0,0.0,-1.0,7.0,0.0,0.8466796875,0.216796875,0.28173828125,6.829268292682928,-15.914634146341465,21.219512195121954
10_41_11_151,5.0,15.0,-3.0,5.0,4.0,-3.0,-6.0,5.0,0.87841796875,0.232421875,0.2900390625,10.670731707317074,-14.51219512195122,16.70731707317073
10_41_11_151,-2.0,1.0,4.0,4.0,2.0,-2.0,-9.0,-3.0,0.87890625,0.22216796875,0.31591796875,16.76829268292683,-12.865853658536587,12.01219512195122
10_41_11_151,-4.0,25.0,6.0,-7.0,0.0,3.0,11.0,-1.0,0.841796875,0.21142578125,0.33544921875,19.81707317073171,-10.060975609756099,12.378048780487806
10_41_11_151,-67.0,42.0,0.0,-3.0,-5.0,-3.0,-8.0,-25.0,0.8115234375,0.1630859375,0.33642578125,20.426829268292686,-6.2804878048780495,15.060975609756099
10_41_11_151,5.0,-48.0,-5.0,0.0,0.0,3.0,13.0,0.0,0.796875,0.1611328125,0.34326171875,14.573170731707318,-0.6707317073170732,14.756097560975611
10_41_11_151,0.0,3.0,-4.0,-2.0,1.0,-3.0,12.0,-3.0,0.80224609375,0.18359375,0.3564453125,15.000000000000002,4.51219512195122,13.658536585365855
10_41_11_151,-5.0,-7.0,12.0,-15.0,-8.0,-4.0,-70.0,-16.0,0.8212890625,0.2099609375,0.37060546875,16.951219512195124,7.8048780487804885,13.719512195121952
10_41_11_151,6.0,-5.0,-7.0,6.0,4.0,2.0,43.0,6.0,0.82470703125,0.2021484375,0.3837890625,24.81707317073171,9.817073170731708,13.414634146341465
10_41_11_238,-17.0,-77.0,5.0,-4.0,0.0,-3.0,-3.0,3.0,0.89013671875,0.18310546875,0.31005859375,5.914634146341464,-19.75609756097561,20.243902439024392
10_41_11_238,4.0,6.0,-9.0,0.0,1.0,-5.0,2.0,1.0,0.85498046875,0.197265625,0.31103515625,6.585365853658537,-18.29268292682927,23.353658536585368
10_41_11_238,2.0,18.0,6.0,0.0,2.0,0.0,-3.0,-5.0,0.8466796875,0.216796875,0.28173828125,6.829268292682928,-15.914634146341465,21.219512195121954
10_41_11_238,5.0,-28.0,-4.0,-4.0,0.0,-1.0,7.0,0.0,0.87841796875,0.232421875,0.2900390625,10.670731707317074,-14.51219512195122,16.70731707317073
10_41_11_238,5.0,15.0,-3.0,5.0,4.0,-3.0,-6.0,5.0,0.87890625,0.22216796875,0.31591796875,16.76829268292683,-12.865853658536587,12.01219512195122
10_41_11_238,-2.0,1.0,4.0,4.0,2.0,-2.0,-9.0,-3.0,0.841796875,0.21142578125,0.33544921875,19.81707317073171,-10.060975609756099,12.378048780487806
10_41_11_238,-4.0,25.0,6.0,-7.0,0.0,3.0,11.0,-1.0,0.8115234375,0.1630859375,0.33642578125,20.426829268292686,-6.2804878048780495,15.060975609756099
10_41_11_238,-67.0,42.0,0.0,-3.0,-5.0,-3.0,-8.0,-25.0,0.796875,0.1611328125,0.34326171875,14.573170731707318,-0.6707317073170732,14.756097560975611
10_41_11_238,5.0,-48.0,-5.0,0.0,0.0,3.0,13.0,0.0,0.80224609375,0.18359375,0.3564453125,15.000000000000002,4.51219512195122,13.658536585365855
10_41_11_238,0.0,3.0,-4.0,-2.0,1.0,-3.0,12.0,-3.0,0.8212890625,0.2099609375,0.37060546875,16.951219512195124,7.8048780487804885,13.719512195121952
10_41_11_292,19.0,-5.0,2.0,-5.0,-3.0,-1.0,-5.0,3.0,0.8857421875,0.16162109375,0.31591796875,1.524390243902439,-12.682926829268293,25.000000000000004
10_41_11_292,0.0,-9.0,-1.0,2.0,0.0,2.0,-6.0,-8.0,0.92919921875,0.1640625,0.30859375,1.1585365853658538,-21.03658536585366,19.512195121951223
10_41_11_292,1.0,-14.0,-4.0,-5.0,-1.0,-5.0,-5.0,-6.0,0.89013671875,0.18310546875,0.31005859375,5.914634146341464,-19.75609756097561,20.243902439024392
10_41_11_292,1.0,-11.0,-3.0,-2.0,0.0,-4.0,-1.0,5.0,0.85498046875,0.197265625,0.31103515625,6.585365853658537,-18.29268292682927,23.353658536585368
10_41_11_292,-8.0,-5.0,-3.0,0.0,-2.0,-3.0,-6.0,10.0,0.8466796875,0.216796875,0.28173828125,6.829268292682928,-15.914634146341465,21.219512195121954
10_41_11_292,2.0,15.0,14.0,3.0,-1.0,4.0,5.0,1.0,0.87841796875,0.232421875,0.2900390625,10.670731707317074,-14.51219512195122,16.70731707317073
10_41_11_292,5.0,-24.0,-16.0,-4.0,-1.0,4.0,6.0,-14.0,0.87890625,0.22216796875,0.31591796875,16.76829268292683,-12.865853658536587,12.01219512195122
10_41_11_292,-29.0,-36.0,-20.0,-8.0,-1.0,1.0,-2.0,-9.0,0.841796875,0.21142578125,0.33544921875,19.81707317073171,-10.060975609756099,12.378048780487806
10_41_11_292,-17.0,-77.0,5.0,-4.0,0.0,-3.0,-3.0,3.0,0.8115234375,0.1630859375,0.33642578125,20.426829268292686,-6.2804878048780495,15.060975609756099
10_41_11_292,4.0,6.0,-9.0,0.0,1.0,-5.0,2.0,1.0,0.796875,0.1611328125,0.34326171875,14.573170731707318,-0.6707317073170732,14.756097560975611
10_41_11_333,0.0,52.0,4.0,-5.0,-3.0,-1.0,-8.0,-14.0,0.8916015625,0.15234375,0.35546875,7.743902439024391,-7.8048780487804885,23.475609756097562
10_41_11_333,8.0,22.0,7.0,8.0,-1.0,-2.0,8.0,9.0,0.8857421875,0.16162109375,0.31591796875,1.524390243902439,-12.682926829268293,25.000000000000004
10_41_11_333,16.0,31.0,1.0,7.0,3.0,-4.0,-4.0,14.0,0.92919921875,0.1640625,0.30859375,1.1585365853658538,-21.03658536585366,19.512195121951223
10_41_11_333,-15.0,-31.0,-5.0,-5.0,-5.0,-3.0,-12.0,-23.0,0.89013671875,0.18310546875,0.31005859375,5.914634146341464,-19.75609756097561,20.243902439024392
10_41_11_333,-13.0,16.0,11.0,3.0,-3.0,4.0,2.0,-10.0,0.85498046875,0.197265625,0.31103515625,6.585365853658537,-18.29268292682927,23.353658536585368
10_41_11_333,-1.0,24.0,-21.0,1.0,-2.0,-8.0,-4.0,0.0,0.8466796875,0.216796875,0.28173828125,6.829268292682928,-15.914634146341465,21.219512195121954
10_41_11_333,19.0,-5.0,2.0,-5.0,-3.0,-1.0,-5.0,3.0,0.87841796875,0.232421875,0.2900390625,10.670731707317074,-14.51219512195122,16.70731707317073
10_41_11_333,0.0,-9.0,-1.0,2.0,0.0,2.0,-6.0,-8.0,0.87890625,0.22216796875,0.31591796875,16.76829268292683,-12.865853658536587,12.01219512195122
10_41_11_333,1.0,-14.0,-4.0,-5.0,-1.0,-5.0,-5.0,-6.0,0.841796875,0.21142578125,0.33544921875,19.81707317073171,-10.060975609756099,12.378048780487806
10_41_11_333,1.0,-11.0,-3.0,-2.0,0.0,-4.0,-1.0,5.0,0.8115234375,0.1630859375,0.33642578125,20.426829268292686,-6.2804878048780495,15.060975609756099
10_41_11_390,-5.0,5.0,-4.0,4.0,5.0,-1.0,0.0,27.0,0.93359375,0.09130859375,0.38916015625,3.414634146341464,-0.7317073170731708,17.439024390243905
10_41_11_390,9.0,-47.0,-9.0,-2.0,0.0,1.0,0.0,5.0,0.8955078125,0.0791015625,0.3974609375,18.04878048780488,-5.853658536585367,22.621951219512198
10_41_11_390,-19.0,36.0,5.0,5.0,-2.0,-1.0,5.0,-20.0,0.884765625,0.09619140625,0.3564453125,12.073170731707318,-7.073170731707318,22.500000000000004
10_41_11_390,11.0,-83.0,-17.0,-19.0,-11.0,-3.0,3.0,-9.0,0.8916015625,0.15234375,0.35546875,7.743902439024391,-7.8048780487804885,23.475609756097562
10_41_11_390,2.0,10.0,-12.0,2.0,1.0,0.0,-21.0,19.0,0.8857421875,0.16162109375,0.31591796875,1.524390243902439,-12.682926829268293,25.000000000000004
10_41_11_390,8.0,15.0,-4.0,-2.0,6.0,3.0,-4.0,34.0,0.92919921875,0.1640625,0.30859375,1.1585365853658538,-21.03658536585366,19.512195121951223
10_41_11_390,1.0,-9.0,4.0,4.0,-7.0,-2.0,-1.0,14.0,0.89013671875,0.18310546875,0.31005859375,5.914634146341464,-19.75609756097561,20.243902439024392
10_41_11_390,-4.0,1.0,-7.0,-7.0,-3.0,2.0,5.0,13.0,0.85498046875,0.197265625,0.31103515625,6.585365853658537,-18.29268292682927,23.353658536585368
10_41_11_390,8.0,3.0,3.0,0.0,0.0,0.0,-6.0,6.0,0.8466796875,0.216796875,0.28173828125,6.829268292682928,-15.914634146341465,21.219512195121954
10_41_11_445,5.0,0.0,-4.0,2.0,-2.0,2.0,4.0,3.0,0.92822265625,-0.0087890625,0.3681640625,-16.82926829268293,0.24390243902439027,19.695121951219512
10_41_11_445,8.0,-9.0,-6.0,-1.0,-1.0,2.0,-1.0,-18.0,0.95068359375,0.03564453125,0.3916015625,-4.51219512195122,-3.9024390243902443,18.231707317073173
10_41_11_445,-4.0,11.0,6.0,-5.0,-2.0,0.0,-2.0,1.0,0.93359375,0.09130859375,0.38916015625,3.414634146341464,-0.7317073170731708,17.439024390243905
10_41_11_445,-20.0,-24.0,4.0,-13.0,1.0,-12.0,-74.0,-39.0,0.8955078125,0.0791015625,0.3974609375,18.04878048780488,-5.853658536585367,22.621951219512198
10_41_11_445,2.0,4.0,4.0,0.0,7.0,23.0,26.0,4.0,0.884765625,0.09619140625,0.3564453125,12.073170731707318,-7.073170731707318,22.500000000000004
10_41_11_445,8.0,2.0,-6.0,-6.0,1.0,-12.0,-3.0,6.0,0.8916015625,0.15234375,0.35546875,7.743902439024391,-7.8048780487804885,23.475609756097562
10_41_11_445,8.0,-2.0,4.0,5.0,2.0,-1.0,-2.0,-7.0,0.8857421875,0.16162109375,0.31591796875,1.524390243902439,-12.682926829268293,25.000000000000004
10_41_11_445,-2.0,-1.0,-2.0,3.0,0.0,-2.0,-1.0,-7.0,0.92919921875,0.1640625,0.30859375,1.1585365853658538,-21.03658536585366,19.512195121951223
10_41_11_445,-5.0,5.0,-4.0,4.0,5.0,-1.0,0.0,27.0,0.89013671875,0.18310546875,0.31005859375,5.914634146341464,-19.75609756097561,20.243902439024392
10_41_11_485,-9.0,-46.0,-6.0,-4.0,-3.0,9.0,-3.0,-8.0,0.87744140625,0.1376953125,0.39111328125,10.670731707317074,-5.365853658536586,12.865853658536587
10_41_11_485,2.0,15.0,27.0,-1.0,0.0,1.0,-6.0,-44.0,0.8857421875,0.07470703125,0.40380859375,9.51219512195122,-0.9756097560975611,18.78048780487805
10_41_11_485,-8.0,10.0,-22.0,-6.0,-10.0,-10.0,23.0,-14.0,0.89794921875,-0.013671875,0.4208984375,6.646341463414635,2.3170731707317076,18.29268292682927
10_41_11_485,15.0,-1.0,-7.0,2.0,3.0,7.0,-15.0,10.0,0.912109375,-0.04150390625,0.38671875,-1.829268292682927,0.9756097560975611,19.75609756097561
10_41_11_485,16.0,14.0,2.0,-8.0,4.0,2.0,5.0,21.0,0.92822265625,-0.0087890625,0.3681640625,-16.82926829268293,0.24390243902439027,19.695121951219512
10_41_11_485,-40.0,-30.0,-4.0,-5.0,-8.0,0.0,11.0,-24.0,0.95068359375,0.03564453125,0.3916015625,-4.51219512195122,-3.9024390243902443,18.231707317073173
10_41_11_485,4.0,28.0,-5.0,2.0,-2.0,-3.0,-11.0,-6.0,0.93359375,0.09130859375,0.38916015625,3.414634146341464,-0.7317073170731708,17.439024390243905
10_41_11_485,3.0,17.0,5.0,7.0,-3.0,-4.0,-5.0,8.0,0.8955078125,0.0791015625,0.3974609375,18.04878048780488,-5.853658536585367,22.621951219512198
10_41_11_485,14.0,-7.0,1.0,-15.0,-5.0,1.0,39.0,-6.0,0.884765625,0.09619140625,0.3564453125,12.073170731707318,-7.073170731707318,22.500000000000004
10_41_11_485,-18.0,-3.0,-5.0,-9.0,3.0,4.0,-23.0,-11.0,0.8916015625,0.15234375,0.35546875,7.743902439024391,-7.8048780487804885,23.475609756097562
10_41_11_534,-14.0,5.0,7.0,13.0,8.0,2.0,-8.0,7.0,0.87744140625,0.1376953125,0.39111328125,10.670731707317074,-5.365853658536586,12.865853658536587
10_41_11_534,0.0,-7.0,-8.0,3.0,-8.0,-6.0,9.0,-15.0,0.8857421875,0.07470703125,0.40380859375,9.51219512195122,-0.9756097560975611,18.78048780487805
10_41_11_534,9.0,23.0,9.0,5.0,5.0,1.0,-10.0,15.0,0.89794921875,-0.013671875,0.4208984375,6.646341463414635,2.3170731707317076,18.29268292682927
10_41_11_534,-9.0,-46.0,-6.0,-4.0,-3.0,9.0,-3.0,-8.0,0.912109375,-0.04150390625,0.38671875,-1.829268292682927,0.9756097560975611,19.75609756097561
10_41_11_534,2.0,15.0,27.0,-1.0,0.0,1.0,-6.0,-44.0,0.92822265625,-0.0087890625,0.3681640625,-16.82926829268293,0.24390243902439027,19.695121951219512
10_41_11_534,-8.0,10.0,-22.0,-6.0,-10.0,-10.0,23.0,-14.0,0.95068359375,0.03564453125,0.3916015625,-4.51219512195122,-3.9024390243902443,18.231707317073173
10_41_11_534,15.0,-1.0,-7.0,2.0,3.0,7.0,-15.0,10.0,0.93359375,0.09130859375,0.38916015625,3.414634146341464,-0.7317073170731708,17.439024390243905
10_41_11_534,16.0,14.0,2.0,-8.0,4.0,2.0,5.0,21.0,0.8955078125,0.0791015625,0.3974609375,18.04878048780488,-5.853658536585367,22.621951219512198
10_41_11_534,-40.0,-30.0,-4.0,-5.0,-8.0,0.0,11.0,-24.0,0.884765625,0.09619140625,0.3564453125,12.073170731707318,-7.073170731707318,22.500000000000004
10_41_11_601,-26.0,-33.0,40.0,24.0,6.0,1.0,4.0,52.0,0.91748046875,-0.01318359375,0.3330078125,28.04878048780488,-11.219512195121952,18.53658536585366
10_41_11_601,8.0,13.0,-1.0,-41.0,2.0,4.0,9.0,-3.0,0.9306640625,-0.0078125,0.349609375,16.34146341463415,-14.878048780487806,10.548780487804878
10_41_11_601,48.0,13.0,-15.0,-26.0,-5.0,-6.0,-24.0,26.0,0.93310546875,0.04052734375,0.3642578125,-7.743902439024391,-14.878048780487806,8.719512195121952
10_41_11_601,-34.0,-7.0,-20.0,4.0,-15.0,-12.0,-47.0,-36.0,0.8955078125,0.07421875,0.388671875,7.439024390243903,-11.097560975609756,12.682926829268293
10_41_11_601,-15.0,-2.0,4.0,-3.0,-7.0,-18.0,-16.0,15.0,0.87744140625,0.1376953125,0.39111328125,10.670731707317074,-5.365853658536586,12.865853658536587
10_41_11_601,24.0,5.0,9.0,7.0,3.0,7.0,51.0,28.0,0.8857421875,0.07470703125,0.40380859375,9.51219512195122,-0.9756097560975611,18.78048780487805
10_41_11_601,-14.0,6.0,3.0,13.0,5.0,5.0,18.0,2.0,0.89794921875,-0.013671875,0.4208984375,6.646341463414635,2.3170731707317076,18.29268292682927
10_41_11_601,19.0,34.0,-5.0,-14.0,-8.0,-2.0,2.0,19.0,0.912109375,-0.04150390625,0.38671875,-1.829268292682927,0.9756097560975611,19.75609756097561
10_41_11_601,20.0,-3.0,-10.0,-9.0,0.0,-6.0,0.0,-30.0,0.92822265625,-0.0087890625,0.3681640625,-16.82926829268293,0.24390243902439027,19.695121951219512
10_41_11_601,-20.0,-54.0,1.0,1.0,-2.0,4.0,4.0,-43.0,0.95068359375,0.03564453125,0.3916015625,-4.51219512195122,-3.9024390243902443,18.231707317073173
10_41_11_640,-14.0,-7.0,-4.0,-14.0,1.0,-11.0,-61.0,-29.0,0.94287109375,0.146484375,0.25048828125,-3.1097560975609757,-10.182926829268293,7.01219512195122
10_41_11_640,-13.0,-12.0,6.0,-7.0,-9.0,-18.0,-99.0,-13.0,0.9794921875,0.046875,0.18359375,51.463414634146346,-5.487804878048781,18.84146341463415
10_41_11_640,-12.0,-10.0,-5.0,-6.0,1.0,1.0,-6.0,-4.0,0.88623046875,0.044921875,0.29052734375,47.19512195121952,-7.073170731707318,21.34146341463415
10_41_11_640,4.0,-4.0,-32.0,2.0,1.0,6.0,16.0,0.0,0.91748046875,-0.01318359375,0.3330078125,28.04878048780488,-11.219512195121952,18.53658536585366
10_41_11_640,-4.0,-7.0,17.0,4.0,-1.0,2.0,12.0,0.0,0.9306640625,-0.0078125,0.349609375,16.34146341463415,-14.878048780487806,10.548780487804878
10_41_11_640,3.0,15.0,-5.0,9.0,-7.0,1.0,6.0,-1.0,0.93310546875,0.04052734375,0.3642578125,-7.743902439024391,-14.878048780487806,8.719512195121952
10_41_11_640,8.0,6.0,1.0,7.0,3.0,0.0,5.0,6.0,0.8955078125,0.07421875,0.388671875,7.439024390243903,-11.097560975609756,12.682926829268293
10_41_11_640,-7.0,-13.0,-10.0,-20.0,2.0,1.0,9.0,-7.0,0.87744140625,0.1376953125,0.39111328125,10.670731707317074,-5.365853658536586,12.865853658536587
10_41_11_640,1.0,5.0,-1.0,3.0,5.0,2.0,22.0,-7.0,0.8857421875,0.07470703125,0.40380859375,9.51219512195122,-0.9756097560975611,18.78048780487805
10_41_11_640,3.0,9.0,-17.0,41.0,-8.0,-10.0,17.0,-13.0,0.89794921875,-0.013671875,0.4208984375,6.646341463414635,2.3170731707317076,18.29268292682927
10_41_11_685,16.0,12.0,-1.0,9.0,-2.0,19.0,-9.0,19.0,0.912109375,-0.1162109375,0.3759765625,18.597560975609756,-15.670731707317074,12.256097560975611
10_41_11_685,21.0,17.0,5.0,12.0,-16.0,-19.0,-5.0,32.0,0.8994140625,-0.0869140625,0.38330078125,4.146341463414634,-15.609756097560977,12.317073170731708
10_41_11_685,-37.0,-13.0,5.0,-15.0,-1.0,-7.0,-7.0,-68.0,0.876953125,0.029296875,0.33251953125,-3.7195121951219514,-15.609756097560977,5.731707317073171
10_41_11_685,-14.0,-3.0,7.0,-10.0,-9.0,-6.0,-5.0,15.0,0.94287109375,0.146484375,0.25048828125,-3.1097560975609757,-10.182926829268293,7.01219512195122
10_41_11_685,14.0,6.0,9.0,1.0,15.0,-4.0,-2.0,17.0,0.9794921875,0.046875,0.18359375,51.463414634146346,-5.487804878048781,18.84146341463415
10_41_11_685,11.0,2.0,2.0,12.0,0.0,7.0,2.0,-7.0,0.88623046875,0.044921875,0.29052734375,47.19512195121952,-7.073170731707318,21.34146341463415
10_41_11_685,-7.0,6.0,2.0,11.0,2.0,19.0,6.0,-2.0,0.91748046875,-0.01318359375,0.3330078125,28.04878048780488,-11.219512195121952,18.53658536585366
10_41_11_685,22.0,17.0,-11.0,-14.0,2.0,-12.0,6.0,5.0,0.9306640625,-0.0078125,0.349609375,16.34146341463415,-14.878048780487806,10.548780487804878
10_41_11_685,12.0,-5.0,-12.0,-8.0,-7.0,6.0,20.0,0.0,0.93310546875,0.04052734375,0.3642578125,-7.743902439024391,-14.878048780487806,8.719512195121952
10_41_11_685,1.0,4.0,1.0,7.0,4.0,-4.0,-19.0,7.0,0.8955078125,0.07421875,0.388671875,7.439024390243903,-11.097560975609756,12.682926829268293
10_41_11_751,10.0,11.0,-9.0,-29.0,0.0,2.0,-1.0,3.0,0.884765625,0.2021484375,0.32958984375,30.243902439024392,-15.975609756097562,9.817073170731708
10_41_11_751,12.0,12.0,-11.0,-9.0,5.0,5.0,25.0,-9.0,0.939453125,-0.0439453125,0.3701171875,48.10975609756098,-17.682926829268293,10.975609756097562
10_41_11_751,-2.0,-16.0,-23.0,-4.0,-3.0,-1.0,8.0,8.0,0.912109375,-0.1162109375,0.3759765625,18.597560975609756,-15.670731707317074,12.256097560975611
10_41_11_751,-39.0,5.0,11.0,6.0,-9.0,-15.0,-70.0,-3.0,0.8994140625,-0.0869140625,0.38330078125,4.146341463414634,-15.609756097560977,12.317073170731708
10_41_11_751,8.0,-7.0,-9.0,2.0,2.0,2.0,5.0,-22.0,0.876953125,0.029296875,0.33251953125,-3.7195121951219514,-15.609756097560977,5.731707317073171
10_41_11_751,-12.0,-22.0,-19.0,-19.0,6.0,-6.0,15.0,5.0,0.94287109375,0.146484375,0.25048828125,-3.1097560975609757,-10.182926829268293,7.01219512195122
10_41_11_751,16.0,12.0,-1.0,9.0,-2.0,19.0,-9.0,19.0,0.9794921875,0.046875,0.18359375,51.463414634146346,-5.487804878048781,18.84146341463415
10_41_11_751,21.0,17.0,5.0,12.0,-16.0,-19.0,-5.0,32.0,0.88623046875,0.044921875,0.29052734375,47.19512195121952,-7.073170731707318,21.34146341463415
10_41_11_751,-37.0,-13.0,5.0,-15.0,-1.0,-7.0,-7.0,-68.0,0.91748046875,-0.01318359375,0.3330078125,28.04878048780488,-11.219512195121952,18.53658536585366
10_41_11_751,-14.0,-3.0,7.0,-10.0,-9.0,-6.0,-5.0,15.0,0.9306640625,-0.0078125,0.349609375,16.34146341463415,-14.878048780487806,10.548780487804878
10_41_11_790,-58.0,-31.0,21.0,6.0,-7.0,1.0,46.0,-3.0,0.97314453125,-0.1611328125,0.369140625,13.658536585365855,-13.841463414634148,12.317073170731708
10_41_11_790,4.0,6.0,-42.0,3.0,4.0,-2.0,-51.0,-3.0,0.91845703125,-0.109375,0.36962890625,-8.841463414634147,-19.512195121951223,14.878048780487806
10_41_11_790,8.0,1.0,13.0,-6.0,-7.0,-18.0,-47.0,2.0,0.884765625,0.2021484375,0.32958984375,30.243902439024392,-15.975609756097562,9.817073170731708
10_41_11_790,-15.0,-28.0,-31.0,-20.0,4.0,1.0,40.0,-9.0,0.939453125,-0.0439453125,0.3701171875,48.10975609756098,-17.682926829268293,10.975609756097562
10_41_11_790,7.0,-2.0,0.0,-11.0,-3.0,1.0,11.0,7.0,0.912109375,-0.1162109375,0.3759765625,18.597560975609756,-15.670731707317074,12.256097560975611
10_41_11_790,-11.0,-24.0,-12.0,-5.0,-5.0,0.0,-12.0,-7.0,0.8994140625,-0.0869140625,0.38330078125,4.146341463414634,-15.609756097560977,12.317073170731708
10_41_11_790,8.0,16.0,11.0,1.0,-1.0,-2.0,8.0,3.0,0.876953125,0.029296875,0.33251953125,-3.7195121951219514,-15.609756097560977,5.731707317073171
10_41_11_790,-4.0,15.0,1.0,7.0,-1.0,5.0,21.0,-3.0,0.94287109375,0.146484375,0.25048828125,-3.1097560975609757,-10.182926829268293,7.01219512195122
10_41_11_790,23.0,9.0,-3.0,10.0,7.0,13.0,33.0,6.0,0.9794921875,0.046875,0.18359375,51.463414634146346,-5.487804878048781,18.84146341463415
10_41_11_790,7.0,-4.0,43.0,-19.0,-17.0,-8.0,-20.0,35.0,0.88623046875,0.044921875,0.29052734375,47.19512195121952,-7.073170731707318,21.34146341463415
10_41_11_843,14.0,-3.0,13.0,-16.0,-9.0,-2.0,3.0,33.0,0.986328125,0.0166015625,0.33251953125,28.414634146341466,-3.1097560975609757,13.231707317073171
10_41_11_843,-6.0,35.0,-24.0,-9.0,-1.0,-6.0,-23.0,-26.0,0.97314453125,-0.1611328125,0.369140625,13.658536585365855,-13.841463414634148,12.317073170731708
10_41_11_843,-5.0,2.0,52.0,24.0,11.0,2.0,17.0,10.0,0.91845703125,-0.109375,0.36962890625,-8.841463414634147,-19.512195121951223,14.878048780487806
10_41_11_843,5.0,17.0,0.0,7.0,17.0,17.0,36.0,-4.0,0.884765625,0.2021484375,0.32958984375,30.243902439024392,-15.975609756097562,9.817073170731708
10_41_11_843,-8.0,-38.0,18.0,-1.0,0.0,0.0,-13.0,0.0,0.939453125,-0.0439453125,0.3701171875,48.10975609756098,-17.682926829268293,10.975609756097562
10_41_11_843,42.0,62.0,17.0,0.0,5.0,3.0,5.0,52.0,0.912109375,-0.1162109375,0.3759765625,18.597560975609756,-15.670731707317074,12.256097560975611
10_41_11_843,1.0,-25.0,-11.0,-28.0,-17.0,-5.0,-74.0,-22.0,0.8994140625,-0.0869140625,0.38330078125,4.146341463414634,-15.609756097560977,12.317073170731708
10_41_11_843,-58.0,-31.0,21.0,6.0,-7.0,1.0,46.0,-3.0,0.876953125,0.029296875,0.33251953125,-3.7195121951219514,-15.609756097560977,5.731707317073171
10_41_11_843,4.0,6.0,-42.0,3.0,4.0,-2.0,-51.0,-3.0,0.94287109375,0.146484375,0.25048828125,-3.1097560975609757,-10.182926829268293,7.01219512195122
10_41_11_900,5.0,33.0,22.0,-15.0,-10.0,-14.0,-23.0,-35.0,1.0009765625,0.07958984375,0.27490234375,16.463414634146343,6.036585365853659,5.914634146341464
10_41_11_900,10.0,29.0,-36.0,-51.0,0.0,6.0,15.0,16.0,0.95458984375,-0.01171875,0.3076171875,3.414634146341464,0.9756097560975611,11.76829268292683
10_41_11_900,3.0,0.0,34.0,12.0,6.0,17.0,82.0,-9.0,0.9599609375,0.01513671875,0.341796875,-3.1097560975609757,0.24390243902439027,16.646341463414636
10_41_11_900,28.0,0.0,-28.0,0.0,-6.0,32.0,96.0,-1.0,0.95068359375,0.1181640625,0.2978515625,14.51219512195122,-0.3658536585365854,15.975609756097562
10_41_11_900,-21.0,12.0,65.0,54.0,-6.0,-40.0,-113.0,52.0,0.986328125,0.0166015625,0.33251953125,28.414634146341466,-3.1097560975609757,13.231707317073171
10_41_11_900,5.0,-44.0,14.0,-10.0,10.0,-10.0,68.0,-43.0,0.97314453125,-0.1611328125,0.369140625,13.658536585365855,-13.841463414634148,12.317073170731708
10_41_11_900,-14.0,26.0,-15.0,-35.0,20.0,-18.0,-123.0,3.0,0.91845703125,-0.109375,0.36962890625,-8.841463414634147,-19.512195121951223,14.878048780487806
10_41_11_900,29.0,51.0,7.0,-14.0,-24.0,17.0,127.0,20.0,0.884765625,0.2021484375,0.32958984375,30.243902439024392,-15.975609756097562,9.817073170731708
10_41_11_900,-5.0,-43.0,-1.0,5.0,18.0,20.0,-18.0,-36.0,0.939453125,-0.0439453125,0.3701171875,48.10975609756098,-17.682926829268293,10.975609756097562
10_41_11_900,4.0,22.0,2.0,23.0,-2.0,2.0,8.0,-11.0,0.912109375,-0.1162109375,0.3759765625,18.597560975609756,-15.670731707317074,12.256097560975611
10_41_11_950,-7.0,50.0,99.0,24.0,14.0,-3.0,-128.0,-37.0,0.95947265625,0.0302734375,0.32666015625,-1.402439024390244,3.963414634146342,7.195121951219513
10_41_11_950,22.0,-88.0,-21.0,-3.0,-33.0,-16.0,-15.0,-22.0,0.9853515625,0.16357421875,0.28076171875,3.780487804878049,6.7682926829268295,8.719512195121952
10_41_11_950,-42.0,-128.0,14.0,26.0,11.0,12.0,33.0,44.0,1.0009765625,0.07958984375,0.27490234375,16.463414634146343,6.036585365853659,5.914634146341464
10_41_11_950,-50.0,55.0,48.0,-20.0,25.0,6.0,99.0,1.0,0.95458984375,-0.01171875,0.3076171875,3.414634146341464,0.9756097560975611,11.76829268292683
10_41_11_950,0.0,-85.0,-56.0,-62.0,-9.0,20.0,72.0,-45.0,0.9599609375,0.01513671875,0.341796875,-3.1097560975609757,0.24390243902439027,16.646341463414636
10_41_11_950,6.0,52.0,26.0,17.0,6.0,-46.0,-44.0,32.0,0.95068359375,0.1181640625,0.2978515625,14.51219512195122,-0.3658536585365854,15.975609756097562
10_41_11_950,10.0,45.0,-27.0,-21.0,-37.0,-29.0,-128.0,-6.0,0.986328125,0.0166015625,0.33251953125,28.414634146341466,-3.1097560975609757,13.231707317073171
10_41_11_950,-15.0,114.0,10.0,15.0,-3.0,8.0,127.0,-21.0,0.97314453125,-0.1611328125,0.369140625,13.658536585365855,-13.841463414634148,12.317073170731708
10_41_11_950,-2.0,-128.0,-54.0,2.0,-2.0,36.0,34.0,-22.0,0.91845703125,-0.109375,0.36962890625,-8.841463414634147,-19.512195121951223,14.878048780487806
10_41_11_950,6.0,-93.0,-26.0,20.0,18.0,-9.0,2.0,79.0,0.884765625,0.2021484375,0.32958984375,30.243902439024392,-15.975609756097562,9.817073170731708
10_41_11_998,0.0,127.0,-28.0,22.0,-13.0,27.0,-3.0,22.0,0.9443359375,-0.05908203125,0.2841796875,2.6219512195121952,5.487804878048781,5.487804878048781
10_41_11_998,-14.0,3.0,-34.0,-52.0,2.0,-16.0,105.0,35.0,0.947265625,-0.0498046875,0.306640625,15.243902439024392,6.341463414634147,4.573170731707317
10_41_11_998,9.0,127.0,29.0,-13.0,-20.0,-45.0,-128.0,68.0,0.97021484375,-0.03173828125,0.359375,16.28048780487805,8.292682926829269,7.195121951219513
10_41_11_998,-30.0,73.0,-31.0,-1.0,-9.0,29.0,118.0,-63.0,0.95947265625,0.0302734375,0.32666015625,-1.402439024390244,3.963414634146342,7.195121951219513
10_41_11_998,-9.0,44.0,-10.0,3.0,38.0,-26.0,99.0,38.0,0.9853515625,0.16357421875,0.28076171875,3.780487804878049,6.7682926829268295,8.719512195121952
10_41_11_998,-5.0,1.0,-9.0,-10.0,-7.0,1.0,32.0,-28.0,1.0009765625,0.07958984375,0.27490234375,16.463414634146343,6.036585365853659,5.914634146341464
10_41_11_998,36.0,23.0,4.0,19.0,3.0,-11.0,94.0,29.0,0.95458984375,-0.01171875,0.3076171875,3.414634146341464,0.9756097560975611,11.76829268292683
10_41_11_998,-7.0,109.0,7.0,8.0,-26.0,-13.0,32.0,-16.0,0.9599609375,0.01513671875,0.341796875,-3.1097560975609757,0.24390243902439027,16.646341463414636
10_41_11_998,23.0,125.0,19.0,15.0,4.0,-24.0,-117.0,28.0,0.95068359375,0.1181640625,0.2978515625,14.51219512195122,-0.3658536585365854,15.975609756097562
10_41_11_998,-30.0,-39.0,-32.0,-2.0,1.0,20.0,61.0,-21.0,0.986328125,0.0166015625,0.33251953125,28.414634146341466,-3.1097560975609757,13.231707317073171
10_41_12_039,-9.0,11.0,36.0,14.0,-2.0,-39.0,52.0,-3.0,0.95361328125,0.05126953125,0.30126953125,-4.2682926829268295,11.158536585365855,0.9756097560975611
10_41_12_039,77.0,-128.0,-7.0,23.0,17.0,29.0,-26.0,-29.0,0.94921875,0.00146484375,0.349609375,2.439024390243903,7.317073170731708,2.25609756097561
10_41_12_039,-3.0,127.0,32.0,-30.0,-2.0,-43.0,-43.0,-43.0,0.91015625,-0.06201171875,0.3330078125,-3.048780487804878,6.585365853658537,3.1097560975609757
10_41_12_039,37.0,-128.0,-62.0,-51.0,10.0,5.0,-92.0,18.0,0.9443359375,-0.05908203125,0.2841796875,2.6219512195121952,5.487804878048781,5.487804878048781
10_41_12_039,48.0,-128.0,17.0,57.0,-8.0,11.0,82.0,64.0,0.947265625,-0.0498046875,0.306640625,15.243902439024392,6.341463414634147,4.573170731707317
10_41_12_039,-33.0,-128.0,6.0,7.0,17.0,2.0,18.0,12.0,0.97021484375,-0.03173828125,0.359375,16.28048780487805,8.292682926829269,7.195121951219513
10_41_12_039,-16.0,-128.0,10.0,-24.0,-4.0,-11.0,-128.0,47.0,0.95947265625,0.0302734375,0.32666015625,-1.402439024390244,3.963414634146342,7.195121951219513
10_41_12_039,31.0,127.0,-14.0,-8.0,-21.0,-8.0,22.0,-40.0,0.9853515625,0.16357421875,0.28076171875,3.780487804878049,6.7682926829268295,8.719512195121952
10_41_12_039,-54.0,-91.0,-32.0,19.0,4.0,10.0,33.0,-45.0,1.0009765625,0.07958984375,0.27490234375,16.463414634146343,6.036585365853659,5.914634146341464
10_41_12_039,17.0,-51.0,76.0,35.0,16.0,-20.0,-65.0,20.0,0.95458984375,-0.01171875,0.3076171875,3.414634146341464,0.9756097560975611,11.76829268292683
10_41_12_103,-86.0,16.0,-5.0,-5.0,13.0,-4.0,-101.0,12.0,0.90380859375,0.0400390625,0.32177734375,-11.28048780487805,11.097560975609756,1.524390243902439
10_41_12_103,-39.0,84.0,-32.0,7.0,8.0,-18.0,29.0,16.0,0.95361328125,0.05126953125,0.30126953125,-4.2682926829268295,11.158536585365855,0.9756097560975611
10_41_12_103,-13.0,-27.0,18.0,-7.0,-11.0,-50.0,-104.0,-4.0,0.94921875,0.00146484375,0.349609375,2.439024390243903,7.317073170731708,2.25609756097561
10_41_12_103,28.0,-128.0,-105.0,-26.0,-1.0,69.0,69.0,17.0,0.91015625,-0.06201171875,0.3330078125,-3.048780487804878,6.585365853658537,3.1097560975609757
10_41_12_103,-9.0,11.0,36.0,14.0,-2.0,-39.0,52.0,-3.0,0.9443359375,-0.05908203125,0.2841796875,2.6219512195121952,5.487804878048781,5.487804878048781
10_41_12_103,77.0,-128.0,-7.0,23.0,17.0,29.0,-26.0,-29.0,0.947265625,-0.0498046875,0.306640625,15.243902439024392,6.341463414634147,4.573170731707317
10_41_12_103,-3.0,127.0,32.0,-30.0,-2.0,-43.0,-43.0,-43.0,0.97021484375,-0.03173828125,0.359375,16.28048780487805,8.292682926829269,7.195121951219513
10_41_12_103,37.0,-128.0,-62.0,-51.0,10.0,5.0,-92.0,18.0,0.95947265625,0.0302734375,0.32666015625,-1.402439024390244,3.963414634146342,7.195121951219513
10_41_12_103,48.0,-128.0,17.0,57.0,-8.0,11.0,82.0,64.0,0.9853515625,0.16357421875,0.28076171875,3.780487804878049,6.7682926829268295,8.719512195121952
10_41_12_103,-33.0,-128.0,6.0,7.0,17.0,2.0,18.0,12.0,1.0009765625,0.07958984375,0.27490234375,16.463414634146343,6.036585365853659,5.914634146341464
10_41_12_152,-19.0,-60.0,-53.0,-26.0,62.0,-20.0,30.0,-44.0,0.8994140625,0.02685546875,0.39599609375,-6.341463414634147,9.26829268292683,1.2804878048780488
10_41_12_152,-38.0,77.0,30.0,60.0,-12.0,29.0,99.0,35.0,0.9208984375,0.01318359375,0.3671875,-5.3048780487804885,14.390243902439027,0.3658536585365854
10_41_12_152,29.0,-128.0,20.0,33.0,20.0,-16.0,-125.0,-9.0,0.91943359375,0.01953125,0.3203125,-7.134146341463415,12.682926829268293,0.06097560975609757
10_41_12_152,17.0,39.0,1.0,-11.0,43.0,22.0,83.0,42.0,0.90380859375,0.0400390625,0.32177734375,-11.28048780487805,11.097560975609756,1.524390243902439
10_41_12_152,-13.0,-9.0,31.0,-6.0,41.0,-1.0,-128.0,-70.0,0.95361328125,0.05126953125,0.30126953125,-4.2682926829268295,11.158536585365855,0.9756097560975611
10_41_12_152,-57.0,4.0,-41.0,-71.0,-32.0,-53.0,-128.0,12.0,0.94921875,0.00146484375,0.349609375,2.439024390243903,7.317073170731708,2.25609756097561
10_41_12_152,73.0,53.0,13.0,13.0,-104.0,23.0,-42.0,35.0,0.91015625,-0.06201171875,0.3330078125,-3.048780487804878,6.585365853658537,3.1097560975609757
10_41_12_152,-66.0,80.0,-14.0,-12.0,-80.0,-61.0,-79.0,-19.0,0.9443359375,-0.05908203125,0.2841796875,2.6219512195121952,5.487804878048781,5.487804878048781
10_41_12_152,13.0,-17.0,-4.0,15.0,-24.0,24.0,49.0,29.0,0.947265625,-0.0498046875,0.306640625,15.243902439024392,6.341463414634147,4.573170731707317
10_41_12_152,-50.0,106.0,-17.0,55.0,22.0,4.0,79.0,-94.0,0.97021484375,-0.03173828125,0.359375,16.28048780487805,8.292682926829269,7.195121951219513
10_41_12_201,-39.0,31.0,-35.0,-7.0,25.0,-41.0,-128.0,27.0,0.9375,0.02001953125,0.3828125,12.073170731707318,11.585365853658537,3.780487804878049
10_41_12_201,66.0,-1.0,3.0,39.0,-6.0,4.0,127.0,1.0,0.923828125,0.01416015625,0.31640625,2.682926829268293,8.536585365853659,3.414634146341464
10_41_12_201,19.0,5.0,-24.0,-24.0,-20.0,26.0,13.0,14.0,0.93505859375,0.02197265625,0.33984375,-2.804878048780488,7.865853658536586,-1.7682926829268295
10_41_12_201,38.0,-16.0,11.0,25.0,36.0,12.0,7.0,11.0,0.8994140625,0.02685546875,0.39599609375,-6.341463414634147,9.26829268292683,1.2804878048780488
10_41_12_201,-116.0,-128.0,15.0,-15.0,14.0,-32.0,-12.0,12.0,0.9208984375,0.01318359375,0.3671875,-5.3048780487804885,14.390243902439027,0.3658536585365854
10_41_12_201,-15.0,-17.0,-84.0,-12.0,-62.0,-36.0,-16.0,-14.0,0.91943359375,0.01953125,0.3203125,-7.134146341463415,12.682926829268293,0.06097560975609757
10_41_12_201,6.0,-20.0,2.0,-45.0,9.0,29.0,-37.0,34.0,0.90380859375,0.0400390625,0.32177734375,-11.28048780487805,11.097560975609756,1.524390243902439
10_41_12_201,-128.0,-20.0,8.0,40.0,-47.0,-23.0,68.0,6.0,0.95361328125,0.05126953125,0.30126953125,-4.2682926829268295,11.158536585365855,0.9756097560975611
10_41_12_201,25.0,13.0,-35.0,-10.0,28.0,-12.0,10.0,-20.0,0.94921875,0.00146484375,0.349609375,2.439024390243903,7.317073170731708,2.25609756097561
10_41_12_201,65.0,3.0,34.0,-35.0,-13.0,-8.0,-54.0,9.0,0.91015625,-0.06201171875,0.3330078125,-3.048780487804878,6.585365853658537,3.1097560975609757
10_41_12_260,-37.0,92.0,-10.0,-7.0,61.0,35.0,-47.0,-19.0,0.91845703125,-0.00732421875,0.3525390625,2.0121951219512195,10.853658536585368,-1.0975609756097562
