Timestamps,channel_1,channel_2,channel_3,channel_4,channel_5,channel_6,channel_7,channel_8,ACC_X,ACC_Y,ACC_Z,GYR_X,GYR_Y,GYR_Z
14_52_37_012,0.0,0.0,0.0,0.0,0.0,0.0,0.0,0.0,0.0,0.0,0.0,0.0,0.0,0.0
14_52_37_012,0.0,0.0,0.0,0.0,0.0,0.0,0.0,0.0,0.0,0.0,0.0,0.0,0.0,0.0
14_52_37_012,0.0,0.0,0.0,0.0,0.0,0.0,0.0,0.0,0.0,0.0,0.0,0.0,0.0,0.0
14_52_37_012,0.0,0.0,0.0,0.0,0.0,0.0,0.0,0.0,0.0,0.0,0.0,0.0,0.0,0.0
14_52_37_012,0.0,0.0,0.0,0.0,0.0,0.0,0.0,0.0,0.0,0.0,0.0,0.0,0.0,0.0
14_52_37_012,0.0,0.0,0.0,0.0,0.0,0.0,0.0,0.0,0.0,0.0,0.0,0.0,0.0,0.0
14_52_37_012,0.0,0.0,0.0,0.0,0.0,0.0,0.0,0.0,0.0,0.0,0.0,0.0,0.0,0.0
14_52_37_012,0.0,0.0,0.0,0.0,0.0,0.0,0.0,0.0,0.0,0.0,0.0,0.0,0.0,0.0
14_52_37_012,0.0,0.0,0.0,0.0,0.0,0.0,0.0,0.0,0.0,0.0,0.0,0.0,0.0,0.0
14_52_37_012,0.0,0.0,0.0,0.0,0.0,0.0,0.0,0.0,0.0,0.0,0.0,0.0,0.0,0.0
14_52_38_021,2.0,-4.0,4.0,0.0,2.0,-1.0,1.0,0.0,0.0,0.0,0.0,0.0,0.0,0.0
14_52_38_021,-2.0,-2.0,-3.0,0.0,1.0,-2.0,0.0,-1.0,0.0,0.0,0.0,0.0,0.0,0.0
14_52_38_021,0.0,0.0,0.0,0.0,0.0,0.0,0.0,0.0,0.0,0.0,0.0,0.0,0.0,0.0
14_52_38_021,0.0,0.0,0.0,0.0,0.0,0.0,0.0,0.0,0.0,0.0,0.0,0.0,0.0,0.0
14_52_38_021,0.0,0.0,0.0,0.0,0.0,0.0,0.0,0.0,0.0,0.0,0.0,0.0,0.0,0.0
14_52_38_021,0.0,0.0,0.0,0.0,0.0,0.0,0.0,0.0,0.0,0.0,0.0,0.0,0.0,0.0
14_52_38_021,0.0,0.0,0.0,0.0,0.0,0.0,0.0,0.0,0.0,0.0,0.0,0.0,0.0,0.0
14_52_38_021,0.0,0.0,0.0,0.0,0.0,0.0,0.0,0.0,0.0,0.0,0.0,0.0,0.0,0.0
14_52_38_021,0.0,0.0,0.0,0.0,0.0,0.0,0.0,0.0,0.0,0.0,0.0,0.0,0.0,0.0
14_52_38_021,0.0,0.0,0.0,0.0,0.0,0.0,0.0,0.0,0.0,0.0,0.0,0.0,0.0,0.0
14_52_38_054,-1.0,0.0,-1.0,1.0,-4.0,1.0,2.0,0.0,0.93896484375,-0.3125,0.138671875,-0.7926829268292683,-0.9756097560975611,0.426829268292683
14_52_38_054,-1.0,-3.0,-2.0,1.0,-4.0,-4.0,-5.0,0.0,0.0,0.0,0.0,0.0,0.0,0.0
14_52_38_054,-1.0,-1.0,0.0,-2.0,-1.0,-3.0,1.0,-2.0,0.0,0.0,0.0,0.0,0.0,0.0
14_52_38_054,-3.0,1.0,0.0,-3.0,1.0,1.0,2.0,-1.0,0.0,0.0,0.0,0.0,0.0,0.0
14_52_38_054,-2.0,2.0,-1.0,2.0,-3.0,-2.0,0.0,-1.0,0.0,0.0,0.0,0.0,0.0,0.0
14_52_38_054,-1.0,-1.0,0.0,-1.0,-4.0,-2.0,0.0,-3.0,0.0,0.0,0.0,0.0,0.0,0.0
14_52_38_054,-2.0,-1.0,-3.0,-1.0,1.0,0.0,-1.0,-2.0,0.0,0.0,0.0,0.0,0.0,0.0
14_52_38_100,0.0,-2.0,-4.0,2.0,-4.0,-7.0,2.0,-4.0,1.119140625,-0.30029296875,0.34228515625,-4.817073170731708,1.4634146341463417,0.48780487804878053
14_52_38_100,0.0,0.0,8.0,5.0,3.0,2.0,-3.0,0.0,0.9453125,-0.31591796875,0.14013671875,-0.12195121951219513,-1.1585365853658538,0.1829268292682927
14_52_38_100,2.0,0.0,-5.0,0.0,0.0,-2.0,-2.0,-1.0,0.94677734375,-0.318359375,0.1416015625,-1.0365853658536586,-1.0365853658536586,0.1829268292682927
14_52_38_100,-3.0,3.0,7.0,2.0,2.0,4.0,-2.0,0.0,0.94677734375,-0.318359375,0.1416015625,-1.0365853658536586,-1.0365853658536586,0.1829268292682927
14_52_38_100,2.0,2.0,-4.0,-6.0,1.0,-2.0,-1.0,-1.0,0.93896484375,-0.3125,0.138671875,-0.7926829268292683,-0.9756097560975611,0.426829268292683
14_52_38_100,0.0,0.0,4.0,0.0,-3.0,2.0,-4.0,-1.0,0.0,0.0,0.0,0.0,0.0,0.0
14_52_38_100,9.0,5.0,2.0,-3.0,4.0,1.0,3.0,1.0,0.0,0.0,0.0,0.0,0.0,0.0
14_52_38_100,-3.0,2.0,8.0,5.0,0.0,1.0,-1.0,-1.0,0.0,0.0,0.0,0.0,0.0,0.0
14_52_38_169,1.0,-4.0,-9.0,3.0,-2.0,-4.0,1.0,0.0,0.3955078125,-0.587890625,-0.54443359375,5.487804878048781,-1.1585365853658538,-0.9756097560975611
14_52_38_169,1.0,4.0,7.0,-4.0,0.0,1.0,-1.0,1.0,0.9716796875,-0.26220703125,-0.20068359375,-2.378048780487805,-0.6097560975609757,1.6463414634146343
14_52_38_169,0.0,-2.0,-6.0,-4.0,-3.0,-1.0,1.0,-3.0,0.54638671875,-0.51171875,0.1171875,-2.1341463414634148,-1.7682926829268295,4.2682926829268295
14_52_38_169,-1.0,2.0,7.0,0.0,2.0,0.0,-2.0,0.0,1.119140625,-0.30029296875,0.34228515625,-4.817073170731708,1.4634146341463417,0.48780487804878053
14_52_38_169,0.0,-2.0,-4.0,2.0,-4.0,-7.0,2.0,-4.0,0.9453125,-0.31591796875,0.14013671875,-0.12195121951219513,-1.1585365853658538,0.1829268292682927
14_52_38_169,0.0,0.0,8.0,5.0,3.0,2.0,-3.0,0.0,0.94677734375,-0.318359375,0.1416015625,-1.0365853658536586,-1.0365853658536586,0.1829268292682927
14_52_38_169,2.0,0.0,-5.0,0.0,0.0,-2.0,-2.0,-1.0,0.94677734375,-0.318359375,0.1416015625,-1.0365853658536586,-1.0365853658536586,0.1829268292682927
14_52_38_169,-3.0,3.0,7.0,2.0,2.0,4.0,-2.0,0.0,0.93896484375,-0.3125,0.138671875,-0.7926829268292683,-0.9756097560975611,0.426829268292683
14_52_38_169,2.0,2.0,-4.0,-6.0,1.0,-2.0,-1.0,-1.0,0.0,0.0,0.0,0.0,0.0,0.0
14_52_38_169,0.0,0.0,4.0,0.0,-3.0,2.0,-4.0,-1.0,0.0,0.0,0.0,0.0,0.0,0.0
14_52_38_206,0.0,3.0,4.0,-3.0,0.0,1.0,-3.0,-1.0,0.69873046875,-0.44091796875,-0.69091796875,2.439024390243903,-0.48780487804878053,0.9146341463414634
14_52_38_206,-2.0,-2.0,-8.0,0.0,-2.0,-3.0,2.0,0.0,1.4736328125,-0.052734375,0.73486328125,-7.01219512195122,0.06097560975609757,1.524390243902439
14_52_38_206,3.0,2.0,4.0,0.0,0.0,-2.0,1.0,-4.0,1.12353515625,-0.21826171875,0.91796875,-3.048780487804878,-0.426829268292683,0.9756097560975611
14_52_38_206,2.0,-3.0,-12.0,2.0,-4.0,-2.0,-5.0,-6.0,0.3955078125,-0.587890625,-0.54443359375,5.487804878048781,-1.1585365853658538,-0.9756097560975611
14_52_38_206,2.0,-1.0,3.0,2.0,0.0,0.0,-4.0,0.0,0.9716796875,-0.26220703125,-0.20068359375,-2.378048780487805,-0.6097560975609757,1.6463414634146343
14_52_38_206,-1.0,-5.0,-10.0,-4.0,0.0,-4.0,1.0,-2.0,0.54638671875,-0.51171875,0.1171875,-2.1341463414634148,-1.7682926829268295,4.2682926829268295
14_52_38_206,2.0,-2.0,2.0,-3.0,-3.0,2.0,-1.0,2.0,1.119140625,-0.30029296875,0.34228515625,-4.817073170731708,1.4634146341463417,0.48780487804878053
14_52_38_206,-2.0,4.0,-6.0,-3.0,0.0,-4.0,0.0,-1.0,0.9453125,-0.31591796875,0.14013671875,-0.12195121951219513,-1.1585365853658538,0.1829268292682927
14_52_38_206,-1.0,2.0,6.0,3.0,-1.0,-1.0,1.0,0.0,0.94677734375,-0.318359375,0.1416015625,-1.0365853658536586,-1.0365853658536586,0.1829268292682927
14_52_38_266,-1.0,-2.0,-9.0,5.0,-5.0,-5.0,-1.0,-2.0,1.31884765625,-0.14990234375,0.291015625,-5.975609756097562,0.1829268292682927,-0.12195121951219513
14_52_38_266,-3.0,1.0,5.0,0.0,-2.0,0.0,1.0,-4.0,1.32080078125,-0.12646484375,1.083984375,-5.365853658536586,-0.12195121951219513,0.9146341463414634
14_52_38_266,0.0,1.0,-7.0,-2.0,-5.0,-2.0,-1.0,-1.0,0.4580078125,-0.5478515625,-0.30908203125,5.609756097560976,-0.9146341463414634,-1.0365853658536586
14_52_38_266,-2.0,1.0,7.0,-4.0,0.0,3.0,-4.0,-2.0,0.69873046875,-0.44091796875,-0.69091796875,2.439024390243903,-0.48780487804878053,0.9146341463414634
14_52_38_266,0.0,-3.0,-11.0,-1.0,-2.0,-2.0,1.0,0.0,1.4736328125,-0.052734375,0.73486328125,-7.01219512195122,0.06097560975609757,1.524390243902439
14_52_38_266,0.0,-1.0,2.0,-4.0,-2.0,-2.0,0.0,0.0,1.12353515625,-0.21826171875,0.91796875,-3.048780487804878,-0.426829268292683,0.9756097560975611
14_52_38_266,-1.0,-3.0,-7.0,-1.0,-3.0,-2.0,-5.0,0.0,0.3955078125,-0.587890625,-0.54443359375,5.487804878048781,-1.1585365853658538,-0.9756097560975611
14_52_38_266,0.0,-1.0,2.0,-1.0,-4.0,3.0,-7.0,-1.0,0.9716796875,-0.26220703125,-0.20068359375,-2.378048780487805,-0.6097560975609757,1.6463414634146343
14_52_38_266,2.0,-5.0,-9.0,-8.0,-5.0,-1.0,-1.0,-2.0,0.54638671875,-0.51171875,0.1171875,-2.1341463414634148,-1.7682926829268295,4.2682926829268295
14_52_38_266,-2.0,2.0,2.0,-4.0,3.0,0.0,-1.0,0.0,1.119140625,-0.30029296875,0.34228515625,-4.817073170731708,1.4634146341463417,0.48780487804878053
14_52_38_314,0.0,-4.0,-6.0,-1.0,-4.0,-4.0,-3.0,-1.0,1.50390625,-0.02880859375,1.01025390625,-7.621951219512196,-0.12195121951219513,0.9146341463414634
14_52_38_314,-2.0,1.0,0.0,-7.0,0.0,-2.0,-5.0,0.0,0.77880859375,-0.38232421875,0.37841796875,2.1951219512195124,-0.7926829268292683,-1.3414634146341464
14_52_38_314,-5.0,-9.0,-7.0,-4.0,-4.0,-6.0,-4.0,-4.0,0.4453125,-0.57080078125,-0.85498046875,6.036585365853659,-1.2804878048780488,-1.8902439024390245
14_52_38_314,-2.0,1.0,7.0,-3.0,-3.0,2.0,0.0,0.0,1.31884765625,-0.14990234375,0.291015625,-5.975609756097562,0.1829268292682927,-0.12195121951219513
14_52_38_314,0.0,-2.0,-12.0,2.0,-3.0,-8.0,-4.0,-3.0,1.32080078125,-0.12646484375,1.083984375,-5.365853658536586,-0.12195121951219513,0.9146341463414634
14_52_38_314,-4.0,-2.0,-4.0,-2.0,-3.0,0.0,-3.0,2.0,0.4580078125,-0.5478515625,-0.30908203125,5.609756097560976,-0.9146341463414634,-1.0365853658536586
14_52_38_314,-1.0,-6.0,-7.0,-1.0,0.0,-2.0,-3.0,-6.0,0.69873046875,-0.44091796875,-0.69091796875,2.439024390243903,-0.48780487804878053,0.9146341463414634
14_52_38_314,1.0,2.0,-4.0,-7.0,-2.0,0.0,1.0,0.0,1.4736328125,-0.052734375,0.73486328125,-7.01219512195122,0.06097560975609757,1.524390243902439
14_52_38_314,-1.0,-4.0,-4.0,-2.0,-2.0,-2.0,-1.0,-2.0,1.12353515625,-0.21826171875,0.91796875,-3.048780487804878,-0.426829268292683,0.9756097560975611
14_52_38_314,0.0,-1.0,3.0,4.0,-1.0,0.0,0.0,-2.0,0.3955078125,-0.587890625,-0.54443359375,5.487804878048781,-1.1585365853658538,-0.9756097560975611
14_52_38_355,-3.0,0.0,-1.0,3.0,0.0,-1.0,-1.0,0.0,0.77880859375,-0.38232421875,0.37841796875,2.1951219512195124,-0.7926829268292683,-1.3414634146341464
14_52_38_355,-1.0,3.0,1.0,-4.0,-1.0,1.0,1.0,1.0,0.4453125,-0.57080078125,-0.85498046875,6.036585365853659,-1.2804878048780488,-1.8902439024390245
14_52_38_355,-1.0,-3.0,1.0,1.0,0.0,-1.0,0.0,1.0,1.31884765625,-0.14990234375,0.291015625,-5.975609756097562,0.1829268292682927,-0.12195121951219513
14_52_38_355,0.0,-3.0,-3.0,-5.0,0.0,-1.0,-4.0,-1.0,1.32080078125,-0.12646484375,1.083984375,-5.365853658536586,-0.12195121951219513,0.9146341463414634
14_52_38_355,-4.0,-2.0,-7.0,2.0,-4.0,2.0,-4.0,0.0,0.4580078125,-0.5478515625,-0.30908203125,5.609756097560976,-0.9146341463414634,-1.0365853658536586
14_52_38_355,-2.0,-2.0,2.0,2.0,-1.0,0.0,0.0,2.0,0.69873046875,-0.44091796875,-0.69091796875,2.439024390243903,-0.48780487804878053,0.9146341463414634
14_52_38_420,-2.0,2.0,7.0,-5.0,3.0,2.0,-3.0,1.0,0.37841796875,-0.60400390625,-0.75,5.426829268292684,-0.7926829268292683,-0.426829268292683
14_52_38_420,1.0,0.0,2.0,-1.0,-1.0,-1.0,1.0,-1.0,1.19091796875,-0.19091796875,0.04443359375,-5.3048780487804885,0.30487804878048785,0.9146341463414634
14_52_38_420,-2.0,0.0,6.0,4.0,2.0,0.0,2.0,0.0,1.36181640625,-0.09912109375,1.1044921875,-4.634146341463415,-0.1829268292682927,1.6463414634146343
14_52_38_420,-1.0,-1.0,-3.0,1.0,-3.0,1.0,-2.0,1.0,0.44970703125,-0.56640625,-0.37646484375,7.682926829268293,-1.402439024390244,-1.4634146341463417
14_52_38_420,1.0,-1.0,0.0,-3.0,2.0,4.0,-2.0,3.0,0.818359375,-0.3896484375,-0.53369140625,1.5853658536585367,-1.4634146341463417,-0.5487804878048781
14_52_38_420,0.0,-5.0,3.0,-5.0,-1.0,0.0,-5.0,0.0,1.50390625,-0.02880859375,1.01025390625,-7.621951219512196,-0.12195121951219513,0.9146341463414634
14_52_38_420,-4.0,0.0,6.0,1.0,-1.0,-2.0,-1.0,-1.0,0.77880859375,-0.38232421875,0.37841796875,2.1951219512195124,-0.7926829268292683,-1.3414634146341464
14_52_38_420,0.0,-1.0,1.0,-1.0,-3.0,-1.0,0.0,-4.0,0.4453125,-0.57080078125,-0.85498046875,6.036585365853659,-1.2804878048780488,-1.8902439024390245
14_52_38_420,-3.0,0.0,1.0,3.0,0.0,1.0,0.0,-3.0,1.31884765625,-0.14990234375,0.291015625,-5.975609756097562,0.1829268292682927,-0.12195121951219513
14_52_38_420,0.0,0.0,1.0,3.0,-3.0,-4.0,0.0,0.0,1.32080078125,-0.12646484375,1.083984375,-5.365853658536586,-0.12195121951219513,0.9146341463414634
14_52_38_459,-1.0,2.0,5.0,3.0,1.0,0.0,0.0,3.0,0.455078125,-0.55419921875,-0.857421875,3.231707317073171,-0.7317073170731708,-0.853658536585366
14_52_38_459,4.0,0.0,-1.0,0.0,1.0,-3.0,-2.0,-1.0,1.3935546875,-0.07763671875,0.51513671875,-5.670731707317073,0.6097560975609757,3.536585365853659
14_52_38_459,-2.0,3.0,4.0,1.0,0.0,1.0,0.0,-1.0,1.11962890625,-0.23583984375,0.86767578125,-0.5487804878048781,0.0,-0.9756097560975611
14_52_38_459,7.0,5.0,5.0,-3.0,4.0,1.0,1.0,-3.0,0.37841796875,-0.60400390625,-0.75,5.426829268292684,-0.7926829268292683,-0.426829268292683
14_52_38_459,-3.0,0.0,7.0,-3.0,0.0,1.0,0.0,3.0,1.19091796875,-0.19091796875,0.04443359375,-5.3048780487804885,0.30487804878048785,0.9146341463414634
14_52_38_459,-3.0,-2.0,-3.0,3.0,9.0,4.0,2.0,4.0,1.36181640625,-0.09912109375,1.1044921875,-4.634146341463415,-0.1829268292682927,1.6463414634146343
14_52_38_459,-1.0,2.0,5.0,5.0,-3.0,1.0,-1.0,1.0,0.44970703125,-0.56640625,-0.37646484375,7.682926829268293,-1.402439024390244,-1.4634146341463417
14_52_38_459,2.0,-2.0,-5.0,0.0,1.0,-1.0,-5.0,4.0,0.818359375,-0.3896484375,-0.53369140625,1.5853658536585367,-1.4634146341463417,-0.5487804878048781
14_52_38_459,1.0,1.0,4.0,1.0,0.0,1.0,0.0,1.0,1.50390625,-0.02880859375,1.01025390625,-7.621951219512196,-0.12195121951219513,0.9146341463414634
14_52_38_459,2.0,0.0,2.0,-4.0,-1.0,0.0,-1.0,1.0,0.77880859375,-0.38232421875,0.37841796875,2.1951219512195124,-0.7926829268292683,-1.3414634146341464
14_52_38_510,2.0,-3.0,-6.0,-4.0,-3.0,-4.0,-1.0,-4.0,1.3935546875,-0.07763671875,0.51513671875,-5.670731707317073,0.6097560975609757,3.536585365853659
14_52_38_510,-2.0,2.0,3.0,1.0,-1.0,1.0,-2.0,1.0,1.11962890625,-0.23583984375,0.86767578125,-0.5487804878048781,0.0,-0.9756097560975611
14_52_38_510,-3.0,-3.0,-7.0,0.0,-1.0,-3.0,-5.0,-3.0,0.37841796875,-0.60400390625,-0.75,5.426829268292684,-0.7926829268292683,-0.426829268292683
14_52_38_510,3.0,-2.0,4.0,6.0,3.0,2.0,-1.0,-3.0,1.19091796875,-0.19091796875,0.04443359375,-5.3048780487804885,0.30487804878048785,0.9146341463414634
14_52_38_510,3.0,-1.0,-4.0,-2.0,-2.0,1.0,-2.0,2.0,1.36181640625,-0.09912109375,1.1044921875,-4.634146341463415,-0.1829268292682927,1.6463414634146343
14_52_38_510,2.0,0.0,4.0,-4.0,-1.0,2.0,-2.0,2.0,0.44970703125,-0.56640625,-0.37646484375,7.682926829268293,-1.402439024390244,-1.4634146341463417
14_52_38_510,1.0,-1.0,-1.0,-3.0,-2.0,-1.0,-1.0,-6.0,0.818359375,-0.3896484375,-0.53369140625,1.5853658536585367,-1.4634146341463417,-0.5487804878048781
14_52_38_573,-1.0,1.0,4.0,0.0,2.0,2.0,4.0,3.0,0.62255859375,-0.4658203125,0.037109375,2.9268292682926833,-1.2195121951219514,-1.9512195121951221
14_52_38_573,-4.0,-1.0,-10.0,0.0,-5.0,-4.0,-5.0,-4.0,0.63525390625,-0.45263671875,-0.74365234375,3.4756097560975614,-0.6707317073170732,0.7926829268292683
14_52_38_573,4.0,-1.0,1.0,3.0,-2.0,-1.0,-4.0,2.0,1.50634765625,-0.03759765625,0.89599609375,-6.097560975609756,0.1829268292682927,0.9756097560975611
14_52_38_573,1.0,-5.0,-10.0,0.0,-1.0,-4.0,0.0,-1.0,0.82177734375,-0.388671875,0.4365234375,0.06097560975609757,-0.426829268292683,-0.6707317073170732
14_52_38_573,-6.0,-1.0,2.0,-6.0,3.0,4.0,-2.0,1.0,0.455078125,-0.55419921875,-0.857421875,3.231707317073171,-0.7317073170731708,-0.853658536585366
14_52_38_573,-4.0,-3.0,-14.0,-6.0,0.0,-3.0,0.0,0.0,1.3935546875,-0.07763671875,0.51513671875,-5.670731707317073,0.6097560975609757,3.536585365853659
14_52_38_573,-1.0,0.0,0.0,2.0,4.0,-1.0,-5.0,1.0,1.11962890625,-0.23583984375,0.86767578125,-0.5487804878048781,0.0,-0.9756097560975611
14_52_38_573,1.0,-1.0,-9.0,0.0,-2.0,-1.0,-1.0,-3.0,0.37841796875,-0.60400390625,-0.75,5.426829268292684,-0.7926829268292683,-0.426829268292683
14_52_38_573,-2.0,4.0,3.0,4.0,2.0,1.0,0.0,0.0,1.19091796875,-0.19091796875,0.04443359375,-5.3048780487804885,0.30487804878048785,0.9146341463414634
14_52_38_573,-3.0,-1.0,-6.0,-5.0,0.0,-6.0,-1.0,1.0,1.36181640625,-0.09912109375,1.1044921875,-4.634146341463415,-0.1829268292682927,1.6463414634146343
14_52_38_610,-3.0,-1.0,0.0,1.0,-1.0,-2.0,1.0,-1.0,1.50634765625,-0.041015625,1.072265625,-8.841463414634147,0.06097560975609757,1.6463414634146343
14_52_38_610,1.0,-2.0,-9.0,-4.0,0.0,-8.0,-2.0,-5.0,0.62255859375,-0.4658203125,0.037109375,2.9268292682926833,-1.2195121951219514,-1.9512195121951221
14_52_38_610,0.0,-3.0,-1.0,-4.0,3.0,-3.0,0.0,-2.0,0.63525390625,-0.45263671875,-0.74365234375,3.4756097560975614,-0.6707317073170732,0.7926829268292683
14_52_38_610,0.0,-1.0,-8.0,0.0,0.0,-4.0,0.0,-1.0,1.50634765625,-0.03759765625,0.89599609375,-6.097560975609756,0.1829268292682927,0.9756097560975611
14_52_38_610,-2.0,2.0,4.0,1.0,1.0,1.0,-2.0,-4.0,0.82177734375,-0.388671875,0.4365234375,0.06097560975609757,-0.426829268292683,-0.6707317073170732
14_52_38_610,-1.0,-2.0,-8.0,0.0,-6.0,-5.0,0.0,-3.0,0.455078125,-0.55419921875,-0.857421875,3.231707317073171,-0.7317073170731708,-0.853658536585366
14_52_38_610,-1.0,2.0,4.0,-4.0,3.0,2.0,2.0,-1.0,1.3935546875,-0.07763671875,0.51513671875,-5.670731707317073,0.6097560975609757,3.536585365853659
14_52_38_610,0.0,-3.0,-2.0,-3.0,-1.0,-3.0,-3.0,-3.0,1.11962890625,-0.23583984375,0.86767578125,-0.5487804878048781,0.0,-0.9756097560975611
14_52_38_670,2.0,-2.0,-6.0,3.0,-5.0,-5.0,1.0,-2.0,0.4814453125,-0.5517578125,-0.27392578125,5.426829268292684,-0.48780487804878053,-2.1951219512195124
14_52_38_670,-1.0,1.0,1.0,-2.0,1.0,-1.0,1.0,1.0,0.82177734375,-0.37109375,-0.51513671875,-0.3658536585365854,-0.5487804878048781,1.0975609756097562
14_52_38_670,2.0,-4.0,-7.0,-3.0,-1.0,-3.0,-2.0,-3.0,1.50634765625,-0.041015625,1.072265625,-8.841463414634147,0.06097560975609757,1.6463414634146343
14_52_38_670,2.0,2.0,1.0,-4.0,3.0,1.0,1.0,-1.0,0.62255859375,-0.4658203125,0.037109375,2.9268292682926833,-1.2195121951219514,-1.9512195121951221
14_52_38_670,2.0,1.0,-9.0,1.0,-3.0,-5.0,-1.0,-2.0,0.63525390625,-0.45263671875,-0.74365234375,3.4756097560975614,-0.6707317073170732,0.7926829268292683
14_52_38_670,-5.0,-2.0,2.0,4.0,1.0,1.0,-1.0,-3.0,1.50634765625,-0.03759765625,0.89599609375,-6.097560975609756,0.1829268292682927,0.9756097560975611
14_52_38_670,1.0,-4.0,-8.0,1.0,0.0,-2.0,-1.0,-2.0,0.82177734375,-0.388671875,0.4365234375,0.06097560975609757,-0.426829268292683,-0.6707317073170732
14_52_38_670,-3.0,-1.0,0.0,1.0,-1.0,-2.0,1.0,-1.0,0.455078125,-0.55419921875,-0.857421875,3.231707317073171,-0.7317073170731708,-0.853658536585366
14_52_38_670,1.0,-2.0,-9.0,-4.0,0.0,-8.0,-2.0,-5.0,1.3935546875,-0.07763671875,0.51513671875,-5.670731707317073,0.6097560975609757,3.536585365853659
14_52_38_735,-5.0,-4.0,-5.0,4.0,-3.0,2.0,-1.0,1.0,0.400390625,-0.58056640625,-0.5634765625,4.085365853658537,-1.2804878048780488,-1.524390243902439
14_52_38_735,-2.0,2.0,-1.0,1.0,-1.0,1.0,0.0,-5.0,1.0126953125,-0.2705078125,-0.2412109375,-3.1097560975609757,-0.30487804878048785,2.25609756097561
14_52_38_735,-2.0,0.0,-4.0,1.0,-1.0,0.0,-2.0,1.0,1.447265625,-0.060546875,1.12548828125,-6.463414634146342,-0.1829268292682927,0.0
14_52_38_735,-1.0,0.0,1.0,-5.0,1.0,2.0,-1.0,-3.0,0.4814453125,-0.5517578125,-0.27392578125,5.426829268292684,-0.48780487804878053,-2.1951219512195124
14_52_38_735,1.0,-4.0,1.0,1.0,0.0,-2.0,-1.0,-2.0,0.82177734375,-0.37109375,-0.51513671875,-0.3658536585365854,-0.5487804878048781,1.0975609756097562
14_52_38_735,-3.0,-4.0,-1.0,2.0,-1.0,2.0,0.0,1.0,1.50634765625,-0.041015625,1.072265625,-8.841463414634147,0.06097560975609757,1.6463414634146343
14_52_38_735,-3.0,-6.0,-3.0,2.0,-4.0,-4.0,0.0,-5.0,0.62255859375,-0.4658203125,0.037109375,2.9268292682926833,-1.2195121951219514,-1.9512195121951221
14_52_38_735,-3.0,0.0,-1.0,0.0,-1.0,-2.0,-1.0,0.0,0.63525390625,-0.45263671875,-0.74365234375,3.4756097560975614,-0.6707317073170732,0.7926829268292683
14_52_38_735,-6.0,-7.0,-6.0,-4.0,-5.0,-6.0,-6.0,-6.0,1.50634765625,-0.03759765625,0.89599609375,-6.097560975609756,0.1829268292682927,0.9756097560975611
14_52_38_791,1.0,-3.0,-5.0,1.0,-2.0,-3.0,-2.0,0.0,1.333984375,-0.11962890625,0.34619140625,-8.231707317073171,0.426829268292683,0.7926829268292683
14_52_38_791,0.0,2.0,7.0,-4.0,-1.0,2.0,-1.0,3.0,1.1982421875,-0.18994140625,0.95166015625,-4.451219512195122,-0.1829268292682927,-0.426829268292683
14_52_38_791,0.0,0.0,-1.0,-4.0,-1.0,-1.0,1.0,-4.0,0.37451171875,-0.591796875,-0.71923828125,5.365853658536586,-0.853658536585366,-0.5487804878048781
14_52_38_791,0.0,2.0,8.0,-4.0,-3.0,3.0,4.0,2.0,1.1806640625,-0.19873046875,0.05517578125,-5.060975609756098,0.12195121951219513,1.6463414634146343
14_52_38_791,-2.0,-3.0,3.0,-4.0,-1.0,-2.0,-1.0,-2.0,0.400390625,-0.58056640625,-0.5634765625,4.085365853658537,-1.2804878048780488,-1.524390243902439
14_52_38_791,0.0,-5.0,5.0,7.0,-3.0,-1.0,0.0,2.0,1.0126953125,-0.2705078125,-0.2412109375,-3.1097560975609757,-0.30487804878048785,2.25609756097561
14_52_38_791,1.0,0.0,-5.0,2.0,0.0,-2.0,0.0,0.0,1.447265625,-0.060546875,1.12548828125,-6.463414634146342,-0.1829268292682927,0.0
14_52_38_791,-2.0,1.0,4.0,-1.0,3.0,0.0,-3.0,-2.0,0.4814453125,-0.5517578125,-0.27392578125,5.426829268292684,-0.48780487804878053,-2.1951219512195124
14_52_38_791,0.0,-6.0,3.0,-5.0,-1.0,-2.0,-2.0,-4.0,0.82177734375,-0.37109375,-0.51513671875,-0.3658536585365854,-0.5487804878048781,1.0975609756097562
14_52_38_791,-5.0,-2.0,5.0,0.0,0.0,2.0,-3.0,3.0,1.50634765625,-0.041015625,1.072265625,-8.841463414634147,0.06097560975609757,1.6463414634146343
14_52_38_848,5.0,5.0,3.0,-1.0,4.0,3.0,1.0,-2.0,1.01171875,-0.291015625,0.71728515625,-2.378048780487805,0.06097560975609757,-1.402439024390244
14_52_38_848,-1.0,1.0,6.0,-3.0,3.0,2.0,-1.0,-2.0,0.4013671875,-0.5810546875,-0.8349609375,3.4756097560975614,-0.7317073170731708,-0.853658536585366
14_52_38_848,-2.0,0.0,-5.0,1.0,7.0,5.0,3.0,2.0,1.333984375,-0.11962890625,0.34619140625,-8.231707317073171,0.426829268292683,0.7926829268292683
14_52_38_848,-2.0,0.0,5.0,1.0,2.0,2.0,-2.0,3.0,1.1982421875,-0.18994140625,0.95166015625,-4.451219512195122,-0.1829268292682927,-0.426829268292683
14_52_38_848,-2.0,1.0,0.0,0.0,0.0,-3.0,1.0,3.0,0.37451171875,-0.591796875,-0.71923828125,5.365853658536586,-0.853658536585366,-0.5487804878048781
14_52_38_848,-5.0,-3.0,4.0,1.0,-3.0,2.0,-2.0,-2.0,1.1806640625,-0.19873046875,0.05517578125,-5.060975609756098,0.12195121951219513,1.6463414634146343
14_52_38_848,-2.0,1.0,2.0,-6.0,1.0,1.0,-2.0,-1.0,0.400390625,-0.58056640625,-0.5634765625,4.085365853658537,-1.2804878048780488,-1.524390243902439
14_52_38_848,1.0,-1.0,4.0,-4.0,-3.0,0.0,-2.0,2.0,1.0126953125,-0.2705078125,-0.2412109375,-3.1097560975609757,-0.30487804878048785,2.25609756097561
14_52_38_848,-2.0,-2.0,-1.0,1.0,-1.0,-1.0,-1.0,-3.0,1.447265625,-0.060546875,1.12548828125,-6.463414634146342,-0.1829268292682927,0.0
14_52_38_848,1.0,0.0,5.0,4.0,2.0,2.0,-2.0,2.0,0.4814453125,-0.5517578125,-0.27392578125,5.426829268292684,-0.48780487804878053,-2.1951219512195124
14_52_38_893,0.0,-1.0,-8.0,-3.0,-3.0,-2.0,0.0,-1.0,0.87255859375,-0.3583984375,0.4921875,-1.524390243902439,0.12195121951219513,-1.2195121951219514
14_52_38_893,1.0,0.0,2.0,-1.0,4.0,0.0,0.0,0.0,0.4716796875,-0.548828125,-0.85107421875,2.1951219512195124,0.1829268292682927,-1.7682926829268295
14_52_38_893,0.0,-4.0,-4.0,-3.0,-3.0,-4.0,1.0,-3.0,1.44482421875,-0.06689453125,0.63427734375,-8.597560975609756,0.853658536585366,1.2195121951219514
14_52_38_893,0.0,0.0,1.0,1.0,-5.0,1.0,0.0,2.0,1.01171875,-0.291015625,0.71728515625,-2.378048780487805,0.06097560975609757,-1.402439024390244
14_52_38_893,-2.0,-4.0,-6.0,1.0,-3.0,-3.0,-3.0,-1.0,0.4013671875,-0.5810546875,-0.8349609375,3.4756097560975614,-0.7317073170731708,-0.853658536585366
14_52_38_893,0.0,0.0,3.0,5.0,-1.0,1.0,-5.0,-1.0,1.333984375,-0.11962890625,0.34619140625,-8.231707317073171,0.426829268292683,0.7926829268292683
14_52_38_893,-1.0,-1.0,-5.0,-2.0,2.0,-1.0,2.0,-1.0,1.1982421875,-0.18994140625,0.95166015625,-4.451219512195122,-0.1829268292682927,-0.426829268292683
14_52_38_893,3.0,4.0,5.0,-4.0,3.0,2.0,-1.0,1.0,0.37451171875,-0.591796875,-0.71923828125,5.365853658536586,-0.853658536585366,-0.5487804878048781
14_52_38_893,-3.0,-1.0,0.0,1.0,-3.0,-3.0,0.0,-2.0,1.1806640625,-0.19873046875,0.05517578125,-5.060975609756098,0.12195121951219513,1.6463414634146343
14_52_38_893,-3.0,-1.0,4.0,4.0,1.0,1.0,-1.0,-3.0,0.400390625,-0.58056640625,-0.5634765625,4.085365853658537,-1.2804878048780488,-1.524390243902439
14_52_38_937,0.0,-2.0,-7.0,0.0,-4.0,-6.0,-3.0,-2.0,0.5458984375,-0.50390625,-0.82275390625,0.7926829268292683,0.853658536585366,0.0
14_52_38_937,-2.0,2.0,5.0,-2.0,3.0,3.0,-2.0,2.0,1.49951171875,-0.03564453125,0.8037109375,-9.817073170731708,1.3414634146341464,-0.12195121951219513
14_52_38_937,1.0,-5.0,-6.0,-4.0,-4.0,-2.0,-3.0,0.0,0.87255859375,-0.3583984375,0.4921875,-1.524390243902439,0.12195121951219513,-1.2195121951219514
14_52_38_937,-3.0,1.0,4.0,0.0,1.0,2.0,-1.0,-3.0,0.4716796875,-0.548828125,-0.85107421875,2.1951219512195124,0.1829268292682927,-1.7682926829268295
14_52_38_937,0.0,-4.0,-9.0,3.0,0.0,-3.0,1.0,-1.0,1.44482421875,-0.06689453125,0.63427734375,-8.597560975609756,0.853658536585366,1.2195121951219514
14_52_38_937,-3.0,1.0,3.0,2.0,0.0,-1.0,-2.0,-2.0,1.01171875,-0.291015625,0.71728515625,-2.378048780487805,0.06097560975609757,-1.402439024390244
14_52_38_937,0.0,-1.0,-8.0,-3.0,-3.0,-2.0,0.0,-1.0,0.4013671875,-0.5810546875,-0.8349609375,3.4756097560975614,-0.7317073170731708,-0.853658536585366
14_52_38_937,1.0,0.0,2.0,-1.0,4.0,0.0,0.0,0.0,1.333984375,-0.11962890625,0.34619140625,-8.231707317073171,0.426829268292683,0.7926829268292683
14_52_38_937,0.0,-4.0,-4.0,-3.0,-3.0,-4.0,1.0,-3.0,1.1982421875,-0.18994140625,0.95166015625,-4.451219512195122,-0.1829268292682927,-0.426829268292683
14_52_38_937,0.0,0.0,1.0,1.0,-5.0,1.0,0.0,2.0,0.37451171875,-0.591796875,-0.71923828125,5.365853658536586,-0.853658536585366,-0.5487804878048781
14_52_38_989,-1.0,-3.0,-8.0,1.0,-3.0,0.0,3.0,-1.0,0.6337890625,-0.45947265625,-0.7373046875,-1.402439024390244,1.4634146341463417,0.3658536585365854
14_52_38_989,-1.0,2.0,0.0,-5.0,-1.0,-2.0,0.0,0.0,1.52294921875,-0.02734375,0.9580078125,-10.853658536585368,2.6219512195121952,0.7926829268292683
14_52_38_989,0.0,-8.0,-6.0,-7.0,-2.0,-5.0,-2.0,-2.0,0.736328125,-0.42333984375,0.2529296875,-0.9146341463414634,1.0975609756097562,-0.12195121951219513
14_52_38_989,-1.0,1.0,3.0,-3.0,1.0,2.0,-1.0,-3.0,0.5458984375,-0.50390625,-0.82275390625,0.7926829268292683,0.853658536585366,0.0
14_52_38_989,-1.0,-6.0,-9.0,-3.0,-2.0,-6.0,-4.0,-4.0,1.49951171875,-0.03564453125,0.8037109375,-9.817073170731708,1.3414634146341464,-0.12195121951219513
14_52_38_989,-1.0,0.0,1.0,3.0,1.0,0.0,-2.0,-1.0,0.87255859375,-0.3583984375,0.4921875,-1.524390243902439,0.12195121951219513,-1.2195121951219514
14_52_38_989,-3.0,-1.0,-11.0,0.0,-4.0,-5.0,2.0,-4.0,0.4716796875,-0.548828125,-0.85107421875,2.1951219512195124,0.1829268292682927,-1.7682926829268295
14_52_38_989,2.0,0.0,3.0,-6.0,2.0,-1.0,2.0,-2.0,1.44482421875,-0.06689453125,0.63427734375,-8.597560975609756,0.853658536585366,1.2195121951219514
14_52_38_989,-1.0,-3.0,-9.0,-7.0,-1.0,-4.0,1.0,-3.0,1.01171875,-0.291015625,0.71728515625,-2.378048780487805,0.06097560975609757,-1.402439024390244
14_52_38_989,4.0,1.0,2.0,-1.0,3.0,2.0,-3.0,1.0,0.4013671875,-0.5810546875,-0.8349609375,3.4756097560975614,-0.7317073170731708,-0.853658536585366
14_52_39_057,1.0,-3.0,-5.0,1.0,-1.0,-4.0,-6.0,-6.0,0.681640625,-0.44091796875,-0.6943359375,-3.780487804878049,1.829268292682927,-1.707317073170732
14_52_39_057,-3.0,1.0,-1.0,-2.0,1.0,-2.0,1.0,-4.0,1.52978515625,-0.0224609375,0.99560546875,-12.073170731707318,2.8658536585365857,1.6463414634146343
14_52_39_057,-1.0,1.0,-5.0,-6.0,0.0,-3.0,-2.0,-2.0,0.671875,-0.447265625,0.1220703125,-0.12195121951219513,1.4634146341463417,-2.25609756097561
14_52_39_057,-3.0,1.0,1.0,-5.0,-1.0,1.0,-3.0,-2.0,0.6337890625,-0.45947265625,-0.7373046875,-1.402439024390244,1.4634146341463417,0.3658536585365854
14_52_39_057,-3.0,-3.0,-8.0,1.0,-1.0,-4.0,0.0,-3.0,1.52294921875,-0.02734375,0.9580078125,-10.853658536585368,2.6219512195121952,0.7926829268292683
14_52_39_057,-2.0,-5.0,-2.0,2.0,-2.0,1.0,-2.0,-1.0,0.736328125,-0.42333984375,0.2529296875,-0.9146341463414634,1.0975609756097562,-0.12195121951219513
14_52_39_057,2.0,-4.0,-7.0,3.0,-1.0,-3.0,-1.0,-3.0,0.5458984375,-0.50390625,-0.82275390625,0.7926829268292683,0.853658536585366,0.0
14_52_39_057,-1.0,-2.0,5.0,-2.0,0.0,0.0,-1.0,-3.0,1.49951171875,-0.03564453125,0.8037109375,-9.817073170731708,1.3414634146341464,-0.12195121951219513
14_52_39_057,-2.0,1.0,-4.0,-7.0,-4.0,-2.0,1.0,-2.0,0.87255859375,-0.3583984375,0.4921875,-1.524390243902439,0.12195121951219513,-1.2195121951219514
14_52_39_057,-3.0,-1.0,3.0,-3.0,-3.0,1.0,-3.0,-1.0,0.4716796875,-0.548828125,-0.85107421875,2.1951219512195124,0.1829268292682927,-1.7682926829268295
14_52_39_105,0.0,1.0,-4.0,3.0,4.0,2.0,1.0,1.0,0.69189453125,-0.41845703125,-0.66259765625,-6.036585365853659,1.829268292682927,-0.06097560975609757
14_52_39_105,-2.0,0.0,1.0,-7.0,-3.0,1.0,2.0,0.0,1.52197265625,-0.01953125,1.025390625,-13.719512195121952,2.987804878048781,-0.426829268292683
14_52_39_105,-2.0,-3.0,-1.0,-3.0,-4.0,0.0,-2.0,0.0,0.642578125,-0.470703125,0.03955078125,-1.2195121951219514,1.829268292682927,-2.1951219512195124
14_52_39_105,-1.0,0.0,1.0,-4.0,-1.0,-3.0,-2.0,-1.0,0.681640625,-0.44091796875,-0.6943359375,-3.780487804878049,1.829268292682927,-1.707317073170732
14_52_39_105,-5.0,-3.0,-3.0,-1.0,0.0,-2.0,-1.0,0.0,1.52978515625,-0.0224609375,0.99560546875,-12.073170731707318,2.8658536585365857,1.6463414634146343
14_52_39_105,-3.0,0.0,0.0,1.0,4.0,2.0,-2.0,1.0,0.671875,-0.447265625,0.1220703125,-0.12195121951219513,1.4634146341463417,-2.25609756097561
14_52_39_105,-2.0,-5.0,-7.0,0.0,-2.0,0.0,-2.0,-4.0,0.6337890625,-0.45947265625,-0.7373046875,-1.402439024390244,1.4634146341463417,0.3658536585365854
14_52_39_105,-1.0,-1.0,2.0,-2.0,0.0,1.0,-1.0,-2.0,1.52294921875,-0.02734375,0.9580078125,-10.853658536585368,2.6219512195121952,0.7926829268292683
14_52_39_105,-4.0,-7.0,-8.0,-4.0,-2.0,-3.0,-2.0,-3.0,0.736328125,-0.42333984375,0.2529296875,-0.9146341463414634,1.0975609756097562,-0.12195121951219513
14_52_39_105,0.0,0.0,3.0,-2.0,1.0,2.0,0.0,-1.0,0.5458984375,-0.50390625,-0.82275390625,0.7926829268292683,0.853658536585366,0.0
14_52_39_145,0.0,3.0,9.0,-5.0,-4.0,-1.0,-4.0,0.0,0.7216796875,-0.40771484375,-0.6279296875,-5.121951219512195,1.6463414634146343,-2.1341463414634148
14_52_39_145,4.0,1.0,-2.0,-5.0,-3.0,-3.0,-4.0,0.0,1.51806640625,-0.02490234375,1.0380859375,-12.621951219512196,2.1341463414634148,-0.1829268292682927
14_52_39_145,0.0,1.0,4.0,3.0,2.0,3.0,-1.0,-3.0,0.61962890625,-0.482421875,0.017578125,-2.25609756097561,1.402439024390244,-2.073170731707317
14_52_39_145,-3.0,1.0,1.0,6.0,1.0,1.0,-2.0,0.0,0.69189453125,-0.41845703125,-0.66259765625,-6.036585365853659,1.829268292682927,-0.06097560975609757
14_52_39_145,-4.0,0.0,5.0,3.0,0.0,1.0,-2.0,3.0,1.52197265625,-0.01953125,1.025390625,-13.719512195121952,2.987804878048781,-0.426829268292683
14_52_39_145,0.0,0.0,0.0,-2.0,-2.0,-1.0,-3.0,1.0,0.642578125,-0.470703125,0.03955078125,-1.2195121951219514,1.829268292682927,-2.1951219512195124
14_52_39_145,-3.0,-4.0,1.0,-1.0,0.0,0.0,2.0,1.0,0.681640625,-0.44091796875,-0.6943359375,-3.780487804878049,1.829268292682927,-1.707317073170732
14_52_39_145,1.0,-2.0,-2.0,-6.0,-2.0,-2.0,-1.0,-1.0,1.52978515625,-0.0224609375,0.99560546875,-12.073170731707318,2.8658536585365857,1.6463414634146343
14_52_39_145,0.0,-3.0,-3.0,1.0,0.0,0.0,-3.0,-1.0,0.671875,-0.447265625,0.1220703125,-0.12195121951219513,1.4634146341463417,-2.25609756097561
14_52_39_145,-1.0,1.0,-2.0,1.0,-2.0,-2.0,0.0,-2.0,0.6337890625,-0.45947265625,-0.7373046875,-1.402439024390244,1.4634146341463417,0.3658536585365854
14_52_39_206,0.0,2.0,2.0,8.0,3.0,3.0,0.0,4.0,1.50244140625,-0.04150390625,1.09716796875,-14.329268292682928,1.4634146341463417,-2.0121951219512195
14_52_39_206,-3.0,-2.0,-3.0,3.0,3.0,-1.0,-2.0,4.0,0.5693359375,-0.50927734375,-0.0810546875,-2.8658536585365857,0.7317073170731708,-4.146341463414634
14_52_39_206,-1.0,3.0,7.0,-2.0,-2.0,1.0,-2.0,2.0,0.7216796875,-0.40771484375,-0.6279296875,-5.121951219512195,1.6463414634146343,-2.1341463414634148
14_52_39_206,0.0,0.0,2.0,-3.0,0.0,-2.0,-1.0,1.0,1.51806640625,-0.02490234375,1.0380859375,-12.621951219512196,2.1341463414634148,-0.1829268292682927
14_52_39_206,-3.0,-1.0,6.0,0.0,1.0,1.0,-4.0,2.0,0.61962890625,-0.482421875,0.017578125,-2.25609756097561,1.402439024390244,-2.073170731707317
14_52_39_206,0.0,1.0,-5.0,1.0,-4.0,1.0,1.0,1.0,0.69189453125,-0.41845703125,-0.66259765625,-6.036585365853659,1.829268292682927,-0.06097560975609757
14_52_39_206,-1.0,-4.0,1.0,2.0,-1.0,1.0,-1.0,3.0,1.52197265625,-0.01953125,1.025390625,-13.719512195121952,2.987804878048781,-0.426829268292683
14_52_39_206,-2.0,-1.0,-4.0,0.0,0.0,0.0,-1.0,-4.0,0.642578125,-0.470703125,0.03955078125,-1.2195121951219514,1.829268292682927,-2.1951219512195124
14_52_39_206,0.0,3.0,9.0,-5.0,-4.0,-1.0,-4.0,0.0,0.681640625,-0.44091796875,-0.6943359375,-3.780487804878049,1.829268292682927,-1.707317073170732
14_52_39_206,4.0,1.0,-2.0,-5.0,-3.0,-3.0,-4.0,0.0,1.52978515625,-0.0224609375,0.99560546875,-12.073170731707318,2.8658536585365857,1.6463414634146343
14_52_39_248,2.0,-4.0,1.0,0.0,0.0,2.0,0.0,-4.0,1.43017578125,-0.07666015625,1.12744140625,-13.109756097560977,0.7926829268292683,-1.524390243902439
14_52_39_248,0.0,-3.0,-11.0,3.0,0.0,-4.0,2.0,-3.0,0.4873046875,-0.5419921875,-0.2822265625,-0.7926829268292683,0.24390243902439027,-5.487804878048781
14_52_39_248,0.0,-1.0,4.0,2.0,2.0,-1.0,-1.0,0.0,0.83984375,-0.3564453125,-0.48388671875,-6.707317073170732,0.7317073170731708,-2.25609756097561
14_52_39_248,-1.0,3.0,-6.0,-7.0,-2.0,-1.0,2.0,-3.0,1.50244140625,-0.04150390625,1.09716796875,-14.329268292682928,1.4634146341463417,-2.0121951219512195
14_52_39_248,-5.0,1.0,5.0,-3.0,1.0,2.0,0.0,2.0,0.5693359375,-0.50927734375,-0.0810546875,-2.8658536585365857,0.7317073170731708,-4.146341463414634
14_52_39_248,0.0,-2.0,-6.0,0.0,-3.0,-2.0,-2.0,-1.0,0.7216796875,-0.40771484375,-0.6279296875,-5.121951219512195,1.6463414634146343,-2.1341463414634148
14_52_39_248,-2.0,1.0,4.0,3.0,-1.0,2.0,-3.0,1.0,1.51806640625,-0.02490234375,1.0380859375,-12.621951219512196,2.1341463414634148,-0.1829268292682927
14_52_39_248,5.0,1.0,-1.0,1.0,0.0,0.0,0.0,-3.0,0.61962890625,-0.482421875,0.017578125,-2.25609756097561,1.402439024390244,-2.073170731707317
14_52_39_248,-2.0,1.0,5.0,0.0,0.0,0.0,-4.0,-1.0,0.69189453125,-0.41845703125,-0.66259765625,-6.036585365853659,1.829268292682927,-0.06097560975609757
14_52_39_248,6.0,3.0,4.0,-3.0,3.0,0.0,0.0,-1.0,1.52197265625,-0.01953125,1.025390625,-13.719512195121952,2.987804878048781,-0.426829268292683
14_52_39_287,1.0,0.0,-1.0,2.0,1.0,1.0,1.0,0.0,0.9609375,-0.46142578125,0.3203125,-4.024390243902439,1.524390243902439,-2.6219512195121952
14_52_39_287,-2.0,-3.0,-4.0,0.0,0.0,-1.0,2.0,-2.0,1.04443359375,-0.26904296875,-0.17724609375,-8.963414634146343,0.853658536585366,-0.9756097560975611
14_52_39_287,-2.0,-3.0,-8.0,-5.0,0.0,-4.0,0.0,1.0,1.43017578125,-0.07666015625,1.12744140625,-13.109756097560977,0.7926829268292683,-1.524390243902439
14_52_39_287,-3.0,-1.0,-3.0,0.0,-4.0,0.0,-1.0,-1.0,0.4873046875,-0.5419921875,-0.2822265625,-0.7926829268292683,0.24390243902439027,-5.487804878048781
14_52_39_287,-1.0,-3.0,-2.0,3.0,-1.0,-2.0,-2.0,-2.0,0.83984375,-0.3564453125,-0.48388671875,-6.707317073170732,0.7317073170731708,-2.25609756097561
14_52_39_287,1.0,-3.0,-9.0,0.0,-4.0,-3.0,0.0,0.0,1.50244140625,-0.04150390625,1.09716796875,-14.329268292682928,1.4634146341463417,-2.0121951219512195
14_52_39_287,-1.0,2.0,5.0,0.0,2.0,1.0,-3.0,-1.0,0.5693359375,-0.50927734375,-0.0810546875,-2.8658536585365857,0.7317073170731708,-4.146341463414634
14_52_39_287,2.0,-5.0,-6.0,-7.0,0.0,-6.0,-4.0,2.0,0.7216796875,-0.40771484375,-0.6279296875,-5.121951219512195,1.6463414634146343,-2.1341463414634148
14_52_39_287,-1.0,-2.0,3.0,-3.0,-1.0,2.0,0.0,1.0,1.51806640625,-0.02490234375,1.0380859375,-12.621951219512196,2.1341463414634148,-0.1829268292682927
14_52_39_287,-3.0,0.0,-5.0,-2.0,0.0,-1.0,1.0,-2.0,0.61962890625,-0.482421875,0.017578125,-2.25609756097561,1.402439024390244,-2.073170731707317
14_52_39_354,-1.0,-2.0,-2.0,1.0,-2.0,-4.0,-1.0,-2.0,0.9609375,-0.46142578125,0.3203125,-4.024390243902439,1.524390243902439,-2.6219512195121952
14_52_39_354,1.0,-1.0,-2.0,-4.0,1.0,-3.0,0.0,-2.0,1.04443359375,-0.26904296875,-0.17724609375,-8.963414634146343,0.853658536585366,-0.9756097560975611
14_52_39_354,-2.0,1.0,1.0,-1.0,-1.0,-1.0,-1.0,-2.0,1.43017578125,-0.07666015625,1.12744140625,-13.109756097560977,0.7926829268292683,-1.524390243902439
14_52_39_354,1.0,0.0,-1.0,-3.0,-1.0,-1.0,-2.0,1.0,0.4873046875,-0.5419921875,-0.2822265625,-0.7926829268292683,0.24390243902439027,-5.487804878048781
14_52_39_354,0.0,-1.0,0.0,-4.0,-2.0,-5.0,0.0,-2.0,0.83984375,-0.3564453125,-0.48388671875,-6.707317073170732,0.7317073170731708,-2.25609756097561
14_52_39_354,1.0,0.0,-1.0,2.0,1.0,1.0,1.0,0.0,1.50244140625,-0.04150390625,1.09716796875,-14.329268292682928,1.4634146341463417,-2.0121951219512195
14_52_39_354,-2.0,-3.0,-4.0,0.0,0.0,-1.0,2.0,-2.0,0.5693359375,-0.50927734375,-0.0810546875,-2.8658536585365857,0.7317073170731708,-4.146341463414634
14_52_39_394,-1.0,-3.0,0.0,-4.0,-4.0,0.0,-1.0,-3.0,0.94384765625,-0.31640625,0.13720703125,-4.146341463414634,-0.9146341463414634,-1.9512195121951221
14_52_39_394,0.0,1.0,2.0,1.0,-3.0,-1.0,0.0,0.0,0.9443359375,-0.3212890625,0.14404296875,-5.609756097560976,-0.853658536585366,-2.5
14_52_39_394,2.0,-4.0,0.0,3.0,1.0,-2.0,1.0,-3.0,0.92138671875,-0.32763671875,0.1494140625,-5.365853658536586,-1.2804878048780488,-3.231707317073171
14_52_39_394,1.0,-1.0,-5.0,-1.0,-2.0,-1.0,-3.0,-2.0,0.908203125,-0.29833984375,0.18505859375,-9.939024390243903,-1.707317073170732,0.7926829268292683
14_52_39_394,-3.0,-1.0,-1.0,1.0,0.0,-1.0,3.0,-3.0,0.9609375,-0.46142578125,0.3203125,-4.024390243902439,1.524390243902439,-2.6219512195121952
14_52_39_394,-1.0,3.0,-3.0,-3.0,2.0,-3.0,-2.0,-3.0,1.04443359375,-0.26904296875,-0.17724609375,-8.963414634146343,0.853658536585366,-0.9756097560975611
14_52_39_394,-3.0,3.0,-2.0,-1.0,1.0,-1.0,-1.0,1.0,1.43017578125,-0.07666015625,1.12744140625,-13.109756097560977,0.7926829268292683,-1.524390243902439
14_52_39_394,-1.0,-2.0,1.0,-2.0,-3.0,1.0,-5.0,-2.0,0.4873046875,-0.5419921875,-0.2822265625,-0.7926829268292683,0.24390243902439027,-5.487804878048781
14_52_39_394,-3.0,0.0,-2.0,-2.0,-1.0,2.0,2.0,-2.0,0.83984375,-0.3564453125,-0.48388671875,-6.707317073170732,0.7317073170731708,-2.25609756097561
14_52_39_448,0.0,-1.0,0.0,3.0,1.0,0.0,-4.0,-1.0,0.94775390625,-0.32177734375,0.14453125,-2.6219512195121952,-1.6463414634146343,-0.5487804878048781
14_52_39_448,1.0,-2.0,5.0,-2.0,-2.0,-1.0,-3.0,-4.0,0.94384765625,-0.3203125,0.13525390625,-3.1707317073170733,-1.0365853658536586,-1.0975609756097562
14_52_39_448,-3.0,0.0,1.0,-1.0,1.0,-1.0,3.0,0.0,0.94970703125,-0.32080078125,0.13134765625,-3.414634146341464,-0.9146341463414634,-1.6463414634146343
14_52_39_448,-1.0,-2.0,-2.0,-1.0,-3.0,-1.0,1.0,0.0,0.94384765625,-0.31640625,0.13720703125,-4.146341463414634,-0.9146341463414634,-1.9512195121951221
14_52_39_448,0.0,0.0,-2.0,0.0,-1.0,1.0,-1.0,1.0,0.9443359375,-0.3212890625,0.14404296875,-5.609756097560976,-0.853658536585366,-2.5
14_52_39_448,-4.0,0.0,0.0,-4.0,-1.0,-3.0,-3.0,0.0,0.92138671875,-0.32763671875,0.1494140625,-5.365853658536586,-1.2804878048780488,-3.231707317073171
14_52_39_448,0.0,-2.0,-1.0,5.0,0.0,0.0,2.0,0.0,0.908203125,-0.29833984375,0.18505859375,-9.939024390243903,-1.707317073170732,0.7926829268292683
14_52_39_448,1.0,-1.0,-1.0,-3.0,-5.0,-2.0,-1.0,0.0,0.9609375,-0.46142578125,0.3203125,-4.024390243902439,1.524390243902439,-2.6219512195121952
14_52_39_448,0.0,-3.0,-5.0,-3.0,1.0,1.0,1.0,-4.0,1.04443359375,-0.26904296875,-0.17724609375,-8.963414634146343,0.853658536585366,-0.9756097560975611
14_52_39_448,-1.0,-3.0,0.0,-4.0,-4.0,0.0,-1.0,-3.0,1.43017578125,-0.07666015625,1.12744140625,-13.109756097560977,0.7926829268292683,-1.524390243902439
14_52_39_502,1.0,0.0,-4.0,-2.0,1.0,-1.0,-3.0,-1.0,0.96142578125,-0.3623046875,0.16748046875,4.75609756097561,-1.9512195121951221,1.0975609756097562
14_52_39_502,-2.0,-2.0,-4.0,-1.0,-2.0,-1.0,1.0,-2.0,0.96240234375,-0.3505859375,0.17041015625,2.073170731707317,-3.048780487804878,1.402439024390244
14_52_39_502,-1.0,-5.0,-2.0,-1.0,5.0,-1.0,1.0,1.0,0.95849609375,-0.3330078125,0.1689453125,0.06097560975609757,-2.5609756097560976,1.0365853658536586
14_52_39_502,-1.0,1.0,-1.0,2.0,0.0,-3.0,-1.0,0.0,0.955078125,-0.31201171875,0.15185546875,-0.3658536585365854,-1.7682926829268295,0.426829268292683
14_52_39_502,0.0,0.0,0.0,-2.0,-1.0,-1.0,0.0,3.0,0.94775390625,-0.32177734375,0.14453125,-2.6219512195121952,-1.6463414634146343,-0.5487804878048781
14_52_39_502,-2.0,-1.0,3.0,-3.0,0.0,-3.0,-1.0,1.0,0.94384765625,-0.3203125,0.13525390625,-3.1707317073170733,-1.0365853658536586,-1.0975609756097562
14_52_39_502,1.0,-3.0,-2.0,1.0,-3.0,-3.0,1.0,-2.0,0.94970703125,-0.32080078125,0.13134765625,-3.414634146341464,-0.9146341463414634,-1.6463414634146343
14_52_39_502,-2.0,-2.0,-1.0,1.0,-2.0,0.0,-1.0,-3.0,0.94384765625,-0.31640625,0.13720703125,-4.146341463414634,-0.9146341463414634,-1.9512195121951221
14_52_39_502,1.0,-3.0,-1.0,-1.0,0.0,-1.0,0.0,-2.0,0.9443359375,-0.3212890625,0.14404296875,-5.609756097560976,-0.853658536585366,-2.5
14_52_39_502,-1.0,-1.0,3.0,-3.0,-4.0,2.0,1.0,-3.0,0.92138671875,-0.32763671875,0.1494140625,-5.365853658536586,-1.2804878048780488,-3.231707317073171
14_52_39_543,-1.0,-7.0,-2.0,-5.0,1.0,1.0,-1.0,-2.0,0.955078125,-0.3408203125,0.16455078125,2.8658536585365857,2.439024390243903,2.7439024390243905
14_52_39_543,0.0,-2.0,-1.0,-4.0,-1.0,0.0,-1.0,-2.0,0.9619140625,-0.34716796875,0.1669921875,5.060975609756098,-0.24390243902439027,1.5853658536585367
14_52_39_543,-2.0,0.0,1.0,5.0,2.0,0.0,1.0,-4.0,0.96142578125,-0.3623046875,0.16748046875,4.75609756097561,-1.9512195121951221,1.0975609756097562
14_52_39_543,1.0,-1.0,-5.0,-3.0,0.0,-2.0,-1.0,-1.0,0.96240234375,-0.3505859375,0.17041015625,2.073170731707317,-3.048780487804878,1.402439024390244
14_52_39_543,-1.0,-1.0,-1.0,-3.0,-6.0,-4.0,-1.0,-2.0,0.95849609375,-0.3330078125,0.1689453125,0.06097560975609757,-2.5609756097560976,1.0365853658536586
14_52_39_543,-1.0,-1.0,-1.0,5.0,6.0,1.0,-2.0,0.0,0.955078125,-0.31201171875,0.15185546875,-0.3658536585365854,-1.7682926829268295,0.426829268292683
14_52_39_543,0.0,-1.0,1.0,0.0,4.0,1.0,-3.0,0.0,0.94775390625,-0.32177734375,0.14453125,-2.6219512195121952,-1.6463414634146343,-0.5487804878048781
14_52_39_543,-1.0,1.0,-2.0,-2.0,-4.0,-1.0,0.0,-2.0,0.94384765625,-0.3203125,0.13525390625,-3.1707317073170733,-1.0365853658536586,-1.0975609756097562
14_52_39_543,3.0,0.0,-4.0,1.0,-1.0,-1.0,-3.0,1.0,0.94970703125,-0.32080078125,0.13134765625,-3.414634146341464,-0.9146341463414634,-1.6463414634146343
14_52_39_543,-1.0,-2.0,-1.0,-2.0,1.0,0.0,-3.0,-3.0,0.94384765625,-0.31640625,0.13720703125,-4.146341463414634,-0.9146341463414634,-1.9512195121951221
14_52_39_604,0.0,2.0,3.0,-1.0,1.0,0.0,1.0,-1.0,0.9482421875,-0.33642578125,0.15625,1.8902439024390245,5.3048780487804885,4.329268292682928
14_52_39_604,1.0,2.0,-3.0,2.0,1.0,-3.0,2.0,-2.0,0.955078125,-0.3408203125,0.16455078125,2.8658536585365857,2.439024390243903,2.7439024390243905
14_52_39_604,0.0,-2.0,-3.0,2.0,-2.0,-3.0,-2.0,-4.0,0.9619140625,-0.34716796875,0.1669921875,5.060975609756098,-0.24390243902439027,1.5853658536585367
14_52_39_604,0.0,-1.0,1.0,1.0,-1.0,0.0,-1.0,0.0,0.96142578125,-0.3623046875,0.16748046875,4.75609756097561,-1.9512195121951221,1.0975609756097562
14_52_39_604,-1.0,-3.0,-4.0,3.0,-1.0,-1.0,1.0,1.0,0.96240234375,-0.3505859375,0.17041015625,2.073170731707317,-3.048780487804878,1.402439024390244
14_52_39_604,-6.0,-3.0,0.0,0.0,1.0,0.0,2.0,0.0,0.95849609375,-0.3330078125,0.1689453125,0.06097560975609757,-2.5609756097560976,1.0365853658536586
14_52_39_604,-1.0,-1.0,-2.0,-1.0,1.0,0.0,0.0,-3.0,0.955078125,-0.31201171875,0.15185546875,-0.3658536585365854,-1.7682926829268295,0.426829268292683
14_52_39_604,2.0,0.0,-3.0,-3.0,-4.0,-2.0,-3.0,0.0,0.94775390625,-0.32177734375,0.14453125,-2.6219512195121952,-1.6463414634146343,-0.5487804878048781
14_52_39_604,-3.0,0.0,1.0,-3.0,3.0,0.0,0.0,3.0,0.94384765625,-0.3203125,0.13525390625,-3.1707317073170733,-1.0365853658536586,-1.0975609756097562
14_52_39_657,0.0,3.0,1.0,0.0,-1.0,0.0,-2.0,0.0,0.939453125,-0.32958984375,0.14892578125,-4.329268292682928,16.951219512195124,11.28048780487805
14_52_39_657,1.0,5.0,1.0,1.0,2.0,0.0,0.0,1.0,0.92626953125,-0.314453125,0.16162109375,-1.2804878048780488,14.51219512195122,10.30487804878049
14_52_39_657,0.0,-2.0,1.0,-1.0,-4.0,-1.0,-2.0,-2.0,0.92236328125,-0.31396484375,0.171875,2.25609756097561,11.890243902439025,8.353658536585366
14_52_39_657,0.0,0.0,-4.0,0.0,-4.0,-1.0,-2.0,-1.0,0.9296875,-0.31982421875,0.1630859375,2.682926829268293,8.719512195121952,5.853658536585367
14_52_39_657,-1.0,-2.0,0.0,-2.0,-2.0,1.0,1.0,-1.0,0.9482421875,-0.33642578125,0.15625,1.8902439024390245,5.3048780487804885,4.329268292682928
14_52_39_657,0.0,-1.0,0.0,6.0,3.0,-2.0,-4.0,1.0,0.955078125,-0.3408203125,0.16455078125,2.8658536585365857,2.439024390243903,2.7439024390243905
14_52_39_657,0.0,-4.0,2.0,-6.0,-6.0,-7.0,-1.0,-2.0,0.9619140625,-0.34716796875,0.1669921875,5.060975609756098,-0.24390243902439027,1.5853658536585367
14_52_39_657,-1.0,-4.0,-1.0,-2.0,-3.0,-1.0,0.0,-3.0,0.96142578125,-0.3623046875,0.16748046875,4.75609756097561,-1.9512195121951221,1.0975609756097562
14_52_39_657,-3.0,-2.0,-6.0,-6.0,-1.0,-1.0,-1.0,0.0,0.96240234375,-0.3505859375,0.17041015625,2.073170731707317,-3.048780487804878,1.402439024390244
14_52_39_657,-1.0,-2.0,0.0,-1.0,1.0,2.0,-3.0,-2.0,0.95849609375,-0.3330078125,0.1689453125,0.06097560975609757,-2.5609756097560976,1.0365853658536586
14_52_39_694,-3.0,-5.0,-2.0,-3.0,-1.0,-2.0,0.0,-1.0,0.939453125,-0.32958984375,0.14892578125,-4.329268292682928,16.951219512195124,11.28048780487805
14_52_39_694,-3.0,0.0,2.0,-1.0,1.0,-1.0,0.0,-2.0,0.92626953125,-0.314453125,0.16162109375,-1.2804878048780488,14.51219512195122,10.30487804878049
14_52_39_694,1.0,0.0,-2.0,2.0,-1.0,2.0,1.0,0.0,0.92236328125,-0.31396484375,0.171875,2.25609756097561,11.890243902439025,8.353658536585366
14_52_39_694,0.0,2.0,1.0,3.0,-1.0,2.0,-1.0,1.0,0.9296875,-0.31982421875,0.1630859375,2.682926829268293,8.719512195121952,5.853658536585367
14_52_39_694,0.0,-12.0,-2.0,-2.0,1.0,-4.0,-1.0,0.0,0.9482421875,-0.33642578125,0.15625,1.8902439024390245,5.3048780487804885,4.329268292682928
14_52_39_694,0.0,3.0,1.0,0.0,-1.0,0.0,-2.0,0.0,0.955078125,-0.3408203125,0.16455078125,2.8658536585365857,2.439024390243903,2.7439024390243905
14_52_39_694,1.0,5.0,1.0,1.0,2.0,0.0,0.0,1.0,0.9619140625,-0.34716796875,0.1669921875,5.060975609756098,-0.24390243902439027,1.5853658536585367
14_52_39_764,-2.0,-2.0,-1.0,-3.0,-4.0,-1.0,-3.0,-2.0,0.93505859375,-0.34521484375,0.1640625,-10.670731707317074,22.926829268292686,10.426829268292684
14_52_39_764,-3.0,-3.0,0.0,-3.0,0.0,-2.0,-2.0,-2.0,0.94189453125,-0.3505859375,0.16015625,-10.487804878048781,22.98780487804878,11.341463414634147
14_52_39_764,-4.0,-2.0,0.0,-6.0,1.0,-1.0,2.0,-3.0,0.94775390625,-0.345703125,0.1533203125,-9.878048780487806,22.439024390243905,11.951219512195124
14_52_39_764,-3.0,-2.0,-2.0,-6.0,-2.0,-3.0,-2.0,2.0,0.953125,-0.3349609375,0.14599609375,-7.865853658536586,21.34146341463415,12.500000000000002
14_52_39_764,0.0,0.0,3.0,-2.0,-3.0,-1.0,-2.0,-2.0,0.94482421875,-0.33203125,0.15234375,-5.7926829268292686,19.26829268292683,12.134146341463415
14_52_39_764,2.0,-1.0,-2.0,8.0,6.0,1.0,1.0,-2.0,0.939453125,-0.32958984375,0.14892578125,-4.329268292682928,16.951219512195124,11.28048780487805
14_52_39_764,-2.0,-2.0,-1.0,-2.0,-6.0,-3.0,1.0,-1.0,0.92626953125,-0.314453125,0.16162109375,-1.2804878048780488,14.51219512195122,10.30487804878049
14_52_39_764,0.0,2.0,4.0,0.0,-1.0,0.0,0.0,0.0,0.92236328125,-0.31396484375,0.171875,2.25609756097561,11.890243902439025,8.353658536585366
14_52_39_764,-1.0,1.0,1.0,1.0,0.0,0.0,-1.0,-1.0,0.9296875,-0.31982421875,0.1630859375,2.682926829268293,8.719512195121952,5.853658536585367
14_52_39_764,-1.0,-1.0,-1.0,-2.0,-2.0,-3.0,-1.0,-1.0,0.9482421875,-0.33642578125,0.15625,1.8902439024390245,5.3048780487804885,4.329268292682928
14_52_39_802,-2.0,-2.0,-1.0,-7.0,3.0,-3.0,2.0,-1.0,0.90771484375,-0.376953125,0.19921875,-8.170731707317074,18.10975609756098,5.487804878048781
14_52_39_802,2.0,3.0,3.0,4.0,1.0,1.0,-2.0,1.0,0.90673828125,-0.3564453125,0.1923828125,-9.878048780487806,20.365853658536587,7.743902439024391
14_52_39_802,-1.0,1.0,0.0,-2.0,1.0,-2.0,2.0,1.0,0.9267578125,-0.34716796875,0.1826171875,-11.28048780487805,22.25609756097561,9.329268292682928
14_52_39_802,-2.0,3.0,6.0,-1.0,-5.0,0.0,-1.0,1.0,0.93505859375,-0.34521484375,0.1640625,-10.670731707317074,22.926829268292686,10.426829268292684
14_52_39_802,-1.0,-1.0,-7.0,-5.0,4.0,-1.0,-5.0,-3.0,0.94189453125,-0.3505859375,0.16015625,-10.487804878048781,22.98780487804878,11.341463414634147
14_52_39_802,2.0,-5.0,-1.0,-7.0,-1.0,-2.0,-3.0,-3.0,0.94775390625,-0.345703125,0.1533203125,-9.878048780487806,22.439024390243905,11.951219512195124
14_52_39_802,0.0,3.0,1.0,14.0,3.0,1.0,-1.0,-4.0,0.953125,-0.3349609375,0.14599609375,-7.865853658536586,21.34146341463415,12.500000000000002
14_52_39_802,-2.0,2.0,-2.0,-8.0,-4.0,-2.0,-3.0,-3.0,0.94482421875,-0.33203125,0.15234375,-5.7926829268292686,19.26829268292683,12.134146341463415
14_52_39_802,-4.0,-4.0,-2.0,3.0,2.0,-2.0,0.0,2.0,0.939453125,-0.32958984375,0.14892578125,-4.329268292682928,16.951219512195124,11.28048780487805
14_52_39_802,0.0,-1.0,1.0,8.0,0.0,3.0,-5.0,-1.0,0.92626953125,-0.314453125,0.16162109375,-1.2804878048780488,14.51219512195122,10.30487804878049
14_52_39_854,1.0,3.0,0.0,6.0,4.0,2.0,-2.0,1.0,0.90087890625,-0.37744140625,0.201171875,-5.060975609756098,16.158536585365855,2.378048780487805
14_52_39_854,0.0,-1.0,1.0,-1.0,-4.0,0.0,0.0,0.0,0.90771484375,-0.376953125,0.19921875,-8.170731707317074,18.10975609756098,5.487804878048781
14_52_39_854,-1.0,-4.0,-3.0,-7.0,1.0,1.0,-1.0,-1.0,0.90673828125,-0.3564453125,0.1923828125,-9.878048780487806,20.365853658536587,7.743902439024391
14_52_39_854,-1.0,-1.0,1.0,-9.0,-2.0,0.0,0.0,0.0,0.9267578125,-0.34716796875,0.1826171875,-11.28048780487805,22.25609756097561,9.329268292682928
14_52_39_854,-1.0,0.0,0.0,12.0,7.0,1.0,1.0,-1.0,0.93505859375,-0.34521484375,0.1640625,-10.670731707317074,22.926829268292686,10.426829268292684
14_52_39_854,0.0,-3.0,2.0,-4.0,-5.0,-4.0,-3.0,0.0,0.94189453125,-0.3505859375,0.16015625,-10.487804878048781,22.98780487804878,11.341463414634147
14_52_39_854,-2.0,-2.0,-1.0,-7.0,3.0,-3.0,2.0,-1.0,0.94775390625,-0.345703125,0.1533203125,-9.878048780487806,22.439024390243905,11.951219512195124
14_52_39_854,2.0,3.0,3.0,4.0,1.0,1.0,-2.0,1.0,0.953125,-0.3349609375,0.14599609375,-7.865853658536586,21.34146341463415,12.500000000000002
14_52_39_854,-1.0,1.0,0.0,-2.0,1.0,-2.0,2.0,1.0,0.94482421875,-0.33203125,0.15234375,-5.7926829268292686,19.26829268292683,12.134146341463415
14_52_39_854,-2.0,3.0,6.0,-1.0,-5.0,0.0,-1.0,1.0,0.939453125,-0.32958984375,0.14892578125,-4.329268292682928,16.951219512195124,11.28048780487805
14_52_39_904,0.0,0.0,1.0,12.0,-2.0,-5.0,0.0,-1.0,0.916015625,-0.36572265625,0.27587890625,-14.451219512195124,11.76829268292683,0.9756097560975611
14_52_39_904,2.0,0.0,3.0,-11.0,-2.0,-1.0,1.0,-2.0,0.908203125,-0.3369140625,0.244140625,-14.817073170731708,13.109756097560977,0.1829268292682927
14_52_39_904,-4.0,-3.0,-11.0,-16.0,-6.0,-2.0,2.0,-3.0,0.9013671875,-0.3251953125,0.2294921875,-7.560975609756098,14.756097560975611,0.30487804878048785
14_52_39_904,-1.0,0.0,1.0,25.0,11.0,5.0,-1.0,0.0,0.8994140625,-0.353515625,0.20751953125,-3.9024390243902443,14.51219512195122,0.48780487804878053
14_52_39_904,-2.0,-12.0,-5.0,-14.0,-5.0,-3.0,-1.0,-2.0,0.90087890625,-0.37744140625,0.201171875,-5.060975609756098,16.158536585365855,2.378048780487805
14_52_39_904,0.0,-1.0,1.0,0.0,-4.0,-2.0,0.0,-1.0,0.90771484375,-0.376953125,0.19921875,-8.170731707317074,18.10975609756098,5.487804878048781
14_52_39_904,-1.0,3.0,1.0,2.0,0.0,-2.0,0.0,-2.0,0.90673828125,-0.3564453125,0.1923828125,-9.878048780487806,20.365853658536587,7.743902439024391
14_52_39_904,0.0,-4.0,2.0,13.0,5.0,-1.0,0.0,2.0,0.9267578125,-0.34716796875,0.1826171875,-11.28048780487805,22.25609756097561,9.329268292682928
14_52_39_904,-2.0,-1.0,-4.0,-3.0,-7.0,-1.0,-2.0,-3.0,0.93505859375,-0.34521484375,0.1640625,-10.670731707317074,22.926829268292686,10.426829268292684
14_52_39_904,-2.0,3.0,-3.0,3.0,-7.0,1.0,-1.0,-2.0,0.94189453125,-0.3505859375,0.16015625,-10.487804878048781,22.98780487804878,11.341463414634147
14_52_39_946,0.0,1.0,-2.0,19.0,2.0,0.0,-3.0,1.0,0.923828125,-0.388671875,0.30908203125,-2.073170731707317,10.30487804878049,0.06097560975609757
14_52_39_946,2.0,5.0,0.0,-5.0,-5.0,0.0,1.0,-2.0,0.9208984375,-0.39013671875,0.29638671875,-7.926829268292684,10.487804878048781,0.1829268292682927
14_52_39_946,-2.0,-4.0,-4.0,-5.0,-6.0,-1.0,0.0,-3.0,0.916015625,-0.36572265625,0.27587890625,-14.451219512195124,11.76829268292683,0.9756097560975611
14_52_39_946,-1.0,-2.0,-6.0,6.0,-3.0,0.0,-5.0,2.0,0.908203125,-0.3369140625,0.244140625,-14.817073170731708,13.109756097560977,0.1829268292682927
14_52_39_946,-1.0,-6.0,4.0,-3.0,-1.0,0.0,1.0,1.0,0.9013671875,-0.3251953125,0.2294921875,-7.560975609756098,14.756097560975611,0.30487804878048785
14_52_39_946,1.0,-3.0,0.0,2.0,4.0,0.0,-1.0,-1.0,0.8994140625,-0.353515625,0.20751953125,-3.9024390243902443,14.51219512195122,0.48780487804878053
14_52_39_946,1.0,-1.0,3.0,-4.0,-4.0,0.0,-3.0,2.0,0.90087890625,-0.37744140625,0.201171875,-5.060975609756098,16.158536585365855,2.378048780487805
14_52_39_946,-1.0,-3.0,5.0,-1.0,-1.0,-4.0,-3.0,-2.0,0.90771484375,-0.376953125,0.19921875,-8.170731707317074,18.10975609756098,5.487804878048781
14_52_39_946,-1.0,0.0,-8.0,-6.0,0.0,-4.0,-3.0,-2.0,0.90673828125,-0.3564453125,0.1923828125,-9.878048780487806,20.365853658536587,7.743902439024391
14_52_39_946,-2.0,-1.0,-1.0,-3.0,3.0,1.0,3.0,0.0,0.9267578125,-0.34716796875,0.1826171875,-11.28048780487805,22.25609756097561,9.329268292682928
14_52_40_015,-2.0,-3.0,6.0,1.0,0.0,-2.0,-1.0,-2.0,0.87744140625,-0.35498046875,0.31689453125,-0.7926829268292683,9.085365853658537,3.536585365853659
14_52_40_015,0.0,2.0,-41.0,-6.0,-2.0,-1.0,2.0,2.0,0.9013671875,-0.3701171875,0.3125,0.06097560975609757,9.878048780487806,1.2804878048780488
14_52_40_015,1.0,1.0,10.0,17.0,9.0,2.0,-1.0,-1.0,0.923828125,-0.388671875,0.30908203125,-2.073170731707317,10.30487804878049,0.06097560975609757
14_52_40_015,-1.0,2.0,-2.0,9.0,3.0,-2.0,-3.0,0.0,0.9208984375,-0.39013671875,0.29638671875,-7.926829268292684,10.487804878048781,0.1829268292682927
14_52_40_015,-1.0,1.0,0.0,0.0,-1.0,-1.0,-1.0,1.0,0.916015625,-0.36572265625,0.27587890625,-14.451219512195124,11.76829268292683,0.9756097560975611
14_52_40_015,1.0,1.0,-14.0,12.0,4.0,-2.0,-2.0,2.0,0.908203125,-0.3369140625,0.244140625,-14.817073170731708,13.109756097560977,0.1829268292682927
14_52_40_015,-1.0,-1.0,11.0,0.0,-1.0,-1.0,-1.0,-2.0,0.9013671875,-0.3251953125,0.2294921875,-7.560975609756098,14.756097560975611,0.30487804878048785
14_52_40_015,-2.0,-2.0,-8.0,-7.0,2.0,-2.0,0.0,-4.0,0.8994140625,-0.353515625,0.20751953125,-3.9024390243902443,14.51219512195122,0.48780487804878053
14_52_40_015,0.0,1.0,-2.0,19.0,2.0,0.0,-3.0,1.0,0.90087890625,-0.37744140625,0.201171875,-5.060975609756098,16.158536585365855,2.378048780487805
14_52_40_015,2.0,5.0,0.0,-5.0,-5.0,0.0,1.0,-2.0,0.90771484375,-0.376953125,0.19921875,-8.170731707317074,18.10975609756098,5.487804878048781
14_52_40_057,-1.0,-2.0,-13.0,-5.0,1.0,0.0,-1.0,-3.0,0.83544921875,-0.36572265625,0.318359375,0.9756097560975611,9.207317073170733,6.646341463414635
14_52_40_057,-2.0,-5.0,7.0,4.0,0.0,-1.0,0.0,-1.0,0.84521484375,-0.365234375,0.330078125,-3.2926829268292686,8.536585365853659,5.426829268292684
14_52_40_057,-1.0,3.0,7.0,-4.0,-2.0,-3.0,-8.0,-2.0,0.86474609375,-0.35400390625,0.3154296875,-3.353658536585366,8.597560975609756,4.573170731707317
14_52_40_057,-2.0,0.0,-6.0,4.0,0.0,-4.0,2.0,-3.0,0.87744140625,-0.35498046875,0.31689453125,-0.7926829268292683,9.085365853658537,3.536585365853659
14_52_40_057,0.0,0.0,-1.0,8.0,-2.0,0.0,-3.0,-2.0,0.9013671875,-0.3701171875,0.3125,0.06097560975609757,9.878048780487806,1.2804878048780488
14_52_40_057,3.0,-1.0,-2.0,-15.0,7.0,1.0,1.0,-1.0,0.923828125,-0.388671875,0.30908203125,-2.073170731707317,10.30487804878049,0.06097560975609757
14_52_40_057,-2.0,0.0,23.0,0.0,-3.0,1.0,-3.0,-1.0,0.9208984375,-0.39013671875,0.29638671875,-7.926829268292684,10.487804878048781,0.1829268292682927
14_52_40_057,-2.0,0.0,-3.0,9.0,-1.0,0.0,-2.0,-1.0,0.916015625,-0.36572265625,0.27587890625,-14.451219512195124,11.76829268292683,0.9756097560975611
14_52_40_057,1.0,-2.0,-1.0,-13.0,-1.0,0.0,0.0,-1.0,0.908203125,-0.3369140625,0.244140625,-14.817073170731708,13.109756097560977,0.1829268292682927
14_52_40_057,-1.0,1.0,2.0,12.0,2.0,-2.0,0.0,-3.0,0.9013671875,-0.3251953125,0.2294921875,-7.560975609756098,14.756097560975611,0.30487804878048785
14_52_40_098,-2.0,-1.0,-4.0,-9.0,-3.0,-1.0,-3.0,-3.0,0.8154296875,-0.38037109375,0.3505859375,4.51219512195122,10.30487804878049,6.036585365853659
14_52_40_098,-1.0,6.0,14.0,1.0,-1.0,3.0,-1.0,2.0,0.82177734375,-0.37158203125,0.33251953125,2.439024390243903,9.817073170731708,6.158536585365854
14_52_40_098,0.0,-1.0,-1.0,-6.0,-3.0,-1.0,2.0,-2.0,0.83544921875,-0.36572265625,0.318359375,0.9756097560975611,9.207317073170733,6.646341463414635
14_52_40_098,-2.0,-3.0,-4.0,6.0,0.0,-3.0,0.0,-1.0,0.84521484375,-0.365234375,0.330078125,-3.2926829268292686,8.536585365853659,5.426829268292684
14_52_40_098,-2.0,-16.0,-4.0,0.0,0.0,-2.0,1.0,2.0,0.86474609375,-0.35400390625,0.3154296875,-3.353658536585366,8.597560975609756,4.573170731707317
14_52_40_098,2.0,5.0,1.0,-5.0,0.0,-3.0,-1.0,0.0,0.87744140625,-0.35498046875,0.31689453125,-0.7926829268292683,9.085365853658537,3.536585365853659
14_52_40_098,-1.0,-2.0,-13.0,-5.0,1.0,0.0,-1.0,-3.0,0.9013671875,-0.3701171875,0.3125,0.06097560975609757,9.878048780487806,1.2804878048780488
14_52_40_098,-2.0,-5.0,7.0,4.0,0.0,-1.0,0.0,-1.0,0.923828125,-0.388671875,0.30908203125,-2.073170731707317,10.30487804878049,0.06097560975609757
14_52_40_098,-1.0,3.0,7.0,-4.0,-2.0,-3.0,-8.0,-2.0,0.9208984375,-0.39013671875,0.29638671875,-7.926829268292684,10.487804878048781,0.1829268292682927
14_52_40_098,-2.0,0.0,-6.0,4.0,0.0,-4.0,2.0,-3.0,0.916015625,-0.36572265625,0.27587890625,-14.451219512195124,11.76829268292683,0.9756097560975611
14_52_40_166,-1.0,2.0,-3.0,-6.0,-2.0,-3.0,-2.0,-2.0,0.8369140625,-0.3623046875,0.37646484375,-1.402439024390244,12.865853658536587,9.085365853658537
14_52_40_166,-2.0,-8.0,0.0,-5.0,-2.0,-2.0,-2.0,0.0,0.83056640625,-0.3525390625,0.35986328125,2.3170731707317076,11.219512195121952,7.682926829268293
14_52_40_166,0.0,4.0,0.0,-2.0,0.0,2.0,-1.0,1.0,0.8154296875,-0.38037109375,0.3505859375,4.51219512195122,10.30487804878049,6.036585365853659
14_52_40_166,-1.0,-2.0,-4.0,-16.0,-5.0,-2.0,-1.0,0.0,0.82177734375,-0.37158203125,0.33251953125,2.439024390243903,9.817073170731708,6.158536585365854
14_52_40_166,-3.0,2.0,3.0,2.0,-2.0,-3.0,-4.0,-4.0,0.83544921875,-0.36572265625,0.318359375,0.9756097560975611,9.207317073170733,6.646341463414635
14_52_40_166,-1.0,-2.0,1.0,10.0,5.0,0.0,-4.0,0.0,0.84521484375,-0.365234375,0.330078125,-3.2926829268292686,8.536585365853659,5.426829268292684
14_52_40_166,2.0,1.0,2.0,-6.0,0.0,-1.0,-2.0,-4.0,0.86474609375,-0.35400390625,0.3154296875,-3.353658536585366,8.597560975609756,4.573170731707317
14_52_40_166,-4.0,-3.0,12.0,2.0,-2.0,1.0,-1.0,2.0,0.87744140625,-0.35498046875,0.31689453125,-0.7926829268292683,9.085365853658537,3.536585365853659
14_52_40_166,-2.0,-1.0,-4.0,-9.0,-3.0,-1.0,-3.0,-3.0,0.9013671875,-0.3701171875,0.3125,0.06097560975609757,9.878048780487806,1.2804878048780488
14_52_40_166,-1.0,6.0,14.0,1.0,-1.0,3.0,-1.0,2.0,0.923828125,-0.388671875,0.30908203125,-2.073170731707317,10.30487804878049,0.06097560975609757
14_52_40_202,-3.0,3.0,6.0,-8.0,-6.0,-3.0,-1.0,-5.0,0.7890625,-0.37548828125,0.41796875,8.78048780487805,15.609756097560977,14.26829268292683
14_52_40_202,-1.0,-2.0,-5.0,2.0,5.0,-5.0,-2.0,-3.0,0.81005859375,-0.38525390625,0.41796875,8.048780487804878,14.26829268292683,11.951219512195124
14_52_40_202,0.0,0.0,4.0,4.0,5.0,-1.0,2.0,0.0,0.8310546875,-0.40966796875,0.40673828125,1.2195121951219514,12.682926829268293,10.24390243902439
14_52_40_202,2.0,2.0,-6.0,-1.0,-6.0,-3.0,0.0,-5.0,0.8359375,-0.39990234375,0.38671875,-3.2926829268292686,12.987804878048781,9.939024390243903
14_52_40_202,0.0,-1.0,7.0,24.0,7.0,0.0,0.0,-1.0,0.8369140625,-0.3623046875,0.37646484375,-1.402439024390244,12.865853658536587,9.085365853658537
14_52_40_202,2.0,-1.0,2.0,-15.0,-6.0,-3.0,-2.0,-2.0,0.83056640625,-0.3525390625,0.35986328125,2.3170731707317076,11.219512195121952,7.682926829268293
14_52_40_202,-2.0,0.0,-17.0,-4.0,0.0,-2.0,2.0,-1.0,0.8154296875,-0.38037109375,0.3505859375,4.51219512195122,10.30487804878049,6.036585365853659
14_52_40_202,0.0,-3.0,13.0,1.0,-2.0,-1.0,-1.0,1.0,0.82177734375,-0.37158203125,0.33251953125,2.439024390243903,9.817073170731708,6.158536585365854
14_52_40_202,-3.0,8.0,-4.0,-3.0,-4.0,-1.0,-2.0,-1.0,0.83544921875,-0.36572265625,0.318359375,0.9756097560975611,9.207317073170733,6.646341463414635
14_52_40_202,-4.0,-6.0,-2.0,-7.0,-7.0,-6.0,-5.0,-4.0,0.84521484375,-0.365234375,0.330078125,-3.2926829268292686,8.536585365853659,5.426829268292684
14_52_40_271,-2.0,-7.0,12.0,-2.0,3.0,1.0,1.0,3.0,0.78515625,-0.38134765625,0.42529296875,8.048780487804878,17.682926829268293,16.52439024390244
14_52_40_271,-3.0,-1.0,-5.0,32.0,7.0,2.0,1.0,-3.0,0.7890625,-0.37548828125,0.41796875,8.78048780487805,15.609756097560977,14.26829268292683
14_52_40_271,0.0,-3.0,4.0,-15.0,-5.0,-2.0,0.0,-5.0,0.81005859375,-0.38525390625,0.41796875,8.048780487804878,14.26829268292683,11.951219512195124
14_52_40_271,1.0,-1.0,-1.0,0.0,1.0,-1.0,-4.0,-1.0,0.8310546875,-0.40966796875,0.40673828125,1.2195121951219514,12.682926829268293,10.24390243902439
14_52_40_271,0.0,1.0,-1.0,9.0,2.0,-2.0,-1.0,2.0,0.8359375,-0.39990234375,0.38671875,-3.2926829268292686,12.987804878048781,9.939024390243903
14_52_40_271,-1.0,-4.0,-1.0,3.0,-2.0,4.0,-2.0,-1.0,0.8369140625,-0.3623046875,0.37646484375,-1.402439024390244,12.865853658536587,9.085365853658537
14_52_40_271,-3.0,3.0,6.0,-8.0,-6.0,-3.0,-1.0,-5.0,0.83056640625,-0.3525390625,0.35986328125,2.3170731707317076,11.219512195121952,7.682926829268293
14_52_40_271,-1.0,-2.0,-5.0,2.0,5.0,-5.0,-2.0,-3.0,0.8154296875,-0.38037109375,0.3505859375,4.51219512195122,10.30487804878049,6.036585365853659
14_52_40_271,0.0,0.0,4.0,4.0,5.0,-1.0,2.0,0.0,0.82177734375,-0.37158203125,0.33251953125,2.439024390243903,9.817073170731708,6.158536585365854
14_52_40_271,2.0,2.0,-6.0,-1.0,-6.0,-3.0,0.0,-5.0,0.83544921875,-0.36572265625,0.318359375,0.9756097560975611,9.207317073170733,6.646341463414635
14_52_40_315,1.0,-2.0,-14.0,-4.0,-4.0,-2.0,2.0,-5.0,0.77587890625,-0.43212890625,0.4140625,1.6463414634146343,22.134146341463417,19.085365853658537
14_52_40_315,-2.0,4.0,-3.0,-1.0,5.0,-2.0,-3.0,-1.0,0.78759765625,-0.4208984375,0.4013671875,3.414634146341464,21.03658536585366,17.195121951219512
14_52_40_315,2.0,9.0,20.0,1.0,-5.0,-3.0,-1.0,0.0,0.794921875,-0.41748046875,0.40576171875,6.2804878048780495,19.573170731707318,17.25609756097561
14_52_40_315,-2.0,-11.0,-33.0,-6.0,-1.0,-2.0,-3.0,0.0,0.7890625,-0.40625,0.421875,7.682926829268293,18.963414634146343,17.865853658536587
14_52_40_315,-1.0,5.0,4.0,-6.0,1.0,-3.0,0.0,-1.0,0.78515625,-0.38134765625,0.42529296875,8.048780487804878,17.682926829268293,16.52439024390244
14_52_40_315,-2.0,1.0,0.0,0.0,1.0,2.0,-2.0,1.0,0.7890625,-0.37548828125,0.41796875,8.78048780487805,15.609756097560977,14.26829268292683
14_52_40_315,-1.0,-6.0,-1.0,-6.0,-2.0,-1.0,0.0,-3.0,0.81005859375,-0.38525390625,0.41796875,8.048780487804878,14.26829268292683,11.951219512195124
14_52_40_315,1.0,2.0,0.0,-3.0,-1.0,1.0,0.0,-1.0,0.8310546875,-0.40966796875,0.40673828125,1.2195121951219514,12.682926829268293,10.24390243902439
14_52_40_315,-2.0,-1.0,-1.0,6.0,4.0,-2.0,-5.0,0.0,0.8359375,-0.39990234375,0.38671875,-3.2926829268292686,12.987804878048781,9.939024390243903
14_52_40_315,3.0,-4.0,-15.0,1.0,1.0,0.0,-1.0,-1.0,0.8369140625,-0.3623046875,0.37646484375,-1.402439024390244,12.865853658536587,9.085365853658537
14_52_40_355,1.0,1.0,-8.0,-4.0,-4.0,0.0,1.0,1.0,0.71044921875,-0.4150390625,0.40966796875,-0.6097560975609757,21.097560975609756,27.80487804878049
14_52_40_355,-2.0,1.0,13.0,-3.0,1.0,-2.0,-3.0,0.0,0.73681640625,-0.400390625,0.4169921875,-0.1829268292682927,22.439024390243905,24.146341463414636
14_52_40_355,-2.0,5.0,-6.0,-2.0,-3.0,-4.0,0.0,-3.0,0.7578125,-0.4130859375,0.41064453125,1.829268292682927,22.378048780487806,21.158536585365855
14_52_40_355,-2.0,1.0,-3.0,11.0,4.0,0.0,4.0,0.0,0.77587890625,-0.43212890625,0.4140625,1.6463414634146343,22.134146341463417,19.085365853658537
14_52_40_355,-1.0,4.0,5.0,-9.0,-10.0,-4.0,-2.0,0.0,0.78759765625,-0.4208984375,0.4013671875,3.414634146341464,21.03658536585366,17.195121951219512
14_52_40_355,-1.0,-6.0,-9.0,-11.0,-1.0,-1.0,-2.0,0.0,0.794921875,-0.41748046875,0.40576171875,6.2804878048780495,19.573170731707318,17.25609756097561
14_52_40_355,1.0,-2.0,4.0,0.0,-3.0,0.0,3.0,0.0,0.7890625,-0.40625,0.421875,7.682926829268293,18.963414634146343,17.865853658536587
14_52_40_355,1.0,3.0,-3.0,-3.0,2.0,1.0,0.0,3.0,0.78515625,-0.38134765625,0.42529296875,8.048780487804878,17.682926829268293,16.52439024390244
14_52_40_355,2.0,-4.0,-13.0,-2.0,-3.0,-2.0,-2.0,-1.0,0.7890625,-0.37548828125,0.41796875,8.78048780487805,15.609756097560977,14.26829268292683
14_52_40_355,-2.0,-7.0,-34.0,-16.0,-5.0,-3.0,-5.0,-3.0,0.81005859375,-0.38525390625,0.41796875,8.048780487804878,14.26829268292683,11.951219512195124
14_52_40_426,1.0,0.0,2.0,19.0,8.0,3.0,2.0,-7.0,0.76513671875,-0.55078125,0.43310546875,-0.7926829268292683,15.487804878048783,29.26829268292683
14_52_40_426,-2.0,3.0,7.0,4.0,2.0,0.0,0.0,-1.0,0.71630859375,-0.451171875,0.419921875,-0.12195121951219513,19.26829268292683,30.121951219512198
14_52_40_426,4.0,6.0,15.0,-6.0,-5.0,2.0,-3.0,-4.0,0.71044921875,-0.4150390625,0.40966796875,-0.6097560975609757,21.097560975609756,27.80487804878049
14_52_40_426,-1.0,-1.0,-2.0,-4.0,-1.0,2.0,1.0,0.0,0.73681640625,-0.400390625,0.4169921875,-0.1829268292682927,22.439024390243905,24.146341463414636
14_52_40_426,0.0,0.0,11.0,0.0,-5.0,0.0,0.0,-2.0,0.7578125,-0.4130859375,0.41064453125,1.829268292682927,22.378048780487806,21.158536585365855
14_52_40_426,-4.0,3.0,12.0,2.0,0.0,1.0,0.0,0.0,0.77587890625,-0.43212890625,0.4140625,1.6463414634146343,22.134146341463417,19.085365853658537
14_52_40_426,1.0,1.0,-8.0,-4.0,-4.0,0.0,1.0,1.0,0.78759765625,-0.4208984375,0.4013671875,3.414634146341464,21.03658536585366,17.195121951219512
14_52_40_426,-2.0,1.0,13.0,-3.0,1.0,-2.0,-3.0,0.0,0.794921875,-0.41748046875,0.40576171875,6.2804878048780495,19.573170731707318,17.25609756097561
14_52_40_426,-2.0,5.0,-6.0,-2.0,-3.0,-4.0,0.0,-3.0,0.7890625,-0.40625,0.421875,7.682926829268293,18.963414634146343,17.865853658536587
14_52_40_426,-2.0,1.0,-3.0,11.0,4.0,0.0,4.0,0.0,0.78515625,-0.38134765625,0.42529296875,8.048780487804878,17.682926829268293,16.52439024390244
14_52_40_455,1.0,-4.0,-4.0,-5.0,-2.0,1.0,1.0,-4.0,0.9091796875,-0.58544921875,0.4072265625,9.695121951219512,6.829268292682928,19.146341463414636
14_52_40_455,-2.0,-6.0,-13.0,0.0,-2.0,-3.0,-2.0,-3.0,0.85693359375,-0.6044921875,0.41552734375,2.5609756097560976,9.756097560975611,23.658536585365855
14_52_40_455,0.0,5.0,22.0,9.0,-1.0,-2.0,1.0,0.0,0.76513671875,-0.55078125,0.43310546875,-0.7926829268292683,15.487804878048783,29.26829268292683
14_52_40_455,-3.0,-4.0,-66.0,-16.0,-7.0,-4.0,-1.0,-1.0,0.71630859375,-0.451171875,0.419921875,-0.12195121951219513,19.26829268292683,30.121951219512198
14_52_40_455,-3.0,0.0,17.0,-10.0,-5.0,-1.0,0.0,3.0,0.71044921875,-0.4150390625,0.40966796875,-0.6097560975609757,21.097560975609756,27.80487804878049
14_52_40_455,2.0,-3.0,-7.0,-8.0,-3.0,-5.0,1.0,-3.0,0.73681640625,-0.400390625,0.4169921875,-0.1829268292682927,22.439024390243905,24.146341463414636
14_52_40_455,2.0,5.0,5.0,18.0,4.0,2.0,0.0,0.0,0.7578125,-0.4130859375,0.41064453125,1.829268292682927,22.378048780487806,21.158536585365855
14_52_40_455,-7.0,-35.0,-1.0,-28.0,-10.0,0.0,0.0,-6.0,0.77587890625,-0.43212890625,0.4140625,1.6463414634146343,22.134146341463417,19.085365853658537
14_52_40_455,1.0,10.0,1.0,2.0,10.0,1.0,5.0,2.0,0.78759765625,-0.4208984375,0.4013671875,3.414634146341464,21.03658536585366,17.195121951219512
14_52_40_455,-5.0,-1.0,3.0,10.0,-3.0,-3.0,1.0,0.0,0.794921875,-0.41748046875,0.40576171875,6.2804878048780495,19.573170731707318,17.25609756097561
14_52_40_517,-5.0,-7.0,-39.0,-9.0,2.0,-1.0,-8.0,-5.0,0.87451171875,-0.53271484375,0.38427734375,0.9756097560975611,6.219512195121951,15.487804878048783
14_52_40_517,-3.0,-1.0,9.0,-9.0,-12.0,-3.0,-2.0,-1.0,0.90185546875,-0.54638671875,0.37939453125,5.975609756097562,5.121951219512195,16.70731707317073
14_52_40_517,-3.0,-2.0,-13.0,-4.0,4.0,-1.0,0.0,2.0,0.9091796875,-0.58544921875,0.4072265625,9.695121951219512,6.829268292682928,19.146341463414636
14_52_40_517,-2.0,-5.0,21.0,-4.0,-6.0,0.0,-3.0,-1.0,0.85693359375,-0.6044921875,0.41552734375,2.5609756097560976,9.756097560975611,23.658536585365855
14_52_40_517,-2.0,1.0,-4.0,19.0,3.0,-1.0,-1.0,0.0,0.76513671875,-0.55078125,0.43310546875,-0.7926829268292683,15.487804878048783,29.26829268292683
14_52_40_517,-3.0,-2.0,-7.0,-11.0,-4.0,-3.0,3.0,1.0,0.71630859375,-0.451171875,0.419921875,-0.12195121951219513,19.26829268292683,30.121951219512198
14_52_40_517,-2.0,-5.0,3.0,-8.0,0.0,-1.0,-3.0,-3.0,0.71044921875,-0.4150390625,0.40966796875,-0.6097560975609757,21.097560975609756,27.80487804878049
14_52_40_517,-1.0,-2.0,-7.0,-1.0,-2.0,0.0,-3.0,-3.0,0.73681640625,-0.400390625,0.4169921875,-0.1829268292682927,22.439024390243905,24.146341463414636
14_52_40_517,-2.0,-1.0,3.0,-10.0,-1.0,2.0,1.0,0.0,0.7578125,-0.4130859375,0.41064453125,1.829268292682927,22.378048780487806,21.158536585365855
14_52_40_571,-5.0,2.0,5.0,3.0,-5.0,1.0,2.0,2.0,0.85205078125,-0.50341796875,0.3251953125,26.646341463414636,5.426829268292684,26.34146341463415
14_52_40_571,0.0,-1.0,-31.0,-10.0,-4.0,-4.0,-2.0,-3.0,0.8466796875,-0.4970703125,0.34423828125,23.84146341463415,4.695121951219512,21.951219512195124
14_52_40_571,0.0,14.0,26.0,-2.0,-4.0,-3.0,-1.0,-1.0,0.8671875,-0.52587890625,0.34375,15.121951219512196,3.658536585365854,17.682926829268293
14_52_40_571,-3.0,2.0,6.0,-5.0,-3.0,-1.0,-3.0,-1.0,0.86572265625,-0.560546875,0.3603515625,3.536585365853659,4.51219512195122,16.76829268292683
14_52_40_571,-1.0,-12.0,-21.0,3.0,2.0,2.0,-1.0,-2.0,0.87451171875,-0.53271484375,0.38427734375,0.9756097560975611,6.219512195121951,15.487804878048783
14_52_40_571,0.0,23.0,2.0,-1.0,-3.0,-2.0,-1.0,-4.0,0.90185546875,-0.54638671875,0.37939453125,5.975609756097562,5.121951219512195,16.70731707317073
14_52_40_571,0.0,-15.0,17.0,2.0,0.0,-2.0,0.0,-1.0,0.9091796875,-0.58544921875,0.4072265625,9.695121951219512,6.829268292682928,19.146341463414636
14_52_40_571,-1.0,-3.0,-17.0,-17.0,-9.0,-1.0,3.0,-1.0,0.85693359375,-0.6044921875,0.41552734375,2.5609756097560976,9.756097560975611,23.658536585365855
14_52_40_571,-3.0,-5.0,15.0,0.0,-5.0,-4.0,0.0,-1.0,0.76513671875,-0.55078125,0.43310546875,-0.7926829268292683,15.487804878048783,29.26829268292683
14_52_40_571,-2.0,0.0,-11.0,-1.0,-2.0,2.0,-1.0,1.0,0.71630859375,-0.451171875,0.419921875,-0.12195121951219513,19.26829268292683,30.121951219512198
14_52_40_611,2.0,0.0,4.0,0.0,4.0,4.0,3.0,0.0,0.86181640625,-0.51123046875,0.2822265625,28.414634146341466,9.817073170731708,28.53658536585366
14_52_40_611,0.0,-1.0,34.0,3.0,-1.0,0.0,0.0,-4.0,0.86083984375,-0.517578125,0.298828125,29.08536585365854,8.292682926829269,27.926829268292686
14_52_40_611,0.0,-1.0,-30.0,-1.0,1.0,1.0,2.0,-1.0,0.85205078125,-0.50341796875,0.3251953125,26.646341463414636,5.426829268292684,26.34146341463415
14_52_40_611,-5.0,-5.0,8.0,-13.0,-4.0,-5.0,-1.0,-2.0,0.8466796875,-0.4970703125,0.34423828125,23.84146341463415,4.695121951219512,21.951219512195124
14_52_40_611,2.0,-1.0,2.0,1.0,-2.0,-1.0,-4.0,3.0,0.8671875,-0.52587890625,0.34375,15.121951219512196,3.658536585365854,17.682926829268293
14_52_40_611,1.0,1.0,-35.0,-5.0,-5.0,-2.0,-1.0,-3.0,0.86572265625,-0.560546875,0.3603515625,3.536585365853659,4.51219512195122,16.76829268292683
14_52_40_611,2.0,0.0,15.0,-7.0,-2.0,-1.0,-3.0,-3.0,0.87451171875,-0.53271484375,0.38427734375,0.9756097560975611,6.219512195121951,15.487804878048783
14_52_40_611,-2.0,2.0,-14.0,2.0,6.0,0.0,-1.0,4.0,0.90185546875,-0.54638671875,0.37939453125,5.975609756097562,5.121951219512195,16.70731707317073
14_52_40_611,-5.0,2.0,5.0,3.0,-5.0,1.0,2.0,2.0,0.9091796875,-0.58544921875,0.4072265625,9.695121951219512,6.829268292682928,19.146341463414636
14_52_40_611,0.0,-1.0,-31.0,-10.0,-4.0,-4.0,-2.0,-3.0,0.85693359375,-0.6044921875,0.41552734375,2.5609756097560976,9.756097560975611,23.658536585365855
14_52_40_678,-2.0,9.0,4.0,11.0,1.0,1.0,0.0,-1.0,0.8125,-0.505859375,0.28369140625,18.475609756097562,10.731707317073171,27.195121951219516
14_52_40_678,0.0,3.0,-5.0,-8.0,-2.0,-1.0,-1.0,-1.0,0.82861328125,-0.49658203125,0.28466796875,25.54878048780488,10.792682926829269,28.04878048780488
14_52_40_678,3.0,-7.0,-23.0,3.0,1.0,0.0,0.0,1.0,0.86181640625,-0.51123046875,0.2822265625,28.414634146341466,9.817073170731708,28.53658536585366
14_52_40_678,-4.0,1.0,5.0,2.0,-5.0,-4.0,-1.0,2.0,0.86083984375,-0.517578125,0.298828125,29.08536585365854,8.292682926829269,27.926829268292686
14_52_40_678,-6.0,-3.0,24.0,4.0,1.0,0.0,-6.0,-3.0,0.85205078125,-0.50341796875,0.3251953125,26.646341463414636,5.426829268292684,26.34146341463415
14_52_40_678,1.0,2.0,6.0,-15.0,-3.0,-2.0,1.0,1.0,0.8466796875,-0.4970703125,0.34423828125,23.84146341463415,4.695121951219512,21.951219512195124
14_52_40_678,2.0,0.0,4.0,0.0,4.0,4.0,3.0,0.0,0.8671875,-0.52587890625,0.34375,15.121951219512196,3.658536585365854,17.682926829268293
14_52_40_678,0.0,-1.0,34.0,3.0,-1.0,0.0,0.0,-4.0,0.86572265625,-0.560546875,0.3603515625,3.536585365853659,4.51219512195122,16.76829268292683
14_52_40_678,0.0,-1.0,-30.0,-1.0,1.0,1.0,2.0,-1.0,0.87451171875,-0.53271484375,0.38427734375,0.9756097560975611,6.219512195121951,15.487804878048783
14_52_40_678,-5.0,-5.0,8.0,-13.0,-4.0,-5.0,-1.0,-2.0,0.90185546875,-0.54638671875,0.37939453125,5.975609756097562,5.121951219512195,16.70731707317073
14_52_40_716,-2.0,-3.0,-9.0,-10.0,0.0,-2.0,-3.0,0.0,0.7255859375,-0.50830078125,0.33203125,13.902439024390246,7.8048780487804885,21.707317073170735
14_52_40_716,-2.0,1.0,2.0,8.0,-1.0,-4.0,-2.0,-4.0,0.76171875,-0.4912109375,0.29833984375,14.634146341463415,10.609756097560977,24.085365853658537
14_52_40_716,0.0,1.0,-17.0,39.0,3.0,6.0,0.0,2.0,0.794921875,-0.50341796875,0.287109375,15.670731707317074,11.341463414634147,26.28048780487805
14_52_40_716,0.0,-1.0,-16.0,-15.0,1.0,1.0,0.0,-2.0,0.8125,-0.505859375,0.28369140625,18.475609756097562,10.731707317073171,27.195121951219516
14_52_40_716,1.0,-4.0,15.0,7.0,0.0,0.0,4.0,4.0,0.82861328125,-0.49658203125,0.28466796875,25.54878048780488,10.792682926829269,28.04878048780488
14_52_40_716,0.0,2.0,23.0,3.0,-2.0,-2.0,3.0,-1.0,0.86181640625,-0.51123046875,0.2822265625,28.414634146341466,9.817073170731708,28.53658536585366
14_52_40_716,-1.0,3.0,15.0,-26.0,-2.0,0.0,2.0,-1.0,0.86083984375,-0.517578125,0.298828125,29.08536585365854,8.292682926829269,27.926829268292686
14_52_40_716,2.0,8.0,19.0,2.0,-5.0,-2.0,-1.0,0.0,0.85205078125,-0.50341796875,0.3251953125,26.646341463414636,5.426829268292684,26.34146341463415
14_52_40_716,-2.0,-1.0,-19.0,-10.0,-2.0,0.0,1.0,1.0,0.8466796875,-0.4970703125,0.34423828125,23.84146341463415,4.695121951219512,21.951219512195124
14_52_40_716,2.0,4.0,29.0,15.0,-1.0,-3.0,0.0,-2.0,0.8671875,-0.52587890625,0.34375,15.121951219512196,3.658536585365854,17.682926829268293
14_52_40_764,1.0,-4.0,-8.0,-12.0,-3.0,3.0,2.0,0.0,0.7275390625,-0.552734375,0.33447265625,24.390243902439025,-3.9024390243902443,14.329268292682928
14_52_40_764,-1.0,-1.0,21.0,8.0,3.0,-1.0,0.0,-1.0,0.70849609375,-0.54150390625,0.34423828125,17.012195121951223,1.9512195121951221,18.414634146341466
14_52_40_764,-1.0,-4.0,0.0,-1.0,2.0,1.0,1.0,2.0,0.7255859375,-0.50830078125,0.33203125,13.902439024390246,7.8048780487804885,21.707317073170735
14_52_40_764,-2.0,14.0,23.0,18.0,-5.0,-2.0,-3.0,-3.0,0.76171875,-0.4912109375,0.29833984375,14.634146341463415,10.609756097560977,24.085365853658537
14_52_40_764,-3.0,-16.0,-90.0,-28.0,-10.0,-5.0,-1.0,-4.0,0.794921875,-0.50341796875,0.287109375,15.670731707317074,11.341463414634147,26.28048780487805
14_52_40_764,-1.0,0.0,1.0,-6.0,4.0,1.0,1.0,3.0,0.8125,-0.505859375,0.28369140625,18.475609756097562,10.731707317073171,27.195121951219516
14_52_40_764,-4.0,-4.0,27.0,-9.0,-4.0,-1.0,-2.0,-1.0,0.82861328125,-0.49658203125,0.28466796875,25.54878048780488,10.792682926829269,28.04878048780488
14_52_40_764,3.0,-4.0,-19.0,-21.0,1.0,-2.0,-1.0,-1.0,0.86181640625,-0.51123046875,0.2822265625,28.414634146341466,9.817073170731708,28.53658536585366
14_52_40_764,-3.0,-1.0,-46.0,9.0,-3.0,-6.0,-3.0,-10.0,0.86083984375,-0.517578125,0.298828125,29.08536585365854,8.292682926829269,27.926829268292686
14_52_40_832,-3.0,-3.0,-30.0,-18.0,-2.0,0.0,-1.0,-8.0,0.7626953125,-0.5380859375,0.30419921875,22.865853658536587,-10.731707317073171,4.146341463414634
14_52_40_832,-3.0,-5.0,16.0,1.0,-4.0,-1.0,-2.0,0.0,0.74072265625,-0.51708984375,0.310546875,24.085365853658537,-8.902439024390244,6.951219512195123
14_52_40_832,1.0,8.0,7.0,8.0,3.0,2.0,-1.0,2.0,0.74169921875,-0.51318359375,0.31689453125,29.146341463414636,-7.25609756097561,9.695121951219512
14_52_40_832,-2.0,-2.0,-15.0,7.0,-4.0,-5.0,-1.0,1.0,0.7275390625,-0.552734375,0.33447265625,24.390243902439025,-3.9024390243902443,14.329268292682928
14_52_40_832,0.0,-4.0,20.0,-21.0,-3.0,1.0,-2.0,-1.0,0.70849609375,-0.54150390625,0.34423828125,17.012195121951223,1.9512195121951221,18.414634146341466
14_52_40_832,0.0,1.0,20.0,19.0,0.0,-3.0,1.0,-2.0,0.7255859375,-0.50830078125,0.33203125,13.902439024390246,7.8048780487804885,21.707317073170735
14_52_40_832,-2.0,-4.0,-16.0,-22.0,-3.0,2.0,2.0,0.0,0.76171875,-0.4912109375,0.29833984375,14.634146341463415,10.609756097560977,24.085365853658537
14_52_40_832,0.0,0.0,-12.0,14.0,0.0,2.0,1.0,0.0,0.794921875,-0.50341796875,0.287109375,15.670731707317074,11.341463414634147,26.28048780487805
14_52_40_832,2.0,0.0,5.0,5.0,5.0,-2.0,3.0,0.0,0.8125,-0.505859375,0.28369140625,18.475609756097562,10.731707317073171,27.195121951219516
14_52_40_872,-1.0,6.0,-10.0,2.0,-1.0,-3.0,-3.0,-3.0,0.72802734375,-0.49365234375,0.3291015625,24.512195121951223,-14.878048780487806,-8.109756097560977
14_52_40_872,3.0,4.0,16.0,-2.0,-2.0,0.0,-1.0,-3.0,0.75830078125,-0.51220703125,0.32373046875,24.390243902439025,-13.475609756097562,-6.463414634146342
14_52_40_872,1.0,-3.0,-7.0,-5.0,0.0,-4.0,-1.0,-3.0,0.7822265625,-0.546875,0.3115234375,23.53658536585366,-13.231707317073171,-2.3170731707317076
14_52_40_872,-5.0,-13.0,-57.0,-12.0,2.0,-2.0,-1.0,0.0,0.7626953125,-0.5380859375,0.30419921875,22.865853658536587,-10.731707317073171,4.146341463414634
14_52_40_872,0.0,6.0,39.0,1.0,-2.0,1.0,1.0,0.0,0.74072265625,-0.51708984375,0.310546875,24.085365853658537,-8.902439024390244,6.951219512195123
14_52_40_872,3.0,9.0,15.0,12.0,6.0,1.0,-4.0,1.0,0.74169921875,-0.51318359375,0.31689453125,29.146341463414636,-7.25609756097561,9.695121951219512
14_52_40_872,-9.0,-8.0,-26.0,-6.0,-3.0,-5.0,-5.0,-6.0,0.7275390625,-0.552734375,0.33447265625,24.390243902439025,-3.9024390243902443,14.329268292682928
14_52_40_872,-1.0,-2.0,-8.0,7.0,-2.0,-1.0,0.0,0.0,0.70849609375,-0.54150390625,0.34423828125,17.012195121951223,1.9512195121951221,18.414634146341466
14_52_40_872,-1.0,-1.0,-37.0,-16.0,2.0,-3.0,-2.0,-15.0,0.7255859375,-0.50830078125,0.33203125,13.902439024390246,7.8048780487804885,21.707317073170735
14_52_40_872,-2.0,-4.0,-10.0,-8.0,-5.0,-4.0,-1.0,2.0,0.76171875,-0.4912109375,0.29833984375,14.634146341463415,10.609756097560977,24.085365853658537
14_52_40_923,-1.0,-3.0,-33.0,-11.0,0.0,0.0,-5.0,-3.0,0.7861328125,-0.4541015625,0.287109375,23.719512195121954,-20.54878048780488,-14.939024390243905
14_52_40_923,0.0,4.0,8.0,15.0,3.0,2.0,-1.0,0.0,0.7431640625,-0.48486328125,0.3125,23.353658536585368,-18.963414634146343,-11.219512195121952
14_52_40_923,-1.0,3.0,-25.0,9.0,-2.0,-3.0,1.0,-3.0,0.72802734375,-0.49365234375,0.3291015625,24.512195121951223,-14.878048780487806,-8.109756097560977
14_52_40_923,3.0,4.0,-11.0,4.0,2.0,0.0,-1.0,-2.0,0.75830078125,-0.51220703125,0.32373046875,24.390243902439025,-13.475609756097562,-6.463414634146342
14_52_40_923,4.0,-4.0,22.0,-13.0,2.0,-2.0,1.0,-1.0,0.7822265625,-0.546875,0.3115234375,23.53658536585366,-13.231707317073171,-2.3170731707317076
14_52_40_923,-2.0,1.0,-2.0,11.0,2.0,2.0,-1.0,-1.0,0.7626953125,-0.5380859375,0.30419921875,22.865853658536587,-10.731707317073171,4.146341463414634
14_52_40_923,-4.0,-1.0,-1.0,-16.0,-1.0,-7.0,-3.0,-5.0,0.74072265625,-0.51708984375,0.310546875,24.085365853658537,-8.902439024390244,6.951219512195123
14_52_40_923,0.0,2.0,21.0,3.0,1.0,-1.0,0.0,0.0,0.74169921875,-0.51318359375,0.31689453125,29.146341463414636,-7.25609756097561,9.695121951219512
14_52_40_923,-1.0,6.0,-10.0,2.0,-1.0,-3.0,-3.0,-3.0,0.7275390625,-0.552734375,0.33447265625,24.390243902439025,-3.9024390243902443,14.329268292682928
14_52_40_923,3.0,4.0,16.0,-2.0,-2.0,0.0,-1.0,-3.0,0.70849609375,-0.54150390625,0.34423828125,17.012195121951223,1.9512195121951221,18.414634146341466
14_52_40_981,-5.0,-1.0,-8.0,-16.0,1.0,3.0,-1.0,0.0,0.779296875,-0.42578125,0.2802734375,22.5609756097561,-21.03658536585366,-18.475609756097562
14_52_40_981,-1.0,-3.0,-16.0,-25.0,-3.0,-3.0,1.0,2.0,0.7861328125,-0.4541015625,0.287109375,23.719512195121954,-20.54878048780488,-14.939024390243905
14_52_40_981,-5.0,-2.0,-1.0,10.0,-7.0,-6.0,-4.0,-1.0,0.7431640625,-0.48486328125,0.3125,23.353658536585368,-18.963414634146343,-11.219512195121952
14_52_40_981,5.0,1.0,13.0,19.0,10.0,7.0,5.0,5.0,0.72802734375,-0.49365234375,0.3291015625,24.512195121951223,-14.878048780487806,-8.109756097560977
14_52_40_981,-3.0,-9.0,-45.0,-41.0,-10.0,-3.0,-3.0,0.0,0.75830078125,-0.51220703125,0.32373046875,24.390243902439025,-13.475609756097562,-6.463414634146342
14_52_40_981,-4.0,3.0,28.0,7.0,-3.0,-4.0,-1.0,2.0,0.7822265625,-0.546875,0.3115234375,23.53658536585366,-13.231707317073171,-2.3170731707317076
14_52_40_981,-3.0,-6.0,-30.0,-13.0,-9.0,-7.0,-7.0,-22.0,0.7626953125,-0.5380859375,0.30419921875,22.865853658536587,-10.731707317073171,4.146341463414634
14_52_40_981,-3.0,-4.0,5.0,-4.0,-4.0,-2.0,-3.0,11.0,0.74072265625,-0.51708984375,0.310546875,24.085365853658537,-8.902439024390244,6.951219512195123
14_52_41_017,0.0,-7.0,-30.0,-15.0,2.0,-1.0,6.0,-1.0,0.7880859375,-0.3232421875,0.32666015625,5.0,-22.80487804878049,-14.329268292682928
14_52_41_017,5.0,6.0,12.0,-13.0,-10.0,-3.0,-4.0,3.0,0.81982421875,-0.3291015625,0.2802734375,13.963414634146343,-25.975609756097562,-18.29268292682927
14_52_41_017,6.0,-8.0,-13.0,-12.0,-6.0,-4.0,-4.0,-4.0,0.81884765625,-0.39453125,0.28564453125,18.597560975609756,-27.195121951219516,-20.243902439024392
14_52_41_017,1.0,-8.0,7.0,3.0,-13.0,-3.0,0.0,-2.0,0.7880859375,-0.4423828125,0.28369140625,17.865853658536587,-23.29268292682927,-20.670731707317074
14_52_41_017,-7.0,-2.0,-10.0,-6.0,2.0,-2.0,0.0,0.0,0.779296875,-0.42578125,0.2802734375,22.5609756097561,-21.03658536585366,-18.475609756097562
14_52_41_017,1.0,1.0,2.0,9.0,2.0,-4.0,-2.0,2.0,0.7861328125,-0.4541015625,0.287109375,23.719512195121954,-20.54878048780488,-14.939024390243905
14_52_41_017,4.0,-3.0,17.0,1.0,2.0,-4.0,-1.0,-1.0,0.7431640625,-0.48486328125,0.3125,23.353658536585368,-18.963414634146343,-11.219512195121952
14_52_41_017,2.0,3.0,10.0,2.0,-4.0,-1.0,-2.0,0.0,0.72802734375,-0.49365234375,0.3291015625,24.512195121951223,-14.878048780487806,-8.109756097560977
14_52_41_017,-5.0,-7.0,-60.0,-12.0,-6.0,2.0,-1.0,-2.0,0.75830078125,-0.51220703125,0.32373046875,24.390243902439025,-13.475609756097562,-6.463414634146342
14_52_41_017,-32.0,-4.0,19.0,-16.0,-6.0,-3.0,-7.0,-36.0,0.7822265625,-0.546875,0.3115234375,23.53658536585366,-13.231707317073171,-2.3170731707317076
14_52_41_082,-3.0,-1.0,-1.0,-13.0,0.0,3.0,4.0,1.0,0.81201171875,-0.373046875,0.29541015625,-3.536585365853659,-23.04878048780488,-4.634146341463415
14_52_41_082,-5.0,-4.0,18.0,-7.0,-2.0,-3.0,-3.0,-4.0,0.7744140625,-0.31494140625,0.34375,2.987804878048781,-22.500000000000004,-8.658536585365855
14_52_41_082,-2.0,2.0,-5.0,6.0,-1.0,-4.0,-3.0,-2.0,0.7880859375,-0.3232421875,0.32666015625,5.0,-22.80487804878049,-14.329268292682928
14_52_41_082,0.0,2.0,4.0,-1.0,3.0,1.0,1.0,-2.0,0.81982421875,-0.3291015625,0.2802734375,13.963414634146343,-25.975609756097562,-18.29268292682927
14_52_41_082,0.0,-6.0,-10.0,-23.0,-4.0,1.0,1.0,-1.0,0.81884765625,-0.39453125,0.28564453125,18.597560975609756,-27.195121951219516,-20.243902439024392
14_52_41_082,0.0,8.0,-2.0,21.0,-2.0,-3.0,0.0,-4.0,0.7880859375,-0.4423828125,0.28369140625,17.865853658536587,-23.29268292682927,-20.670731707317074
14_52_41_082,-5.0,-8.0,-49.0,-16.0,-5.0,-3.0,-3.0,0.0,0.779296875,-0.42578125,0.2802734375,22.5609756097561,-21.03658536585366,-18.475609756097562
14_52_41_082,-1.0,1.0,-4.0,8.0,6.0,-1.0,3.0,0.0,0.7861328125,-0.4541015625,0.287109375,23.719512195121954,-20.54878048780488,-14.939024390243905
14_52_41_082,2.0,7.0,26.0,12.0,-7.0,-1.0,-2.0,-1.0,0.7431640625,-0.48486328125,0.3125,23.353658536585368,-18.963414634146343,-11.219512195121952
14_52_41_117,-7.0,1.0,-2.0,13.0,-1.0,-1.0,-2.0,-4.0,0.7705078125,-0.26123046875,0.35888671875,23.78048780487805,-21.03658536585366,-2.1951219512195124
14_52_41_117,-5.0,-3.0,3.0,-22.0,-10.0,-4.0,0.0,1.0,0.80810546875,-0.380859375,0.35791015625,16.76829268292683,-18.902439024390244,-2.1341463414634148
14_52_41_117,4.0,-4.0,-1.0,-21.0,-8.0,-4.0,-1.0,-1.0,0.81982421875,-0.41748046875,0.33837890625,11.158536585365855,-18.597560975609756,-2.987804878048781
14_52_41_117,-11.0,-1.0,18.0,-4.0,-8.0,-3.0,-2.0,-5.0,0.85888671875,-0.4140625,0.310546875,-1.7682926829268295,-20.79268292682927,-3.5975609756097566
14_52_41_117,-20.0,0.0,6.0,12.0,-5.0,-4.0,-5.0,-2.0,0.81201171875,-0.373046875,0.29541015625,-3.536585365853659,-23.04878048780488,-4.634146341463415
14_52_41_117,-24.0,-11.0,-5.0,-6.0,-4.0,-5.0,-2.0,-1.0,0.7744140625,-0.31494140625,0.34375,2.987804878048781,-22.500000000000004,-8.658536585365855
14_52_41_117,1.0,-4.0,-25.0,1.0,-3.0,-2.0,-4.0,-4.0,0.7880859375,-0.3232421875,0.32666015625,5.0,-22.80487804878049,-14.329268292682928
14_52_41_117,4.0,4.0,33.0,-6.0,-4.0,4.0,0.0,-3.0,0.81982421875,-0.3291015625,0.2802734375,13.963414634146343,-25.975609756097562,-18.29268292682927
14_52_41_117,-3.0,-4.0,-4.0,1.0,2.0,-5.0,0.0,-6.0,0.81884765625,-0.39453125,0.28564453125,18.597560975609756,-27.195121951219516,-20.243902439024392
14_52_41_117,0.0,1.0,3.0,10.0,-5.0,2.0,-3.0,1.0,0.7880859375,-0.4423828125,0.28369140625,17.865853658536587,-23.29268292682927,-20.670731707317074
14_52_41_175,1.0,2.0,-5.0,6.0,3.0,-1.0,1.0,-1.0,0.8662109375,-0.32861328125,0.279296875,-23.902439024390247,-21.646341463414636,-2.804878048780488
14_52_41_175,6.0,-2.0,-5.0,-8.0,0.0,1.0,-2.0,3.0,0.77734375,-0.2626953125,0.28955078125,3.414634146341464,-22.865853658536587,-1.1585365853658538
14_52_41_175,-15.0,4.0,8.0,1.0,2.0,-1.0,-3.0,0.0,0.7705078125,-0.26123046875,0.35888671875,23.78048780487805,-21.03658536585366,-2.1951219512195124
14_52_41_175,-35.0,-4.0,-2.0,28.0,17.0,1.0,1.0,-2.0,0.80810546875,-0.380859375,0.35791015625,16.76829268292683,-18.902439024390244,-2.1341463414634148
14_52_41_175,10.0,1.0,2.0,-9.0,0.0,-2.0,0.0,3.0,0.81982421875,-0.41748046875,0.33837890625,11.158536585365855,-18.597560975609756,-2.987804878048781
14_52_41_175,-2.0,-1.0,-24.0,2.0,1.0,-4.0,-4.0,1.0,0.85888671875,-0.4140625,0.310546875,-1.7682926829268295,-20.79268292682927,-3.5975609756097566
14_52_41_175,-3.0,-7.0,-4.0,-6.0,0.0,1.0,-1.0,0.0,0.81201171875,-0.373046875,0.29541015625,-3.536585365853659,-23.04878048780488,-4.634146341463415
14_52_41_175,-5.0,6.0,51.0,28.0,-5.0,-4.0,-3.0,-4.0,0.7744140625,-0.31494140625,0.34375,2.987804878048781,-22.500000000000004,-8.658536585365855
14_52_41_175,1.0,-6.0,-22.0,-21.0,-3.0,2.0,-4.0,0.0,0.7880859375,-0.3232421875,0.32666015625,5.0,-22.80487804878049,-14.329268292682928
14_52_41_175,-6.0,4.0,2.0,-11.0,-4.0,-1.0,0.0,-3.0,0.81982421875,-0.3291015625,0.2802734375,13.963414634146343,-25.975609756097562,-18.29268292682927
14_52_41_232,-2.0,0.0,14.0,-14.0,-1.0,-8.0,-42.0,-1.0,0.8720703125,-0.298828125,0.3388671875,24.695121951219516,-25.975609756097562,-13.414634146341465
14_52_41_232,-33.0,0.0,30.0,-11.0,-12.0,-36.0,-6.0,-3.0,0.861328125,-0.52197265625,0.267578125,-19.146341463414636,-28.292682926829272,-2.5
14_52_41_232,27.0,-2.0,-4.0,-11.0,-9.0,-3.0,-1.0,6.0,0.8662109375,-0.32861328125,0.279296875,-23.902439024390247,-21.646341463414636,-2.804878048780488
14_52_41_232,-8.0,-9.0,-11.0,22.0,8.0,0.0,-1.0,-3.0,0.77734375,-0.2626953125,0.28955078125,3.414634146341464,-22.865853658536587,-1.1585365853658538
14_52_41_232,-30.0,-8.0,2.0,6.0,-19.0,-10.0,-5.0,-9.0,0.7705078125,-0.26123046875,0.35888671875,23.78048780487805,-21.03658536585366,-2.1951219512195124
14_52_41_232,21.0,-7.0,-6.0,-26.0,-7.0,-3.0,-2.0,2.0,0.80810546875,-0.380859375,0.35791015625,16.76829268292683,-18.902439024390244,-2.1341463414634148
14_52_41_232,23.0,7.0,9.0,38.0,18.0,10.0,5.0,5.0,0.81982421875,-0.41748046875,0.33837890625,11.158536585365855,-18.597560975609756,-2.987804878048781
14_52_41_232,-16.0,-5.0,0.0,-22.0,-13.0,-6.0,0.0,-5.0,0.85888671875,-0.4140625,0.310546875,-1.7682926829268295,-20.79268292682927,-3.5975609756097566
14_52_41_232,1.0,2.0,-5.0,6.0,3.0,-1.0,1.0,-1.0,0.81201171875,-0.373046875,0.29541015625,-3.536585365853659,-23.04878048780488,-4.634146341463415
14_52_41_232,6.0,-2.0,-5.0,-8.0,0.0,1.0,-2.0,3.0,0.7744140625,-0.31494140625,0.34375,2.987804878048781,-22.500000000000004,-8.658536585365855
14_52_41_277,9.0,-4.0,-11.0,-42.0,-15.0,-9.0,-6.0,-2.0,0.97119140625,-0.3271484375,0.33251953125,-16.70731707317073,-15.914634146341465,-33.23170731707317
14_52_41_277,-12.0,-4.0,0.0,3.0,4.0,1.0,8.0,2.0,0.93505859375,-0.24365234375,0.33251953125,-31.463414634146343,-22.5609756097561,-24.02439024390244
14_52_41_277,4.0,6.0,1.0,-8.0,-8.0,-1.0,1.0,-5.0,0.86474609375,-0.189453125,0.30322265625,-2.987804878048781,-28.10975609756098,-22.682926829268293
14_52_41_277,5.0,3.0,-4.0,6.0,-2.0,-6.0,-4.0,0.0,0.8720703125,-0.298828125,0.3388671875,24.695121951219516,-25.975609756097562,-13.414634146341465
14_52_41_277,14.0,7.0,2.0,9.0,3.0,-2.0,-3.0,2.0,0.861328125,-0.52197265625,0.267578125,-19.146341463414636,-28.292682926829272,-2.5
14_52_41_277,-14.0,-19.0,-1.0,-3.0,-7.0,-5.0,-6.0,-6.0,0.8662109375,-0.32861328125,0.279296875,-23.902439024390247,-21.646341463414636,-2.804878048780488
14_52_41_277,-7.0,-4.0,-5.0,12.0,6.0,-5.0,-3.0,1.0,0.77734375,-0.2626953125,0.28955078125,3.414634146341464,-22.865853658536587,-1.1585365853658538
14_52_41_277,2.0,3.0,-3.0,-3.0,-9.0,-15.0,-9.0,-3.0,0.7705078125,-0.26123046875,0.35888671875,23.78048780487805,-21.03658536585366,-2.1951219512195124
14_52_41_277,3.0,5.0,-4.0,-1.0,-1.0,-14.0,-8.0,-1.0,0.80810546875,-0.380859375,0.35791015625,16.76829268292683,-18.902439024390244,-2.1341463414634148
14_52_41_277,2.0,-1.0,3.0,3.0,7.0,-6.0,-9.0,1.0,0.81982421875,-0.41748046875,0.33837890625,11.158536585365855,-18.597560975609756,-2.987804878048781
14_52_41_326,-91.0,-20.0,-12.0,-6.0,-3.0,-6.0,-90.0,-13.0,0.98291015625,-0.34423828125,0.16064453125,-29.81707317073171,-24.512195121951223,-20.243902439024392
14_52_41_326,115.0,44.0,0.0,-12.0,-8.0,1.0,-1.0,-35.0,0.95751953125,-0.29345703125,0.3095703125,-32.01219512195122,-22.134146341463417,-29.207317073170735
14_52_41_326,-12.0,3.0,-3.0,-11.0,-6.0,6.0,30.0,41.0,0.97119140625,-0.3271484375,0.33251953125,-16.70731707317073,-15.914634146341465,-33.23170731707317
14_52_41_326,-18.0,3.0,4.0,9.0,-5.0,1.0,2.0,-2.0,0.93505859375,-0.24365234375,0.33251953125,-31.463414634146343,-22.5609756097561,-24.02439024390244
14_52_41_326,8.0,6.0,-3.0,-17.0,-7.0,-5.0,-2.0,-2.0,0.86474609375,-0.189453125,0.30322265625,-2.987804878048781,-28.10975609756098,-22.682926829268293
14_52_41_326,-15.0,8.0,-7.0,-17.0,-5.0,-5.0,1.0,4.0,0.8720703125,-0.298828125,0.3388671875,24.695121951219516,-25.975609756097562,-13.414634146341465
14_52_41_326,7.0,4.0,12.0,54.0,18.0,3.0,2.0,-1.0,0.861328125,-0.52197265625,0.267578125,-19.146341463414636,-28.292682926829272,-2.5
14_52_41_326,-16.0,-5.0,-4.0,20.0,9.0,4.0,-9.0,1.0,0.8662109375,-0.32861328125,0.279296875,-23.902439024390247,-21.646341463414636,-2.804878048780488
14_52_41_326,9.0,-4.0,-11.0,-42.0,-15.0,-9.0,-6.0,-2.0,0.77734375,-0.2626953125,0.28955078125,3.414634146341464,-22.865853658536587,-1.1585365853658538
14_52_41_326,-12.0,-4.0,0.0,3.0,4.0,1.0,8.0,2.0,0.7705078125,-0.26123046875,0.35888671875,23.78048780487805,-21.03658536585366,-2.1951219512195124
14_52_41_388,3.0,-7.0,4.0,4.0,7.0,-1.0,11.0,1.0,0.97119140625,-0.353515625,0.34765625,-23.353658536585368,-20.79268292682927,-21.951219512195124
14_52_41_388,-4.0,-19.0,-2.0,0.0,-2.0,-2.0,15.0,14.0,0.98291015625,-0.34423828125,0.16064453125,-29.81707317073171,-24.512195121951223,-20.243902439024392
14_52_41_388,7.0,12.0,-6.0,-1.0,-6.0,-6.0,-1.0,-9.0,0.95751953125,-0.29345703125,0.3095703125,-32.01219512195122,-22.134146341463417,-29.207317073170735
14_52_41_388,-91.0,-20.0,-12.0,-6.0,-3.0,-6.0,-90.0,-13.0,0.97119140625,-0.3271484375,0.33251953125,-16.70731707317073,-15.914634146341465,-33.23170731707317
14_52_41_388,115.0,44.0,0.0,-12.0,-8.0,1.0,-1.0,-35.0,0.93505859375,-0.24365234375,0.33251953125,-31.463414634146343,-22.5609756097561,-24.02439024390244
14_52_41_388,-12.0,3.0,-3.0,-11.0,-6.0,6.0,30.0,41.0,0.86474609375,-0.189453125,0.30322265625,-2.987804878048781,-28.10975609756098,-22.682926829268293
14_52_41_388,-18.0,3.0,4.0,9.0,-5.0,1.0,2.0,-2.0,0.8720703125,-0.298828125,0.3388671875,24.695121951219516,-25.975609756097562,-13.414634146341465
14_52_41_388,8.0,6.0,-3.0,-17.0,-7.0,-5.0,-2.0,-2.0,0.861328125,-0.52197265625,0.267578125,-19.146341463414636,-28.292682926829272,-2.5
14_52_41_388,-15.0,8.0,-7.0,-17.0,-5.0,-5.0,1.0,4.0,0.8662109375,-0.32861328125,0.279296875,-23.902439024390247,-21.646341463414636,-2.804878048780488
14_52_41_427,58.0,13.0,-3.0,-10.0,8.0,-2.0,0.0,20.0,0.93505859375,-0.32373046875,0.29736328125,9.146341463414634,-16.34146341463415,-19.695121951219512
14_52_41_427,-46.0,1.0,40.0,127.0,70.0,10.0,-2.0,0.0,0.87890625,-0.3681640625,0.36328125,6.158536585365854,-13.841463414634148,-25.000000000000004
14_52_41_427,14.0,-13.0,-2.0,-24.0,-10.0,5.0,8.0,-5.0,0.97119140625,-0.353515625,0.34765625,-23.353658536585368,-20.79268292682927,-21.951219512195124
14_52_41_427,12.0,9.0,-3.0,-9.0,0.0,-4.0,-8.0,-13.0,0.98291015625,-0.34423828125,0.16064453125,-29.81707317073171,-24.512195121951223,-20.243902439024392
14_52_41_427,4.0,9.0,2.0,5.0,7.0,2.0,-5.0,6.0,0.95751953125,-0.29345703125,0.3095703125,-32.01219512195122,-22.134146341463417,-29.207317073170735
14_52_41_427,-21.0,7.0,6.0,7.0,9.0,-1.0,8.0,7.0,0.97119140625,-0.3271484375,0.33251953125,-16.70731707317073,-15.914634146341465,-33.23170731707317
14_52_41_427,34.0,3.0,4.0,7.0,4.0,6.0,6.0,3.0,0.93505859375,-0.24365234375,0.33251953125,-31.463414634146343,-22.5609756097561,-24.02439024390244
14_52_41_427,3.0,-7.0,4.0,4.0,7.0,-1.0,11.0,1.0,0.86474609375,-0.189453125,0.30322265625,-2.987804878048781,-28.10975609756098,-22.682926829268293
14_52_41_427,-4.0,-19.0,-2.0,0.0,-2.0,-2.0,15.0,14.0,0.8720703125,-0.298828125,0.3388671875,24.695121951219516,-25.975609756097562,-13.414634146341465
14_52_41_427,7.0,12.0,-6.0,-1.0,-6.0,-6.0,-1.0,-9.0,0.861328125,-0.52197265625,0.267578125,-19.146341463414636,-28.292682926829272,-2.5
14_52_41_487,-11.0,10.0,11.0,-22.0,0.0,-9.0,-18.0,-6.0,1.04345703125,-0.0634765625,0.29248046875,4.878048780487806,-10.30487804878049,1.2804878048780488
14_52_41_487,107.0,13.0,-3.0,60.0,37.0,22.0,2.0,17.0,1.0146484375,-0.2255859375,0.19384765625,23.29268292682927,-17.31707317073171,-5.609756097560976
14_52_41_487,13.0,-1.0,-10.0,-128.0,-63.0,-21.0,-3.0,3.0,0.998046875,-0.40478515625,0.17919921875,-0.7317073170731708,-21.158536585365855,-16.646341463414636
14_52_41_487,28.0,6.0,33.0,127.0,71.0,34.0,17.0,12.0,0.974609375,-0.31591796875,0.17333984375,-2.3170731707317076,-22.378048780487806,-17.98780487804878
14_52_41_487,-24.0,-5.0,-3.0,-100.0,-40.0,-24.0,-7.0,-3.0,0.93505859375,-0.32373046875,0.29736328125,9.146341463414634,-16.34146341463415,-19.695121951219512
14_52_41_487,2.0,3.0,12.0,69.0,39.0,8.0,15.0,6.0,0.87890625,-0.3681640625,0.36328125,6.158536585365854,-13.841463414634148,-25.000000000000004
14_52_41_487,-12.0,6.0,-1.0,-7.0,7.0,6.0,-2.0,-8.0,0.97119140625,-0.353515625,0.34765625,-23.353658536585368,-20.79268292682927,-21.951219512195124
14_52_41_487,52.0,0.0,2.0,-7.0,11.0,2.0,-3.0,13.0,0.98291015625,-0.34423828125,0.16064453125,-29.81707317073171,-24.512195121951223,-20.243902439024392
14_52_41_487,-29.0,2.0,-19.0,-34.0,-40.0,-19.0,-51.0,-40.0,0.95751953125,-0.29345703125,0.3095703125,-32.01219512195122,-22.134146341463417,-29.207317073170735
14_52_41_528,3.0,-5.0,2.0,-29.0,-3.0,12.0,0.0,-52.0,0.9248046875,-0.44140625,0.2939453125,-28.53658536585366,-6.890243902439025,8.841463414634147
14_52_41_528,25.0,-1.0,-8.0,-31.0,-19.0,-25.0,-53.0,13.0,0.97998046875,-0.35595703125,0.34619140625,-42.13414634146342,-8.048780487804878,7.987804878048781
14_52_41_528,-7.0,-7.0,-13.0,12.0,-18.0,7.0,-38.0,-49.0,1.0166015625,-0.1953125,0.37548828125,-33.59756097560976,-10.914634146341465,3.1097560975609757
14_52_41_528,-5.0,-13.0,16.0,42.0,40.0,3.0,39.0,7.0,1.04345703125,-0.0634765625,0.29248046875,4.878048780487806,-10.30487804878049,1.2804878048780488
14_52_41_528,-3.0,5.0,15.0,-52.0,-28.0,-13.0,9.0,-3.0,1.0146484375,-0.2255859375,0.19384765625,23.29268292682927,-17.31707317073171,-5.609756097560976
14_52_41_528,3.0,3.0,-18.0,-15.0,-1.0,-5.0,19.0,10.0,0.998046875,-0.40478515625,0.17919921875,-0.7317073170731708,-21.158536585365855,-16.646341463414636
14_52_41_528,3.0,-8.0,1.0,34.0,20.0,30.0,14.0,19.0,0.974609375,-0.31591796875,0.17333984375,-2.3170731707317076,-22.378048780487806,-17.98780487804878
14_52_41_528,5.0,1.0,-13.0,-57.0,-32.0,-9.0,-128.0,-28.0,0.93505859375,-0.32373046875,0.29736328125,9.146341463414634,-16.34146341463415,-19.695121951219512
14_52_41_528,-7.0,-2.0,-4.0,-38.0,-25.0,-15.0,31.0,-31.0,0.87890625,-0.3681640625,0.36328125,6.158536585365854,-13.841463414634148,-25.000000000000004
14_52_41_528,-12.0,-15.0,-23.0,-3.0,-20.0,-17.0,17.0,-1.0,0.97119140625,-0.353515625,0.34765625,-23.353658536585368,-20.79268292682927,-21.951219512195124
14_52_41_591,57.0,-14.0,-2.0,-60.0,-43.0,-22.0,4.0,7.0,0.93310546875,-0.38037109375,0.2802734375,2.6219512195121952,-4.207317073170732,4.75609756097561
14_52_41_591,-19.0,-5.0,4.0,80.0,15.0,-3.0,-18.0,-13.0,0.87841796875,-0.45947265625,0.28173828125,-15.487804878048783,-6.646341463414635,3.1707317073170733
14_52_41_591,49.0,-11.0,-4.0,-24.0,-18.0,3.0,2.0,-5.0,0.9248046875,-0.44140625,0.2939453125,-28.53658536585366,-6.890243902439025,8.841463414634147
14_52_41_591,-69.0,3.0,-3.0,-6.0,-1.0,-12.0,16.0,-7.0,0.97998046875,-0.35595703125,0.34619140625,-42.13414634146342,-8.048780487804878,7.987804878048781
14_52_41_591,77.0,-10.0,2.0,-14.0,-35.0,-15.0,9.0,18.0,1.0166015625,-0.1953125,0.37548828125,-33.59756097560976,-10.914634146341465,3.1097560975609757
14_52_41_591,67.0,29.0,0.0,19.0,44.0,9.0,3.0,28.0,1.04345703125,-0.0634765625,0.29248046875,4.878048780487806,-10.30487804878049,1.2804878048780488
14_52_41_591,-4.0,-7.0,-10.0,90.0,35.0,12.0,-43.0,-25.0,1.0146484375,-0.2255859375,0.19384765625,23.29268292682927,-17.31707317073171,-5.609756097560976
14_52_41_591,-29.0,-26.0,0.0,-92.0,-19.0,2.0,41.0,-1.0,0.998046875,-0.40478515625,0.17919921875,-0.7317073170731708,-21.158536585365855,-16.646341463414636
14_52_41_591,-10.0,7.0,2.0,34.0,16.0,4.0,-24.0,-13.0,0.974609375,-0.31591796875,0.17333984375,-2.3170731707317076,-22.378048780487806,-17.98780487804878
14_52_41_591,19.0,5.0,-3.0,-26.0,-15.0,-15.0,48.0,41.0,0.93505859375,-0.32373046875,0.29736328125,9.146341463414634,-16.34146341463415,-19.695121951219512
14_52_41_641,-7.0,-1.0,1.0,-8.0,-17.0,-19.0,4.0,-72.0,0.9453125,-0.267578125,0.2197265625,-5.3048780487804885,-1.524390243902439,9.207317073170733
14_52_41_641,4.0,1.0,7.0,21.0,5.0,-14.0,0.0,28.0,0.943359375,-0.29345703125,0.259765625,3.1097560975609757,-1.402439024390244,5.182926829268293
14_52_41_641,4.0,1.0,8.0,11.0,-1.0,21.0,15.0,5.0,0.93310546875,-0.38037109375,0.2802734375,2.6219512195121952,-4.207317073170732,4.75609756097561
14_52_41_641,10.0,-7.0,-9.0,-17.0,-23.0,-18.0,-6.0,-8.0,0.87841796875,-0.45947265625,0.28173828125,-15.487804878048783,-6.646341463414635,3.1707317073170733
14_52_41_641,57.0,-14.0,-2.0,-60.0,-43.0,-22.0,4.0,7.0,0.9248046875,-0.44140625,0.2939453125,-28.53658536585366,-6.890243902439025,8.841463414634147
14_52_41_641,-19.0,-5.0,4.0,80.0,15.0,-3.0,-18.0,-13.0,0.97998046875,-0.35595703125,0.34619140625,-42.13414634146342,-8.048780487804878,7.987804878048781
14_52_41_641,49.0,-11.0,-4.0,-24.0,-18.0,3.0,2.0,-5.0,1.0166015625,-0.1953125,0.37548828125,-33.59756097560976,-10.914634146341465,3.1097560975609757
14_52_41_641,-69.0,3.0,-3.0,-6.0,-1.0,-12.0,16.0,-7.0,1.04345703125,-0.0634765625,0.29248046875,4.878048780487806,-10.30487804878049,1.2804878048780488
14_52_41_641,77.0,-10.0,2.0,-14.0,-35.0,-15.0,9.0,18.0,1.0146484375,-0.2255859375,0.19384765625,23.29268292682927,-17.31707317073171,-5.609756097560976
14_52_41_641,67.0,29.0,0.0,19.0,44.0,9.0,3.0,28.0,0.998046875,-0.40478515625,0.17919921875,-0.7317073170731708,-21.158536585365855,-16.646341463414636
14_52_41_678,-11.0,-1.0,26.0,-34.0,-128.0,-128.0,-15.0,-1.0,0.85205078125,-0.40478515625,0.18896484375,-4.939024390243903,4.085365853658537,9.207317073170733
14_52_41_678,0.0,-15.0,-24.0,-55.0,-26.0,0.0,-53.0,-45.0,0.86962890625,-0.45068359375,0.21484375,-7.134146341463415,5.426829268292684,11.951219512195124
14_52_41_678,-1.0,-1.0,-14.0,17.0,123.0,70.0,20.0,18.0,0.9501953125,-0.3505859375,0.1708984375,-25.853658536585368,3.7195121951219514,17.378048780487806
14_52_41_678,-48.0,4.0,6.0,-16.0,91.0,32.0,-18.0,-9.0,1.01318359375,-0.26416015625,0.16650390625,-22.926829268292686,-2.378048780487805,16.158536585365855
14_52_41_678,41.0,-1.0,-6.0,-75.0,-128.0,-108.0,3.0,-5.0,0.9453125,-0.267578125,0.2197265625,-5.3048780487804885,-1.524390243902439,9.207317073170733
14_52_41_678,-23.0,-8.0,-5.0,6.0,49.0,61.0,5.0,-15.0,0.943359375,-0.29345703125,0.259765625,3.1097560975609757,-1.402439024390244,5.182926829268293
14_52_41_678,-9.0,-10.0,-21.0,-83.0,-23.0,-30.0,-16.0,-9.0,0.93310546875,-0.38037109375,0.2802734375,2.6219512195121952,-4.207317073170732,4.75609756097561
14_52_41_678,-14.0,-48.0,-18.0,-23.0,-7.0,-7.0,-19.0,-10.0,0.87841796875,-0.45947265625,0.28173828125,-15.487804878048783,-6.646341463414635,3.1707317073170733
14_52_41_678,45.0,-9.0,-9.0,-43.0,-32.0,-26.0,-29.0,2.0,0.9248046875,-0.44140625,0.2939453125,-28.53658536585366,-6.890243902439025,8.841463414634147
14_52_41_678,45.0,9.0,11.0,-13.0,-35.0,-17.0,21.0,11.0,0.97998046875,-0.35595703125,0.34619140625,-42.13414634146342,-8.048780487804878,7.987804878048781
14_52_41_737,17.0,5.0,-3.0,-39.0,-59.0,-23.0,-11.0,22.0,0.96875,-0.21875,0.22802734375,-7.560975609756098,11.341463414634147,29.39024390243903
14_52_41_737,4.0,-8.0,-10.0,-100.0,-115.0,-91.0,-48.0,-41.0,0.96044921875,-0.28857421875,0.20947265625,-22.012195121951223,3.1707317073170733,18.84146341463415
14_52_41_737,-46.0,-2.0,40.0,127.0,-72.0,-124.0,-16.0,-8.0,0.85205078125,-0.40478515625,0.18896484375,-4.939024390243903,4.085365853658537,9.207317073170733
14_52_41_737,-16.0,-26.0,-46.0,-74.0,-128.0,-78.0,-22.0,6.0,0.86962890625,-0.45068359375,0.21484375,-7.134146341463415,5.426829268292684,11.951219512195124
14_52_41_737,15.0,35.0,3.0,-54.0,127.0,78.0,15.0,-12.0,0.9501953125,-0.3505859375,0.1708984375,-25.853658536585368,3.7195121951219514,17.378048780487806
14_52_41_737,72.0,24.0,17.0,127.0,102.0,38.0,70.0,-4.0,1.01318359375,-0.26416015625,0.16650390625,-22.926829268292686,-2.378048780487805,16.158536585365855
14_52_41_737,30.0,-4.0,-14.0,-11.0,-31.0,127.0,47.0,11.0,0.9453125,-0.267578125,0.2197265625,-5.3048780487804885,-1.524390243902439,9.207317073170733
14_52_41_737,12.0,-15.0,23.0,67.0,127.0,90.0,68.0,13.0,0.943359375,-0.29345703125,0.259765625,3.1097560975609757,-1.402439024390244,5.182926829268293
14_52_41_737,-11.0,-1.0,26.0,-34.0,-128.0,-128.0,-15.0,-1.0,0.93310546875,-0.38037109375,0.2802734375,2.6219512195121952,-4.207317073170732,4.75609756097561
14_52_41_737,0.0,-15.0,-24.0,-55.0,-26.0,0.0,-53.0,-45.0,0.87841796875,-0.45947265625,0.28173828125,-15.487804878048783,-6.646341463414635,3.1707317073170733
14_52_41_790,44.0,4.0,-42.0,-22.0,-60.0,31.0,-128.0,-39.0,0.9140625,-0.4111328125,0.32568359375,15.243902439024392,11.707317073170733,29.87804878048781
14_52_41_790,27.0,-53.0,9.0,34.0,-96.0,-128.0,65.0,65.0,0.89990234375,-0.544921875,0.27587890625,-5.731707317073171,9.26829268292683,19.573170731707318
14_52_41_790,-43.0,23.0,6.0,-51.0,4.0,-36.0,-49.0,30.0,0.8232421875,-0.38818359375,0.23828125,-9.939024390243903,11.036585365853659,20.975609756097562
14_52_41_790,-87.0,-23.0,6.0,-30.0,-128.0,35.0,48.0,-72.0,0.96875,-0.21875,0.22802734375,-7.560975609756098,11.341463414634147,29.39024390243903
14_52_41_790,57.0,24.0,24.0,-71.0,-90.0,127.0,32.0,48.0,0.96044921875,-0.28857421875,0.20947265625,-22.012195121951223,3.1707317073170733,18.84146341463415
14_52_41_790,31.0,35.0,52.0,127.0,127.0,70.0,29.0,-22.0,0.85205078125,-0.40478515625,0.18896484375,-4.939024390243903,4.085365853658537,9.207317073170733
14_52_41_790,-19.0,4.0,-22.0,69.0,-128.0,-91.0,57.0,40.0,0.86962890625,-0.45068359375,0.21484375,-7.134146341463415,5.426829268292684,11.951219512195124
14_52_41_790,-14.0,-35.0,-10.0,89.0,-128.0,-78.0,-19.0,-47.0,0.9501953125,-0.3505859375,0.1708984375,-25.853658536585368,3.7195121951219514,17.378048780487806
14_52_41_790,27.0,16.0,-3.0,9.0,127.0,127.0,-40.0,3.0,1.01318359375,-0.26416015625,0.16650390625,-22.926829268292686,-2.378048780487805,16.158536585365855
14_52_41_790,7.0,6.0,29.0,18.0,-34.0,-128.0,68.0,21.0,0.9453125,-0.267578125,0.2197265625,-5.3048780487804885,-1.524390243902439,9.207317073170733
14_52_41_835,13.0,-13.0,-2.0,-87.0,-9.0,78.0,-1.0,-4.0,0.84619140625,-0.529296875,0.22802734375,-9.573170731707318,6.829268292682928,11.707317073170733
14_52_41_835,31.0,35.0,57.0,10.0,-83.0,-124.0,-13.0,4.0,0.74365234375,-0.31201171875,0.3408203125,5.731707317073171,13.353658536585368,22.134146341463417
14_52_41_835,-13.0,-4.0,-29.0,-111.0,-128.0,-60.0,-13.0,-2.0,0.9140625,-0.4111328125,0.32568359375,15.243902439024392,11.707317073170733,29.87804878048781
14_52_41_835,9.0,26.0,11.0,107.0,-16.0,87.0,35.0,-3.0,0.89990234375,-0.544921875,0.27587890625,-5.731707317073171,9.26829268292683,19.573170731707318
14_52_41_835,43.0,30.0,50.0,127.0,127.0,127.0,-66.0,31.0,0.8232421875,-0.38818359375,0.23828125,-9.939024390243903,11.036585365853659,20.975609756097562
14_52_41_835,9.0,-8.0,31.0,118.0,-2.0,33.0,-6.0,-9.0,0.96875,-0.21875,0.22802734375,-7.560975609756098,11.341463414634147,29.39024390243903
14_52_41_835,-3.0,7.0,-16.0,-128.0,-128.0,-128.0,6.0,-6.0,0.96044921875,-0.28857421875,0.20947265625,-22.012195121951223,3.1707317073170733,18.84146341463415
14_52_41_835,-6.0,1.0,5.0,-128.0,62.0,2.0,-4.0,-5.0,0.85205078125,-0.40478515625,0.18896484375,-4.939024390243903,4.085365853658537,9.207317073170733
14_52_41_835,6.0,27.0,5.0,-38.0,127.0,98.0,34.0,10.0,0.86962890625,-0.45068359375,0.21484375,-7.134146341463415,5.426829268292684,11.951219512195124
14_52_41_835,-27.0,-107.0,2.0,-27.0,25.0,-27.0,111.0,-43.0,0.9501953125,-0.3505859375,0.1708984375,-25.853658536585368,3.7195121951219514,17.378048780487806
14_52_41_894,-4.0,-41.0,-42.0,-81.0,-128.0,-128.0,44.0,25.0,0.83837890625,-0.41650390625,0.1259765625,20.48780487804878,1.2195121951219514,16.03658536585366
14_52_41_894,4.0,31.0,-19.0,2.0,111.0,127.0,-21.0,11.0,0.986328125,-0.48388671875,0.14453125,18.414634146341466,3.9024390243902443,19.573170731707318
14_52_41_894,8.0,20.0,14.0,-27.0,127.0,74.0,-45.0,-10.0,0.84619140625,-0.529296875,0.22802734375,-9.573170731707318,6.829268292682928,11.707317073170733
14_52_41_894,-46.0,-19.0,3.0,-8.0,-128.0,-128.0,81.0,7.0,0.74365234375,-0.31201171875,0.3408203125,5.731707317073171,13.353658536585368,22.134146341463417
14_52_41_894,13.0,-13.0,-2.0,-87.0,-9.0,78.0,-1.0,-4.0,0.9140625,-0.4111328125,0.32568359375,15.243902439024392,11.707317073170733,29.87804878048781
14_52_41_894,31.0,35.0,57.0,10.0,-83.0,-124.0,-13.0,4.0,0.89990234375,-0.544921875,0.27587890625,-5.731707317073171,9.26829268292683,19.573170731707318
14_52_41_894,-13.0,-4.0,-29.0,-111.0,-128.0,-60.0,-13.0,-2.0,0.8232421875,-0.38818359375,0.23828125,-9.939024390243903,11.036585365853659,20.975609756097562
14_52_41_894,9.0,26.0,11.0,107.0,-16.0,87.0,35.0,-3.0,0.96875,-0.21875,0.22802734375,-7.560975609756098,11.341463414634147,29.39024390243903
14_52_41_894,43.0,30.0,50.0,127.0,127.0,127.0,-66.0,31.0,0.96044921875,-0.28857421875,0.20947265625,-22.012195121951223,3.1707317073170733,18.84146341463415
14_52_41_894,9.0,-8.0,31.0,118.0,-2.0,33.0,-6.0,-9.0,0.85205078125,-0.40478515625,0.18896484375,-4.939024390243903,4.085365853658537,9.207317073170733
14_52_41_931,47.0,33.0,54.0,100.0,127.0,127.0,19.0,39.0,0.93310546875,-0.54248046875,0.216796875,-13.231707317073171,4.329268292682928,14.207317073170733
14_52_41_931,38.0,21.0,38.0,83.0,-128.0,-128.0,-23.0,-1.0,0.85009765625,-0.46484375,0.19580078125,-15.54878048780488,8.109756097560977,15.731707317073171
14_52_41_931,-79.0,-60.0,-9.0,63.0,-128.0,7.0,-24.0,-21.0,0.8515625,-0.453125,0.20361328125,2.1951219512195124,6.158536585365854,14.451219512195124
14_52_41_931,-10.0,-41.0,-36.0,-128.0,-128.0,-128.0,43.0,4.0,0.83837890625,-0.41650390625,0.1259765625,20.48780487804878,1.2195121951219514,16.03658536585366
14_52_41_931,54.0,66.0,38.0,127.0,127.0,127.0,115.0,-32.0,0.986328125,-0.48388671875,0.14453125,18.414634146341466,3.9024390243902443,19.573170731707318
14_52_41_931,-14.0,-1.0,17.0,-87.0,127.0,127.0,-69.0,18.0,0.84619140625,-0.529296875,0.22802734375,-9.573170731707318,6.829268292682928,11.707317073170733
14_52_41_931,86.0,21.0,24.0,127.0,-23.0,-128.0,88.0,-51.0,0.74365234375,-0.31201171875,0.3408203125,5.731707317073171,13.353658536585368,22.134146341463417
14_52_41_931,-26.0,-18.0,25.0,36.0,-128.0,-128.0,39.0,39.0,0.9140625,-0.4111328125,0.32568359375,15.243902439024392,11.707317073170733,29.87804878048781
14_52_41_931,-16.0,-2.0,-27.0,-36.0,120.0,127.0,11.0,-15.0,0.89990234375,-0.544921875,0.27587890625,-5.731707317073171,9.26829268292683,19.573170731707318
14_52_41_931,-16.0,-11.0,7.0,127.0,-128.0,-119.0,110.0,6.0,0.8232421875,-0.38818359375,0.23828125,-9.939024390243903,11.036585365853659,20.975609756097562
14_52_41_994,43.0,11.0,-35.0,-128.0,-128.0,28.0,-11.0,-40.0,0.98193359375,-0.3896484375,0.26611328125,2.5,2.5609756097560976,17.073170731707318
14_52_41_994,-2.0,1.0,3.0,-1.0,127.0,74.0,102.0,31.0,0.93310546875,-0.54248046875,0.216796875,-13.231707317073171,4.329268292682928,14.207317073170733
14_52_41_994,76.0,-5.0,3.0,127.0,127.0,127.0,67.0,-45.0,0.85009765625,-0.46484375,0.19580078125,-15.54878048780488,8.109756097560977,15.731707317073171
14_52_41_994,67.0,25.0,-8.0,-42.0,113.0,39.0,-128.0,43.0,0.8515625,-0.453125,0.20361328125,2.1951219512195124,6.158536585365854,14.451219512195124
14_52_41_994,-33.0,8.0,48.0,127.0,127.0,39.0,63.0,-123.0,0.83837890625,-0.41650390625,0.1259765625,20.48780487804878,1.2195121951219514,16.03658536585366
14_52_41_994,-2.0,-42.0,-34.0,-95.0,-128.0,-105.0,72.0,27.0,0.986328125,-0.48388671875,0.14453125,18.414634146341466,3.9024390243902443,19.573170731707318
14_52_41_994,10.0,-2.0,-25.0,-42.0,-112.0,-69.0,-24.0,18.0,0.84619140625,-0.529296875,0.22802734375,-9.573170731707318,6.829268292682928,11.707317073170733
14_52_41_994,-18.0,-47.0,-19.0,-114.0,-128.0,-128.0,-40.0,-50.0,0.74365234375,-0.31201171875,0.3408203125,5.731707317073171,13.353658536585368,22.134146341463417
14_52_41_994,-43.0,9.0,-42.0,-28.0,100.0,95.0,64.0,-11.0,0.9140625,-0.4111328125,0.32568359375,15.243902439024392,11.707317073170733,29.87804878048781
14_52_42_037,62.0,9.0,47.0,127.0,108.0,-128.0,-128.0,23.0,0.9111328125,-0.42236328125,0.20458984375,12.865853658536587,-1.4634146341463417,24.390243902439025
14_52_42_037,39.0,-13.0,38.0,-128.0,127.0,127.0,127.0,103.0,0.90380859375,-0.37158203125,0.22900390625,31.09756097560976,-4.634146341463415,14.207317073170733
14_52_42_037,-90.0,-40.0,-46.0,-128.0,-128.0,-128.0,17.0,-17.0,0.888671875,-0.53271484375,0.33642578125,16.34146341463415,-6.097560975609756,13.841463414634148
14_52_42_037,7.0,36.0,13.0,-104.0,-118.0,-75.0,72.0,0.0,0.94970703125,-0.484375,0.31640625,-15.54878048780488,1.0365853658536586,18.414634146341466
14_52_42_037,-4.0,-8.0,0.0,127.0,-52.0,-73.0,-6.0,-14.0,0.93505859375,-0.333984375,0.24755859375,-11.219512195121952,3.9024390243902443,12.560975609756099
14_52_42_037,21.0,-25.0,-16.0,-118.0,-49.0,-71.0,23.0,-27.0,0.98193359375,-0.3896484375,0.26611328125,2.5,2.5609756097560976,17.073170731707318
14_52_42_037,-40.0,13.0,40.0,64.0,127.0,127.0,75.0,49.0,0.93310546875,-0.54248046875,0.216796875,-13.231707317073171,4.329268292682928,14.207317073170733
14_52_42_037,84.0,11.0,36.0,81.0,123.0,-95.0,-128.0,-16.0,0.85009765625,-0.46484375,0.19580078125,-15.54878048780488,8.109756097560977,15.731707317073171
14_52_42_037,-37.0,20.0,-15.0,-91.0,-128.0,-128.0,-22.0,-30.0,0.8515625,-0.453125,0.20361328125,2.1951219512195124,6.158536585365854,14.451219512195124
14_52_42_037,-3.0,5.0,-11.0,127.0,127.0,51.0,-68.0,12.0,0.83837890625,-0.41650390625,0.1259765625,20.48780487804878,1.2195121951219514,16.03658536585366
14_52_42_087,71.0,35.0,51.0,127.0,127.0,127.0,-128.0,46.0,0.8916015625,-0.73193359375,0.29736328125,-1.9512195121951221,-2.073170731707317,23.29268292682927
14_52_42_087,78.0,19.0,54.0,127.0,-6.0,-128.0,53.0,-57.0,0.9111328125,-0.42236328125,0.20458984375,12.865853658536587,-1.4634146341463417,24.390243902439025
14_52_42_087,-105.0,-101.0,-113.0,-128.0,-128.0,15.0,-37.0,-44.0,0.90380859375,-0.37158203125,0.22900390625,31.09756097560976,-4.634146341463415,14.207317073170733
14_52_42_087,-128.0,-26.0,54.0,98.0,127.0,127.0,13.0,14.0,0.888671875,-0.53271484375,0.33642578125,16.34146341463415,-6.097560975609756,13.841463414634148
14_52_42_087,89.0,127.0,98.0,114.0,127.0,-111.0,101.0,26.0,0.94970703125,-0.484375,0.31640625,-15.54878048780488,1.0365853658536586,18.414634146341466
14_52_42_087,31.0,86.0,-36.0,-78.0,-128.0,-55.0,-93.0,117.0,0.93505859375,-0.333984375,0.24755859375,-11.219512195121952,3.9024390243902443,12.560975609756099
14_52_42_087,127.0,55.0,-73.0,-128.0,19.0,-106.0,60.0,1.0,0.98193359375,-0.3896484375,0.26611328125,2.5,2.5609756097560976,17.073170731707318
14_52_42_087,127.0,-20.0,18.0,71.0,76.0,127.0,-128.0,-35.0,0.93310546875,-0.54248046875,0.216796875,-13.231707317073171,4.329268292682928,14.207317073170733
14_52_42_087,92.0,13.0,-34.0,-128.0,-128.0,-9.0,127.0,35.0,0.85009765625,-0.46484375,0.19580078125,-15.54878048780488,8.109756097560977,15.731707317073171
14_52_42_145,5.0,16.0,-21.0,87.0,105.0,32.0,-2.0,81.0,0.96044921875,-0.4638671875,0.43115234375,16.76829268292683,9.390243902439025,42.25609756097561
14_52_42_145,74.0,-50.0,-8.0,-128.0,-128.0,-128.0,15.0,-86.0,0.94970703125,-0.50146484375,0.3935546875,9.02439024390244,3.536585365853659,33.90243902439025
14_52_42_145,127.0,-22.0,-74.0,-12.0,127.0,127.0,-128.0,-25.0,0.81982421875,-0.46533203125,0.29248046875,6.585365853658537,3.414634146341464,29.146341463414636
14_52_42_145,27.0,-52.0,56.0,20.0,127.0,127.0,127.0,-45.0,0.849609375,-0.78271484375,0.27587890625,3.7195121951219514,3.7195121951219514,25.54878048780488
14_52_42_145,1.0,18.0,35.0,91.0,-128.0,-128.0,-62.0,81.0,0.8916015625,-0.73193359375,0.29736328125,-1.9512195121951221,-2.073170731707317,23.29268292682927
14_52_42_145,-101.0,-44.0,-95.0,-128.0,-128.0,-36.0,-90.0,-52.0,0.9111328125,-0.42236328125,0.20458984375,12.865853658536587,-1.4634146341463417,24.390243902439025
14_52_42_145,-14.0,3.0,-17.0,105.0,127.0,127.0,42.0,-11.0,0.90380859375,-0.37158203125,0.22900390625,31.09756097560976,-4.634146341463415,14.207317073170733
14_52_42_145,96.0,45.0,103.0,127.0,127.0,127.0,77.0,56.0,0.888671875,-0.53271484375,0.33642578125,16.34146341463415,-6.097560975609756,13.841463414634148
14_52_42_145,-15.0,12.0,45.0,127.0,-74.0,-128.0,-96.0,-49.0,0.94970703125,-0.484375,0.31640625,-15.54878048780488,1.0365853658536586,18.414634146341466
14_52_42_145,-44.0,-47.0,-42.0,127.0,-128.0,-128.0,40.0,40.0,0.93505859375,-0.333984375,0.24755859375,-11.219512195121952,3.9024390243902443,12.560975609756099
14_52_42_194,-33.0,0.0,-14.0,65.0,61.0,36.0,53.0,-96.0,1.07275390625,-0.45166015625,0.3798828125,13.902439024390246,16.219512195121954,41.707317073170735
14_52_42_194,3.0,-21.0,17.0,114.0,-75.0,-50.0,15.0,4.0,0.95068359375,-0.44384765625,0.3349609375,9.146341463414634,18.10975609756098,37.926829268292686
14_52_42_194,-3.0,-20.0,-69.0,-128.0,-128.0,-6.0,6.0,17.0,0.96044921875,-0.4638671875,0.43115234375,16.76829268292683,9.390243902439025,42.25609756097561
14_52_42_194,-33.0,-18.0,33.0,127.0,127.0,-99.0,-8.0,38.0,0.94970703125,-0.50146484375,0.3935546875,9.02439024390244,3.536585365853659,33.90243902439025
14_52_42_194,-14.0,22.0,56.0,127.0,60.0,-43.0,-128.0,12.0,0.81982421875,-0.46533203125,0.29248046875,6.585365853658537,3.414634146341464,29.146341463414636
14_52_42_194,46.0,49.0,10.0,112.0,127.0,127.0,127.0,-120.0,0.849609375,-0.78271484375,0.27587890625,3.7195121951219514,3.7195121951219514,25.54878048780488
14_52_42_194,-24.0,-23.0,-19.0,-128.0,-62.0,-62.0,66.0,-11.0,0.8916015625,-0.73193359375,0.29736328125,-1.9512195121951221,-2.073170731707317,23.29268292682927
14_52_42_194,-23.0,-115.0,-3.0,-128.0,-128.0,-128.0,-47.0,42.0,0.9111328125,-0.42236328125,0.20458984375,12.865853658536587,-1.4634146341463417,24.390243902439025
14_52_42_194,10.0,42.0,-13.0,-128.0,127.0,127.0,127.0,5.0,0.90380859375,-0.37158203125,0.22900390625,31.09756097560976,-4.634146341463415,14.207317073170733
14_52_42_194,10.0,22.0,24.0,-49.0,48.0,-23.0,13.0,42.0,0.888671875,-0.53271484375,0.33642578125,16.34146341463415,-6.097560975609756,13.841463414634148
14_52_42_241,2.0,31.0,53.0,127.0,-128.0,-128.0,54.0,64.0,0.85498046875,-0.58251953125,0.1796875,8.841463414634147,30.426829268292686,46.03658536585366
14_52_42_241,-50.0,-36.0,-24.0,127.0,-81.0,-61.0,-94.0,-52.0,0.93505859375,-0.53173828125,0.1513671875,23.353658536585368,22.926829268292686,47.31707317073171
14_52_42_241,9.0,-52.0,-61.0,-112.0,-128.0,-128.0,-128.0,-20.0,0.99169921875,-0.55615234375,0.29736328125,23.963414634146343,14.146341463414636,37.743902439024396
14_52_42_241,9.0,106.0,6.0,-68.0,127.0,127.0,127.0,81.0,1.07275390625,-0.45166015625,0.3798828125,13.902439024390246,16.219512195121954,41.707317073170735
14_52_42_241,10.0,-40.0,2.0,13.0,-62.0,32.0,-72.0,0.0,0.95068359375,-0.44384765625,0.3349609375,9.146341463414634,18.10975609756098,37.926829268292686
14_52_42_241,-68.0,-47.0,-47.0,8.0,-38.0,-104.0,90.0,-22.0,0.96044921875,-0.4638671875,0.43115234375,16.76829268292683,9.390243902439025,42.25609756097561
14_52_42_241,127.0,127.0,14.0,69.0,-128.0,-60.0,34.0,-63.0,0.94970703125,-0.50146484375,0.3935546875,9.02439024390244,3.536585365853659,33.90243902439025
14_52_42_241,3.0,-73.0,13.0,44.0,127.0,127.0,-1.0,118.0,0.81982421875,-0.46533203125,0.29248046875,6.585365853658537,3.414634146341464,29.146341463414636
14_52_42_241,43.0,-56.0,-43.0,-32.0,-128.0,-128.0,-56.0,50.0,0.849609375,-0.78271484375,0.27587890625,3.7195121951219514,3.7195121951219514,25.54878048780488
14_52_42_241,-1.0,60.0,0.0,-22.0,127.0,127.0,127.0,13.0,0.8916015625,-0.73193359375,0.29736328125,-1.9512195121951221,-2.073170731707317,23.29268292682927
14_52_42_297,116.0,55.0,8.0,-128.0,-128.0,-128.0,64.0,126.0,0.83203125,-0.66552734375,0.19873046875,-14.939024390243905,39.207317073170735,59.146341463414636
14_52_42_297,-51.0,-29.0,-42.0,127.0,-128.0,11.0,127.0,108.0,0.76953125,-0.6533203125,0.1806640625,-9.329268292682928,36.34146341463415,48.35365853658537
14_52_42_297,13.0,42.0,21.0,-52.0,127.0,65.0,76.0,-128.0,0.85498046875,-0.58251953125,0.1796875,8.841463414634147,30.426829268292686,46.03658536585366
14_52_42_297,56.0,-44.0,45.0,-36.0,127.0,92.0,46.0,127.0,0.93505859375,-0.53173828125,0.1513671875,23.353658536585368,22.926829268292686,47.31707317073171
14_52_42_297,98.0,26.0,-5.0,76.0,-128.0,-115.0,68.0,27.0,0.99169921875,-0.55615234375,0.29736328125,23.963414634146343,14.146341463414636,37.743902439024396
14_52_42_297,-107.0,-49.0,-50.0,4.0,-128.0,-111.0,-44.0,-43.0,1.07275390625,-0.45166015625,0.3798828125,13.902439024390246,16.219512195121954,41.707317073170735
14_52_42_297,-13.0,5.0,-25.0,109.0,11.0,8.0,46.0,84.0,0.95068359375,-0.44384765625,0.3349609375,9.146341463414634,18.10975609756098,37.926829268292686
14_52_42_297,32.0,-48.0,89.0,-80.0,127.0,127.0,73.0,40.0,0.96044921875,-0.4638671875,0.43115234375,16.76829268292683,9.390243902439025,42.25609756097561
14_52_42_297,2.0,31.0,53.0,127.0,-128.0,-128.0,54.0,64.0,0.94970703125,-0.50146484375,0.3935546875,9.02439024390244,3.536585365853659,33.90243902439025
