Timestamps,channel_1,channel_2,channel_3,channel_4,channel_5,channel_6,channel_7,channel_8,ACC_X,ACC_Y,ACC_Z,GYR_X,GYR_Y,GYR_Z
11_34_28_533,0.0,0.0,0.0,0.0,0.0,0.0,0.0,0.0,0.0,0.0,0.0,0.0,0.0,0.0
11_34_28_533,0.0,0.0,0.0,0.0,0.0,0.0,0.0,0.0,0.0,0.0,0.0,0.0,0.0,0.0
11_34_28_533,0.0,0.0,0.0,0.0,0.0,0.0,0.0,0.0,0.0,0.0,0.0,0.0,0.0,0.0
11_34_28_533,0.0,0.0,0.0,0.0,0.0,0.0,0.0,0.0,0.0,0.0,0.0,0.0,0.0,0.0
11_34_28_533,0.0,0.0,0.0,0.0,0.0,0.0,0.0,0.0,0.0,0.0,0.0,0.0,0.0,0.0
11_34_28_533,0.0,0.0,0.0,0.0,0.0,0.0,0.0,0.0,0.0,0.0,0.0,0.0,0.0,0.0
11_34_28_533,0.0,0.0,0.0,0.0,0.0,0.0,0.0,0.0,0.0,0.0,0.0,0.0,0.0,0.0
11_34_28_533,0.0,0.0,0.0,0.0,0.0,0.0,0.0,0.0,0.0,0.0,0.0,0.0,0.0,0.0
11_34_28_533,0.0,0.0,0.0,0.0,0.0,0.0,0.0,0.0,0.0,0.0,0.0,0.0,0.0,0.0
11_34_28_533,0.0,0.0,0.0,0.0,0.0,0.0,0.0,0.0,0.0,0.0,0.0,0.0,0.0,0.0
11_34_29_784,-6.0,-1.0,-3.0,-1.0,-8.0,1.0,-3.0,-5.0,0.0,0.0,0.0,0.0,0.0,0.0
11_34_29_784,-3.0,-3.0,-3.0,3.0,-1.0,0.0,-1.0,1.0,0.0,0.0,0.0,0.0,0.0,0.0
11_34_29_784,0.0,0.0,0.0,0.0,0.0,0.0,0.0,0.0,0.0,0.0,0.0,0.0,0.0,0.0
11_34_29_784,0.0,0.0,0.0,0.0,0.0,0.0,0.0,0.0,0.0,0.0,0.0,0.0,0.0,0.0
11_34_29_784,0.0,0.0,0.0,0.0,0.0,0.0,0.0,0.0,0.0,0.0,0.0,0.0,0.0,0.0
11_34_29_784,0.0,0.0,0.0,0.0,0.0,0.0,0.0,0.0,0.0,0.0,0.0,0.0,0.0,0.0
11_34_29_784,0.0,0.0,0.0,0.0,0.0,0.0,0.0,0.0,0.0,0.0,0.0,0.0,0.0,0.0
11_34_29_784,0.0,0.0,0.0,0.0,0.0,0.0,0.0,0.0,0.0,0.0,0.0,0.0,0.0,0.0
11_34_29_784,0.0,0.0,0.0,0.0,0.0,0.0,0.0,0.0,0.0,0.0,0.0,0.0,0.0,0.0
11_34_29_784,0.0,0.0,0.0,0.0,0.0,0.0,0.0,0.0,0.0,0.0,0.0,0.0,0.0,0.0
11_34_29_838,-2.0,-1.0,6.0,-5.0,5.0,-5.0,3.0,4.0,0.94140625,-0.15625,0.302734375,3.5975609756097566,0.1829268292682927,1.1585365853658538
11_34_29_838,1.0,-4.0,2.0,-2.0,-6.0,0.0,2.0,0.0,0.0,0.0,0.0,0.0,0.0,0.0
11_34_29_838,-6.0,-1.0,-3.0,-1.0,-8.0,1.0,-3.0,-5.0,0.0,0.0,0.0,0.0,0.0,0.0
11_34_29_838,-3.0,-3.0,-3.0,3.0,-1.0,0.0,-1.0,1.0,0.0,0.0,0.0,0.0,0.0,0.0
11_34_29_838,-6.0,-1.0,-3.0,-1.0,-8.0,1.0,-3.0,-5.0,0.0,0.0,0.0,0.0,0.0,0.0
11_34_29_838,-3.0,-3.0,-3.0,3.0,-1.0,0.0,-1.0,1.0,0.0,0.0,0.0,0.0,0.0,0.0
11_34_29_838,0.0,0.0,0.0,0.0,0.0,0.0,0.0,0.0,0.0,0.0,0.0,0.0,0.0,0.0
11_34_29_838,0.0,0.0,0.0,0.0,0.0,0.0,0.0,0.0,0.0,0.0,0.0,0.0,0.0,0.0
11_34_29_838,0.0,0.0,0.0,0.0,0.0,0.0,0.0,0.0,0.0,0.0,0.0,0.0,0.0,0.0
11_34_29_838,0.0,0.0,0.0,0.0,0.0,0.0,0.0,0.0,0.0,0.0,0.0,0.0,0.0,0.0
11_34_29_891,-2.0,0.0,-3.0,-2.0,-4.0,0.0,3.0,-6.0,0.953125,-0.1845703125,0.2861328125,6.585365853658537,1.4634146341463417,1.0975609756097562
11_34_29_891,0.0,1.0,-1.0,2.0,-1.0,-2.0,-2.0,-1.0,0.951171875,-0.18603515625,0.2802734375,1.6463414634146343,0.6097560975609757,0.9756097560975611
11_34_29_891,2.0,-2.0,-8.0,-2.0,-7.0,0.0,-3.0,-4.0,0.93310546875,-0.1640625,0.31787109375,2.073170731707317,0.9756097560975611,1.1585365853658538
11_34_29_891,-2.0,2.0,-4.0,-3.0,2.0,-3.0,1.0,-3.0,0.94140625,-0.15625,0.302734375,3.5975609756097566,0.1829268292682927,1.1585365853658538
11_34_29_891,0.0,-3.0,0.0,-2.0,-5.0,-5.0,-4.0,-6.0,0.0,0.0,0.0,0.0,0.0,0.0
11_34_29_891,0.0,3.0,-4.0,1.0,2.0,0.0,-5.0,5.0,0.0,0.0,0.0,0.0,0.0,0.0
11_34_29_891,3.0,1.0,-1.0,-3.0,3.0,0.0,3.0,1.0,0.0,0.0,0.0,0.0,0.0,0.0
11_34_29_891,2.0,3.0,0.0,3.0,-5.0,1.0,1.0,1.0,0.0,0.0,0.0,0.0,0.0,0.0
11_34_29_891,1.0,4.0,8.0,-7.0,0.0,1.0,-2.0,-3.0,0.0,0.0,0.0,0.0,0.0,0.0
11_34_29_891,-3.0,-7.0,-15.0,-4.0,-1.0,1.0,-2.0,-1.0,0.0,0.0,0.0,0.0,0.0,0.0
11_34_29_937,2.0,-1.0,-6.0,5.0,-9.0,5.0,-3.0,-4.0,0.99609375,-0.1142578125,0.2919921875,0.6097560975609757,9.634146341463415,0.9146341463414634
11_34_29_937,-2.0,-9.0,2.0,-2.0,19.0,2.0,-16.0,14.0,0.96240234375,-0.1396484375,0.29443359375,6.890243902439025,6.951219512195123,0.7926829268292683
11_34_29_937,2.0,0.0,-1.0,-3.0,1.0,-4.0,1.0,-4.0,0.96240234375,-0.1396484375,0.29443359375,6.890243902439025,6.951219512195123,0.7926829268292683
11_34_29_937,-2.0,2.0,-5.0,-4.0,1.0,-2.0,4.0,-1.0,0.953125,-0.1845703125,0.2861328125,6.585365853658537,1.4634146341463417,1.0975609756097562
11_34_29_937,-2.0,0.0,-3.0,-2.0,-4.0,0.0,3.0,-6.0,0.951171875,-0.18603515625,0.2802734375,1.6463414634146343,0.6097560975609757,0.9756097560975611
11_34_29_937,0.0,1.0,-1.0,2.0,-1.0,-2.0,-2.0,-1.0,0.93310546875,-0.1640625,0.31787109375,2.073170731707317,0.9756097560975611,1.1585365853658538
11_34_29_937,2.0,-2.0,-8.0,-2.0,-7.0,0.0,-3.0,-4.0,0.94140625,-0.15625,0.302734375,3.5975609756097566,0.1829268292682927,1.1585365853658538
11_34_29_937,-2.0,2.0,-4.0,-3.0,2.0,-3.0,1.0,-3.0,0.0,0.0,0.0,0.0,0.0,0.0
11_34_29_937,0.0,-3.0,0.0,-2.0,-5.0,-5.0,-4.0,-6.0,0.0,0.0,0.0,0.0,0.0,0.0
11_34_29_937,0.0,3.0,-4.0,1.0,2.0,0.0,-5.0,5.0,0.0,0.0,0.0,0.0,0.0,0.0
11_34_29_997,-3.0,6.0,-3.0,-6.0,-8.0,-2.0,3.0,-3.0,0.48193359375,-0.2578125,-0.18408203125,-2.7439024390243905,10.060975609756099,1.3414634146341464
11_34_29_997,-1.0,-16.0,7.0,-13.0,42.0,7.0,-12.0,21.0,0.3408203125,-0.22705078125,-0.14453125,-1.829268292682927,11.219512195121952,-0.853658536585366
11_34_29_997,0.0,2.0,-7.0,-3.0,-9.0,-3.0,3.0,-6.0,0.99609375,-0.1142578125,0.2919921875,0.6097560975609757,9.634146341463415,0.9146341463414634
11_34_29_997,1.0,-17.0,5.0,-8.0,36.0,5.0,-13.0,15.0,0.96240234375,-0.1396484375,0.29443359375,6.890243902439025,6.951219512195123,0.7926829268292683
11_34_29_997,-2.0,7.0,-3.0,8.0,-11.0,1.0,0.0,-7.0,0.96240234375,-0.1396484375,0.29443359375,6.890243902439025,6.951219512195123,0.7926829268292683
11_34_29_997,0.0,-9.0,15.0,-5.0,26.0,2.0,-7.0,12.0,0.953125,-0.1845703125,0.2861328125,6.585365853658537,1.4634146341463417,1.0975609756097562
11_34_29_997,-4.0,-3.0,-3.0,-3.0,-1.0,-3.0,0.0,-2.0,0.951171875,-0.18603515625,0.2802734375,1.6463414634146343,0.6097560975609757,0.9756097560975611
11_34_29_997,4.0,-18.0,2.0,-5.0,36.0,6.0,-9.0,22.0,0.93310546875,-0.1640625,0.31787109375,2.073170731707317,0.9756097560975611,1.1585365853658538
11_34_29_997,-3.0,-12.0,-6.0,0.0,-18.0,-3.0,2.0,-8.0,0.94140625,-0.15625,0.302734375,3.5975609756097566,0.1829268292682927,1.1585365853658538
11_34_29_997,2.0,4.0,16.0,-2.0,23.0,1.0,-4.0,10.0,0.0,0.0,0.0,0.0,0.0,0.0
11_34_30_038,-4.0,3.0,-8.0,13.0,-16.0,-2.0,3.0,-12.0,0.48193359375,-0.2578125,-0.18408203125,-2.7439024390243905,10.060975609756099,1.3414634146341464
11_34_30_038,1.0,-20.0,8.0,10.0,35.0,4.0,-16.0,15.0,0.3408203125,-0.22705078125,-0.14453125,-1.829268292682927,11.219512195121952,-0.853658536585366
11_34_30_038,-3.0,6.0,-3.0,-6.0,-8.0,-2.0,3.0,-3.0,0.99609375,-0.1142578125,0.2919921875,0.6097560975609757,9.634146341463415,0.9146341463414634
11_34_30_038,-1.0,-16.0,7.0,-13.0,42.0,7.0,-12.0,21.0,0.96240234375,-0.1396484375,0.29443359375,6.890243902439025,6.951219512195123,0.7926829268292683
11_34_30_038,0.0,2.0,-7.0,-3.0,-9.0,-3.0,3.0,-6.0,0.96240234375,-0.1396484375,0.29443359375,6.890243902439025,6.951219512195123,0.7926829268292683
11_34_30_038,1.0,-17.0,5.0,-8.0,36.0,5.0,-13.0,15.0,0.953125,-0.1845703125,0.2861328125,6.585365853658537,1.4634146341463417,1.0975609756097562
11_34_30_038,-2.0,7.0,-3.0,8.0,-11.0,1.0,0.0,-7.0,0.951171875,-0.18603515625,0.2802734375,1.6463414634146343,0.6097560975609757,0.9756097560975611
11_34_30_038,0.0,-9.0,15.0,-5.0,26.0,2.0,-7.0,12.0,0.93310546875,-0.1640625,0.31787109375,2.073170731707317,0.9756097560975611,1.1585365853658538
11_34_30_038,-4.0,-3.0,-3.0,-3.0,-1.0,-3.0,0.0,-2.0,0.94140625,-0.15625,0.302734375,3.5975609756097566,0.1829268292682927,1.1585365853658538
11_34_30_038,4.0,-18.0,2.0,-5.0,36.0,6.0,-9.0,22.0,0.0,0.0,0.0,0.0,0.0,0.0
11_34_30_111,-1.0,10.0,-1.0,-5.0,-10.0,-4.0,3.0,-13.0,0.794921875,-0.27734375,-0.04052734375,8.353658536585366,6.402439024390245,0.48780487804878053
11_34_30_111,0.0,-24.0,10.0,-6.0,34.0,4.0,-9.0,22.0,0.48193359375,-0.2578125,-0.18408203125,-2.7439024390243905,10.060975609756099,1.3414634146341464
11_34_30_111,-4.0,3.0,-8.0,13.0,-16.0,-2.0,3.0,-12.0,0.3408203125,-0.22705078125,-0.14453125,-1.829268292682927,11.219512195121952,-0.853658536585366
11_34_30_111,1.0,-20.0,8.0,10.0,35.0,4.0,-16.0,15.0,0.99609375,-0.1142578125,0.2919921875,0.6097560975609757,9.634146341463415,0.9146341463414634
11_34_30_111,-3.0,6.0,-3.0,-6.0,-8.0,-2.0,3.0,-3.0,0.96240234375,-0.1396484375,0.29443359375,6.890243902439025,6.951219512195123,0.7926829268292683
11_34_30_111,-1.0,-16.0,7.0,-13.0,42.0,7.0,-12.0,21.0,0.96240234375,-0.1396484375,0.29443359375,6.890243902439025,6.951219512195123,0.7926829268292683
11_34_30_111,0.0,2.0,-7.0,-3.0,-9.0,-3.0,3.0,-6.0,0.953125,-0.1845703125,0.2861328125,6.585365853658537,1.4634146341463417,1.0975609756097562
11_34_30_111,1.0,-17.0,5.0,-8.0,36.0,5.0,-13.0,15.0,0.951171875,-0.18603515625,0.2802734375,1.6463414634146343,0.6097560975609757,0.9756097560975611
11_34_30_111,-2.0,7.0,-3.0,8.0,-11.0,1.0,0.0,-7.0,0.93310546875,-0.1640625,0.31787109375,2.073170731707317,0.9756097560975611,1.1585365853658538
11_34_30_111,0.0,-9.0,15.0,-5.0,26.0,2.0,-7.0,12.0,0.94140625,-0.15625,0.302734375,3.5975609756097566,0.1829268292682927,1.1585365853658538
11_34_30_146,-1.0,15.0,-9.0,3.0,-45.0,-9.0,14.0,-18.0,1.34619140625,0.00732421875,1.009765625,-13.536585365853659,3.8414634146341466,-2.1341463414634148
11_34_30_146,-2.0,-15.0,-6.0,9.0,29.0,7.0,-9.0,6.0,0.63671875,-0.26171875,-0.0947265625,-9.146341463414634,5.426829268292684,-2.9268292682926833
11_34_30_146,-4.0,6.0,-3.0,-7.0,-4.0,2.0,-3.0,-3.0,1.3896484375,0.06005859375,1.013671875,2.0121951219512195,12.01219512195122,1.5853658536585367
11_34_30_146,0.0,-24.0,5.0,-12.0,47.0,9.0,-19.0,21.0,1.32763671875,-0.06494140625,0.70263671875,9.634146341463415,8.475609756097562,1.3414634146341464
11_34_30_146,-5.0,4.0,-6.0,-3.0,-16.0,-6.0,6.0,-6.0,0.794921875,-0.27734375,-0.04052734375,8.353658536585366,6.402439024390245,0.48780487804878053
11_34_30_146,-1.0,-16.0,15.0,2.0,34.0,5.0,-9.0,18.0,0.48193359375,-0.2578125,-0.18408203125,-2.7439024390243905,10.060975609756099,1.3414634146341464
11_34_30_146,-1.0,10.0,-1.0,-5.0,-10.0,-4.0,3.0,-13.0,0.3408203125,-0.22705078125,-0.14453125,-1.829268292682927,11.219512195121952,-0.853658536585366
11_34_30_146,0.0,-24.0,10.0,-6.0,34.0,4.0,-9.0,22.0,0.99609375,-0.1142578125,0.2919921875,0.6097560975609757,9.634146341463415,0.9146341463414634
11_34_30_146,-4.0,3.0,-8.0,13.0,-16.0,-2.0,3.0,-12.0,0.96240234375,-0.1396484375,0.29443359375,6.890243902439025,6.951219512195123,0.7926829268292683
11_34_30_146,1.0,-20.0,8.0,10.0,35.0,4.0,-16.0,15.0,0.96240234375,-0.1396484375,0.29443359375,6.890243902439025,6.951219512195123,0.7926829268292683
11_34_30_201,1.0,6.0,2.0,2.0,-18.0,-6.0,8.0,-8.0,0.97216796875,-0.19384765625,0.26416015625,-2.3170731707317076,-2.439024390243903,-4.573170731707317
11_34_30_201,-3.0,-1.0,-10.0,-6.0,12.0,2.0,-11.0,3.0,0.37255859375,-0.31005859375,-0.43505859375,-2.3170731707317076,-0.1829268292682927,-5.365853658536586
11_34_30_201,-3.0,17.0,0.0,-9.0,-23.0,-10.0,9.0,-8.0,0.693359375,-0.15625,0.23681640625,-7.682926829268293,2.25609756097561,-2.804878048780488
11_34_30_201,-2.0,-15.0,1.0,-4.0,-2.0,-1.0,-3.0,0.0,1.34619140625,0.00732421875,1.009765625,-13.536585365853659,3.8414634146341466,-2.1341463414634148
11_34_30_201,2.0,16.0,-4.0,0.0,-26.0,-10.0,12.0,-15.0,0.63671875,-0.26171875,-0.0947265625,-9.146341463414634,5.426829268292684,-2.9268292682926833
11_34_30_201,-1.0,0.0,-11.0,7.0,5.0,3.0,-4.0,2.0,1.3896484375,0.06005859375,1.013671875,2.0121951219512195,12.01219512195122,1.5853658536585367
11_34_30_201,2.0,14.0,-5.0,-7.0,-28.0,-10.0,13.0,-13.0,1.32763671875,-0.06494140625,0.70263671875,9.634146341463415,8.475609756097562,1.3414634146341464
11_34_30_201,-1.0,-5.0,-2.0,-5.0,8.0,3.0,-5.0,0.0,0.794921875,-0.27734375,-0.04052734375,8.353658536585366,6.402439024390245,0.48780487804878053
11_34_30_201,-1.0,10.0,0.0,-7.0,-29.0,-9.0,8.0,-14.0,0.48193359375,-0.2578125,-0.18408203125,-2.7439024390243905,10.060975609756099,1.3414634146341464
11_34_30_201,-1.0,-8.0,-7.0,-2.0,14.0,3.0,-6.0,8.0,0.3408203125,-0.22705078125,-0.14453125,-1.829268292682927,11.219512195121952,-0.853658536585366
11_34_30_258,4.0,2.0,7.0,-22.0,-4.0,-6.0,6.0,0.0,0.404296875,-0.2998046875,-0.38232421875,0.853658536585366,-4.878048780487806,-3.8414634146341466
11_34_30_258,-6.0,-2.0,0.0,-1.0,-7.0,-2.0,-2.0,-3.0,0.9580078125,-0.1337890625,0.47119140625,-7.317073170731708,-2.1341463414634148,-5.731707317073171
11_34_30_258,-4.0,11.0,4.0,3.0,-26.0,-12.0,12.0,-13.0,1.45849609375,-0.02880859375,1.046875,-8.048780487804878,-1.402439024390244,-1.524390243902439
11_34_30_258,1.0,-4.0,1.0,13.0,-2.0,2.0,-1.0,-6.0,0.97216796875,-0.19384765625,0.26416015625,-2.3170731707317076,-2.439024390243903,-4.573170731707317
11_34_30_258,-1.0,2.0,8.0,-14.0,-7.0,-1.0,5.0,-1.0,0.37255859375,-0.31005859375,-0.43505859375,-2.3170731707317076,-0.1829268292682927,-5.365853658536586
11_34_30_258,-1.0,-3.0,-4.0,-6.0,5.0,3.0,-3.0,1.0,0.693359375,-0.15625,0.23681640625,-7.682926829268293,2.25609756097561,-2.804878048780488
11_34_30_258,5.0,7.0,1.0,2.0,-25.0,-9.0,15.0,-7.0,1.34619140625,0.00732421875,1.009765625,-13.536585365853659,3.8414634146341466,-2.1341463414634148
11_34_30_258,-5.0,1.0,-1.0,7.0,-3.0,1.0,-2.0,-4.0,0.63671875,-0.26171875,-0.0947265625,-9.146341463414634,5.426829268292684,-2.9268292682926833
11_34_30_258,1.0,6.0,2.0,2.0,-18.0,-6.0,8.0,-8.0,1.3896484375,0.06005859375,1.013671875,2.0121951219512195,12.01219512195122,1.5853658536585367
11_34_30_258,-3.0,-1.0,-10.0,-6.0,12.0,2.0,-11.0,3.0,1.32763671875,-0.06494140625,0.70263671875,9.634146341463415,8.475609756097562,1.3414634146341464
11_34_30_302,0.0,-8.0,7.0,-1.0,18.0,2.0,-3.0,12.0,1.0576171875,-0.06005859375,0.5751953125,-12.317073170731708,-3.2926829268292686,-1.9512195121951221
11_34_30_302,-5.0,-3.0,-11.0,11.0,-16.0,-4.0,5.0,-5.0,1.45654296875,-0.01318359375,0.96337890625,-8.841463414634147,-3.780487804878049,-3.1097560975609757
11_34_30_302,3.0,-6.0,12.0,-13.0,25.0,6.0,-7.0,15.0,0.85498046875,-0.2216796875,0.08837890625,0.853658536585366,-5.3048780487804885,-3.9024390243902443
11_34_30_302,-4.0,1.0,-7.0,-6.0,2.0,6.0,-3.0,-1.0,0.404296875,-0.2998046875,-0.38232421875,0.853658536585366,-4.878048780487806,-3.8414634146341466
11_34_30_302,-3.0,-7.0,12.0,-6.0,8.0,-6.0,-3.0,8.0,0.9580078125,-0.1337890625,0.47119140625,-7.317073170731708,-2.1341463414634148,-5.731707317073171
11_34_30_302,-6.0,2.0,-10.0,4.0,-18.0,-2.0,3.0,-9.0,1.45849609375,-0.02880859375,1.046875,-8.048780487804878,-1.402439024390244,-1.524390243902439
11_34_30_302,-3.0,-4.0,6.0,5.0,-6.0,-7.0,3.0,-1.0,0.97216796875,-0.19384765625,0.26416015625,-2.3170731707317076,-2.439024390243903,-4.573170731707317
11_34_30_302,-2.0,1.0,-4.0,2.0,1.0,5.0,-3.0,-1.0,0.37255859375,-0.31005859375,-0.43505859375,-2.3170731707317076,-0.1829268292682927,-5.365853658536586
11_34_30_302,4.0,2.0,8.0,-10.0,-8.0,-5.0,1.0,1.0,0.693359375,-0.15625,0.23681640625,-7.682926829268293,2.25609756097561,-2.804878048780488
11_34_30_302,-1.0,5.0,-9.0,-9.0,-1.0,2.0,-1.0,-6.0,1.34619140625,0.00732421875,1.009765625,-13.536585365853659,3.8414634146341466,-2.1341463414634148
11_34_30_351,4.0,-20.0,9.0,2.0,39.0,3.0,-17.0,16.0,0.78515625,-0.25439453125,0.03125,-4.451219512195122,-3.1097560975609757,-2.0121951219512195
11_34_30_351,-3.0,3.0,-5.0,9.0,-8.0,-4.0,-4.0,-6.0,0.41943359375,-0.27099609375,-0.32080078125,-6.7682926829268295,-3.5975609756097566,-4.207317073170732
11_34_30_351,4.0,-21.0,8.0,-11.0,42.0,5.0,-13.0,19.0,1.0576171875,-0.06005859375,0.5751953125,-12.317073170731708,-3.2926829268292686,-1.9512195121951221
11_34_30_351,-2.0,4.0,-12.0,-6.0,-16.0,-4.0,-1.0,-4.0,1.45654296875,-0.01318359375,0.96337890625,-8.841463414634147,-3.780487804878049,-3.1097560975609757
11_34_30_351,-2.0,-11.0,14.0,-4.0,31.0,2.0,-7.0,18.0,0.85498046875,-0.2216796875,0.08837890625,0.853658536585366,-5.3048780487804885,-3.9024390243902443
11_34_30_351,-7.0,8.0,1.0,5.0,-10.0,-1.0,-2.0,-6.0,0.404296875,-0.2998046875,-0.38232421875,0.853658536585366,-4.878048780487806,-3.8414634146341466
11_34_30_351,0.0,-10.0,9.0,11.0,30.0,1.0,-6.0,9.0,0.9580078125,-0.1337890625,0.47119140625,-7.317073170731708,-2.1341463414634148,-5.731707317073171
11_34_30_351,4.0,-3.0,-4.0,-2.0,-10.0,0.0,-1.0,-8.0,1.45849609375,-0.02880859375,1.046875,-8.048780487804878,-1.402439024390244,-1.524390243902439
11_34_30_351,2.0,-15.0,13.0,-17.0,38.0,5.0,-15.0,17.0,0.97216796875,-0.19384765625,0.26416015625,-2.3170731707317076,-2.439024390243903,-4.573170731707317
11_34_30_351,-4.0,-3.0,-11.0,-1.0,-12.0,-5.0,0.0,-11.0,0.37255859375,-0.31005859375,-0.43505859375,-2.3170731707317076,-0.1829268292682927,-5.365853658536586
11_34_30_412,-2.0,-19.0,10.0,-16.0,39.0,4.0,-11.0,18.0,1.42578125,-0.05224609375,0.94091796875,-7.01219512195122,-2.8658536585365857,0.0
11_34_30_412,-3.0,6.0,-2.0,3.0,-17.0,-5.0,6.0,-12.0,0.78515625,-0.25439453125,0.03125,-4.451219512195122,-3.1097560975609757,-2.0121951219512195
11_34_30_412,4.0,-20.0,9.0,2.0,39.0,3.0,-17.0,16.0,0.41943359375,-0.27099609375,-0.32080078125,-6.7682926829268295,-3.5975609756097566,-4.207317073170732
11_34_30_412,-3.0,3.0,-5.0,9.0,-8.0,-4.0,-4.0,-6.0,1.0576171875,-0.06005859375,0.5751953125,-12.317073170731708,-3.2926829268292686,-1.9512195121951221
11_34_30_412,4.0,-21.0,8.0,-11.0,42.0,5.0,-13.0,19.0,1.45654296875,-0.01318359375,0.96337890625,-8.841463414634147,-3.780487804878049,-3.1097560975609757
11_34_30_412,-2.0,4.0,-12.0,-6.0,-16.0,-4.0,-1.0,-4.0,0.85498046875,-0.2216796875,0.08837890625,0.853658536585366,-5.3048780487804885,-3.9024390243902443
11_34_30_412,-2.0,-11.0,14.0,-4.0,31.0,2.0,-7.0,18.0,0.404296875,-0.2998046875,-0.38232421875,0.853658536585366,-4.878048780487806,-3.8414634146341466
11_34_30_412,-7.0,8.0,1.0,5.0,-10.0,-1.0,-2.0,-6.0,0.9580078125,-0.1337890625,0.47119140625,-7.317073170731708,-2.1341463414634148,-5.731707317073171
11_34_30_412,0.0,-10.0,9.0,11.0,30.0,1.0,-6.0,9.0,1.45849609375,-0.02880859375,1.046875,-8.048780487804878,-1.402439024390244,-1.524390243902439
11_34_30_412,4.0,-3.0,-4.0,-2.0,-10.0,0.0,-1.0,-8.0,0.97216796875,-0.19384765625,0.26416015625,-2.3170731707317076,-2.439024390243903,-4.573170731707317
11_34_30_457,1.0,-13.0,6.0,-11.0,28.0,6.0,-10.0,12.0,1.40283203125,-0.037109375,0.9140625,-6.7682926829268295,-1.5853658536585367,-1.1585365853658538
11_34_30_457,-2.0,16.0,-2.0,2.0,-28.0,-9.0,8.0,-21.0,0.4130859375,-0.2685546875,-0.27685546875,-0.9756097560975611,-3.658536585365854,-3.414634146341464
11_34_30_457,0.0,-13.0,7.0,4.0,24.0,6.0,-12.0,15.0,1.09814453125,-0.0712890625,0.66259765625,-6.158536585365854,-2.682926829268293,-0.30487804878048785
11_34_30_457,3.0,6.0,6.0,14.0,-20.0,-5.0,8.0,-17.0,1.42578125,-0.05224609375,0.94091796875,-7.01219512195122,-2.8658536585365857,0.0
11_34_30_457,0.0,-19.0,-3.0,-6.0,28.0,5.0,-14.0,16.0,0.78515625,-0.25439453125,0.03125,-4.451219512195122,-3.1097560975609757,-2.0121951219512195
11_34_30_457,5.0,13.0,9.0,-3.0,-8.0,0.0,10.0,-10.0,0.41943359375,-0.27099609375,-0.32080078125,-6.7682926829268295,-3.5975609756097566,-4.207317073170732
11_34_30_457,-1.0,-9.0,4.0,-6.0,38.0,6.0,-12.0,15.0,1.0576171875,-0.06005859375,0.5751953125,-12.317073170731708,-3.2926829268292686,-1.9512195121951221
11_34_30_457,-2.0,5.0,-3.0,6.0,-3.0,3.0,6.0,-4.0,1.45654296875,-0.01318359375,0.96337890625,-8.841463414634147,-3.780487804878049,-3.1097560975609757
11_34_30_457,-4.0,-14.0,-1.0,12.0,23.0,3.0,-11.0,12.0,0.85498046875,-0.2216796875,0.08837890625,0.853658536585366,-5.3048780487804885,-3.9024390243902443
11_34_30_457,-2.0,5.0,-5.0,-6.0,-11.0,-1.0,-1.0,-1.0,0.404296875,-0.2998046875,-0.38232421875,0.853658536585366,-4.878048780487806,-3.8414634146341466
11_34_30_518,-1.0,-10.0,-9.0,-5.0,25.0,7.0,-14.0,13.0,1.126953125,-0.06298828125,0.6982421875,-9.146341463414634,-1.0365853658536586,-0.853658536585366
11_34_30_518,2.0,16.0,-6.0,-11.0,-33.0,-7.0,9.0,-18.0,1.40283203125,-0.037109375,0.9140625,-6.7682926829268295,-1.5853658536585367,-1.1585365853658538
11_34_30_518,-1.0,-17.0,2.0,-2.0,15.0,4.0,-4.0,5.0,0.4130859375,-0.2685546875,-0.27685546875,-0.9756097560975611,-3.658536585365854,-3.414634146341464
11_34_30_518,-1.0,21.0,-11.0,5.0,-45.0,-14.0,14.0,-21.0,1.09814453125,-0.0712890625,0.66259765625,-6.158536585365854,-2.682926829268293,-0.30487804878048785
11_34_30_518,0.0,-15.0,-1.0,9.0,33.0,12.0,-15.0,10.0,1.42578125,-0.05224609375,0.94091796875,-7.01219512195122,-2.8658536585365857,0.0
11_34_30_518,-2.0,16.0,-9.0,-12.0,-28.0,-6.0,9.0,-13.0,0.78515625,-0.25439453125,0.03125,-4.451219512195122,-3.1097560975609757,-2.0121951219512195
11_34_30_518,1.0,-13.0,6.0,-11.0,28.0,6.0,-10.0,12.0,0.41943359375,-0.27099609375,-0.32080078125,-6.7682926829268295,-3.5975609756097566,-4.207317073170732
11_34_30_518,-2.0,16.0,-2.0,2.0,-28.0,-9.0,8.0,-21.0,1.0576171875,-0.06005859375,0.5751953125,-12.317073170731708,-3.2926829268292686,-1.9512195121951221
11_34_30_518,0.0,-13.0,7.0,4.0,24.0,6.0,-12.0,15.0,1.45654296875,-0.01318359375,0.96337890625,-8.841463414634147,-3.780487804878049,-3.1097560975609757
11_34_30_518,3.0,6.0,6.0,14.0,-20.0,-5.0,8.0,-17.0,0.85498046875,-0.2216796875,0.08837890625,0.853658536585366,-5.3048780487804885,-3.9024390243902443
11_34_30_553,-3.0,0.0,-6.0,7.0,-3.0,-1.0,-4.0,-1.0,0.3818359375,-0.2392578125,-0.34619140625,-7.378048780487806,2.1951219512195124,-2.3170731707317076
11_34_30_553,2.0,16.0,-1.0,-6.0,-15.0,-7.0,7.0,-9.0,1.0673828125,-0.02197265625,0.62060546875,-9.207317073170733,2.8658536585365857,-0.5487804878048781
11_34_30_553,-3.0,-28.0,-7.0,-2.0,11.0,2.0,-7.0,7.0,1.42333984375,-0.0087890625,0.9248046875,-1.524390243902439,0.7926829268292683,-2.1341463414634148
11_34_30_553,1.0,24.0,7.0,-13.0,-27.0,-10.0,5.0,-9.0,0.4267578125,-0.2783203125,-0.25732421875,-0.6097560975609757,-2.25609756097561,-3.048780487804878
11_34_30_553,-1.0,-6.0,-3.0,2.0,3.0,0.0,-5.0,1.0,1.126953125,-0.06298828125,0.6982421875,-9.146341463414634,-1.0365853658536586,-0.853658536585366
11_34_30_553,2.0,14.0,3.0,5.0,-31.0,-9.0,17.0,-21.0,1.40283203125,-0.037109375,0.9140625,-6.7682926829268295,-1.5853658536585367,-1.1585365853658538
11_34_30_553,-1.0,-6.0,-1.0,9.0,6.0,4.0,-9.0,-1.0,0.4130859375,-0.2685546875,-0.27685546875,-0.9756097560975611,-3.658536585365854,-3.414634146341464
11_34_30_553,1.0,10.0,-4.0,-9.0,-20.0,-6.0,3.0,-8.0,1.09814453125,-0.0712890625,0.66259765625,-6.158536585365854,-2.682926829268293,-0.30487804878048785
11_34_30_553,-4.0,-7.0,-7.0,-6.0,9.0,2.0,-7.0,3.0,1.42578125,-0.05224609375,0.94091796875,-7.01219512195122,-2.8658536585365857,0.0
11_34_30_553,2.0,11.0,3.0,-3.0,-26.0,-8.0,13.0,-13.0,0.78515625,-0.25439453125,0.03125,-4.451219512195122,-3.1097560975609757,-2.0121951219512195
11_34_30_606,-1.0,-1.0,-4.0,-2.0,3.0,-1.0,-3.0,-1.0,0.810546875,-0.22509765625,0.091796875,-5.7926829268292686,2.1341463414634148,-0.30487804878048785
11_34_30_606,1.0,6.0,-1.0,-11.0,-15.0,-9.0,8.0,-5.0,0.3818359375,-0.2392578125,-0.34619140625,-7.378048780487806,2.1951219512195124,-2.3170731707317076
11_34_30_606,-1.0,-7.0,-1.0,-12.0,11.0,6.0,-5.0,-3.0,1.0673828125,-0.02197265625,0.62060546875,-9.207317073170733,2.8658536585365857,-0.5487804878048781
11_34_30_606,1.0,8.0,8.0,-1.0,-29.0,-9.0,13.0,-10.0,1.42333984375,-0.0087890625,0.9248046875,-1.524390243902439,0.7926829268292683,-2.1341463414634148
11_34_30_606,-3.0,0.0,-6.0,7.0,-3.0,-1.0,-4.0,-1.0,0.4267578125,-0.2783203125,-0.25732421875,-0.6097560975609757,-2.25609756097561,-3.048780487804878
11_34_30_606,2.0,16.0,-1.0,-6.0,-15.0,-7.0,7.0,-9.0,1.126953125,-0.06298828125,0.6982421875,-9.146341463414634,-1.0365853658536586,-0.853658536585366
11_34_30_606,-3.0,-28.0,-7.0,-2.0,11.0,2.0,-7.0,7.0,1.40283203125,-0.037109375,0.9140625,-6.7682926829268295,-1.5853658536585367,-1.1585365853658538
11_34_30_606,1.0,24.0,7.0,-13.0,-27.0,-10.0,5.0,-9.0,0.4130859375,-0.2685546875,-0.27685546875,-0.9756097560975611,-3.658536585365854,-3.414634146341464
11_34_30_606,-1.0,-6.0,-3.0,2.0,3.0,0.0,-5.0,1.0,1.09814453125,-0.0712890625,0.66259765625,-6.158536585365854,-2.682926829268293,-0.30487804878048785
11_34_30_606,2.0,14.0,3.0,5.0,-31.0,-9.0,17.0,-21.0,1.42578125,-0.05224609375,0.94091796875,-7.01219512195122,-2.8658536585365857,0.0
11_34_30_666,-4.0,-2.0,-2.0,-6.0,-2.0,2.0,-5.0,-2.0,0.3701171875,-0.275390625,-0.42724609375,-4.939024390243903,1.524390243902439,0.6097560975609757
11_34_30_666,-6.0,-5.0,-1.0,-4.0,-1.0,-5.0,4.0,3.0,0.919921875,-0.083984375,0.470703125,-7.865853658536586,3.414634146341464,3.5975609756097566
11_34_30_666,-5.0,3.0,-6.0,7.0,-6.0,-1.0,0.0,-3.0,1.43310546875,-0.0244140625,1.03076171875,-8.658536585365855,3.7195121951219514,3.1707317073170733
11_34_30_666,-1.0,1.0,-2.0,3.0,-16.0,-6.0,-1.0,0.0,0.810546875,-0.22509765625,0.091796875,-5.7926829268292686,2.1341463414634148,-0.30487804878048785
11_34_30_666,-3.0,1.0,-3.0,-1.0,5.0,5.0,-5.0,-2.0,0.3818359375,-0.2392578125,-0.34619140625,-7.378048780487806,2.1951219512195124,-2.3170731707317076
11_34_30_666,-1.0,-4.0,10.0,-16.0,-5.0,-3.0,1.0,-5.0,1.0673828125,-0.02197265625,0.62060546875,-9.207317073170733,2.8658536585365857,-0.5487804878048781
11_34_30_666,-5.0,-2.0,-11.0,2.0,-5.0,-6.0,2.0,-4.0,1.42333984375,-0.0087890625,0.9248046875,-1.524390243902439,0.7926829268292683,-2.1341463414634148
11_34_30_666,0.0,5.0,2.0,8.0,-20.0,-8.0,6.0,-8.0,0.4267578125,-0.2783203125,-0.25732421875,-0.6097560975609757,-2.25609756097561,-3.048780487804878
11_34_30_666,-1.0,1.0,-7.0,11.0,-5.0,2.0,-4.0,-2.0,1.126953125,-0.06298828125,0.6982421875,-9.146341463414634,-1.0365853658536586,-0.853658536585366
11_34_30_666,0.0,1.0,3.0,-9.0,-8.0,-2.0,3.0,0.0,1.40283203125,-0.037109375,0.9140625,-6.7682926829268295,-1.5853658536585367,-1.1585365853658538
11_34_30_704,-3.0,5.0,-4.0,-1.0,-14.0,-5.0,5.0,-8.0,0.7763671875,-0.1552734375,0.3017578125,-11.036585365853659,1.1585365853658538,3.048780487804878
11_34_30_704,-5.0,-11.0,2.0,7.0,29.0,1.0,-7.0,13.0,1.43310546875,-0.00537109375,1.09619140625,-15.365853658536587,2.378048780487805,4.695121951219512
11_34_30_704,-6.0,7.0,-7.0,13.0,-16.0,1.0,1.0,-8.0,0.95068359375,-0.17724609375,0.251953125,-8.475609756097562,0.9756097560975611,0.7317073170731708
11_34_30_704,1.0,-13.0,11.0,-14.0,42.0,9.0,-17.0,22.0,0.3701171875,-0.275390625,-0.42724609375,-4.939024390243903,1.524390243902439,0.6097560975609757
11_34_30_704,-5.0,-6.0,0.0,-4.0,-12.0,-6.0,2.0,-5.0,0.919921875,-0.083984375,0.470703125,-7.865853658536586,3.414634146341464,3.5975609756097566
11_34_30_704,2.0,-5.0,12.0,-8.0,20.0,4.0,-4.0,12.0,1.43310546875,-0.0244140625,1.03076171875,-8.658536585365855,3.7195121951219514,3.1707317073170733
11_34_30_704,0.0,4.0,-1.0,7.0,-3.0,1.0,0.0,-6.0,0.810546875,-0.22509765625,0.091796875,-5.7926829268292686,2.1341463414634148,-0.30487804878048785
11_34_30_704,-1.0,-15.0,12.0,8.0,12.0,-4.0,-3.0,8.0,0.3818359375,-0.2392578125,-0.34619140625,-7.378048780487806,2.1951219512195124,-2.3170731707317076
11_34_30_704,-3.0,5.0,-8.0,2.0,-7.0,-2.0,-1.0,-3.0,1.0673828125,-0.02197265625,0.62060546875,-9.207317073170733,2.8658536585365857,-0.5487804878048781
11_34_30_704,-3.0,8.0,6.0,-11.0,13.0,4.0,-6.0,11.0,1.42333984375,-0.0087890625,0.9248046875,-1.524390243902439,0.7926829268292683,-2.1341463414634148
11_34_30_756,0.0,8.0,-7.0,-6.0,-14.0,-4.0,4.0,-11.0,1.171875,-0.15234375,0.48388671875,2.8658536585365857,-3.4756097560975614,3.1097560975609757
11_34_30_756,-3.0,-21.0,7.0,-8.0,40.0,4.0,-11.0,17.0,0.41259765625,-0.3359375,-0.43994140625,0.853658536585366,-2.6219512195121952,3.414634146341464
11_34_30_756,-1.0,4.0,-5.0,-4.0,-3.0,-1.0,1.0,-7.0,0.7763671875,-0.1552734375,0.3017578125,-11.036585365853659,1.1585365853658538,3.048780487804878
11_34_30_756,-22.0,-19.0,14.0,-6.0,35.0,4.0,-9.0,15.0,1.43310546875,-0.00537109375,1.09619140625,-15.365853658536587,2.378048780487805,4.695121951219512
11_34_30_756,5.0,3.0,-3.0,9.0,-23.0,-5.0,1.0,-11.0,0.95068359375,-0.17724609375,0.251953125,-8.475609756097562,0.9756097560975611,0.7317073170731708
11_34_30_756,0.0,-17.0,10.0,9.0,31.0,3.0,-11.0,15.0,0.3701171875,-0.275390625,-0.42724609375,-4.939024390243903,1.524390243902439,0.6097560975609757
11_34_30_756,-4.0,0.0,-2.0,-4.0,-2.0,-2.0,-3.0,-3.0,0.919921875,-0.083984375,0.470703125,-7.865853658536586,3.414634146341464,3.5975609756097566
11_34_30_756,0.0,-20.0,15.0,-14.0,37.0,8.0,-14.0,21.0,1.43310546875,-0.0244140625,1.03076171875,-8.658536585365855,3.7195121951219514,3.1707317073170733
11_34_30_756,-3.0,5.0,-4.0,-1.0,-14.0,-5.0,5.0,-8.0,0.810546875,-0.22509765625,0.091796875,-5.7926829268292686,2.1341463414634148,-0.30487804878048785
11_34_30_756,-5.0,-11.0,2.0,7.0,29.0,1.0,-7.0,13.0,0.3818359375,-0.2392578125,-0.34619140625,-7.378048780487806,2.1951219512195124,-2.3170731707317076
11_34_30_812,3.0,11.0,2.0,-5.0,-4.0,3.0,3.0,-12.0,0.5830078125,-0.31640625,-0.20361328125,0.5487804878048781,-9.451219512195122,1.8902439024390245
11_34_30_812,1.0,-19.0,8.0,-14.0,33.0,7.0,-14.0,12.0,0.55419921875,-0.21044921875,0.021484375,-4.2682926829268295,-6.890243902439025,3.780487804878049
11_34_30_812,-4.0,12.0,-5.0,6.0,-5.0,0.0,13.0,-4.0,1.38916015625,0.00048828125,1.03125,-4.2682926829268295,-3.9024390243902443,4.146341463414634
11_34_30_812,-2.0,-19.0,3.0,8.0,18.0,-1.0,-5.0,-1.0,1.171875,-0.15234375,0.48388671875,2.8658536585365857,-3.4756097560975614,3.1097560975609757
11_34_30_812,-1.0,5.0,-4.0,10.0,-4.0,-2.0,-1.0,0.0,0.41259765625,-0.3359375,-0.43994140625,0.853658536585366,-2.6219512195121952,3.414634146341464
11_34_30_812,3.0,-17.0,8.0,-9.0,39.0,11.0,-19.0,16.0,0.7763671875,-0.1552734375,0.3017578125,-11.036585365853659,1.1585365853658538,3.048780487804878
11_34_30_812,2.0,6.0,-5.0,-8.0,-11.0,-2.0,5.0,-4.0,1.43310546875,-0.00537109375,1.09619140625,-15.365853658536587,2.378048780487805,4.695121951219512
11_34_30_812,-6.0,-16.0,10.0,-5.0,29.0,5.0,-10.0,12.0,0.95068359375,-0.17724609375,0.251953125,-8.475609756097562,0.9756097560975611,0.7317073170731708
11_34_30_812,-3.0,0.0,-2.0,2.0,-14.0,-4.0,1.0,-10.0,0.3701171875,-0.275390625,-0.42724609375,-4.939024390243903,1.524390243902439,0.6097560975609757
11_34_30_812,2.0,-20.0,8.0,12.0,32.0,5.0,-16.0,12.0,0.919921875,-0.083984375,0.470703125,-7.865853658536586,3.414634146341464,3.5975609756097566
11_34_30_865,-3.0,12.0,-11.0,-1.0,-25.0,-3.0,10.0,-15.0,0.5830078125,-0.31640625,-0.20361328125,0.5487804878048781,-9.451219512195122,1.8902439024390245
11_34_30_865,1.0,-16.0,-6.0,-1.0,25.0,5.0,-11.0,9.0,0.55419921875,-0.21044921875,0.021484375,-4.2682926829268295,-6.890243902439025,3.780487804878049
11_34_30_865,0.0,14.0,3.0,8.0,-33.0,-7.0,11.0,-21.0,1.38916015625,0.00048828125,1.03125,-4.2682926829268295,-3.9024390243902443,4.146341463414634
11_34_30_865,1.0,-9.0,1.0,0.0,27.0,7.0,-10.0,9.0,1.171875,-0.15234375,0.48388671875,2.8658536585365857,-3.4756097560975614,3.1097560975609757
11_34_30_865,3.0,11.0,2.0,-5.0,-4.0,3.0,3.0,-12.0,0.41259765625,-0.3359375,-0.43994140625,0.853658536585366,-2.6219512195121952,3.414634146341464
11_34_30_865,1.0,-19.0,8.0,-14.0,33.0,7.0,-14.0,12.0,0.7763671875,-0.1552734375,0.3017578125,-11.036585365853659,1.1585365853658538,3.048780487804878
11_34_30_865,-4.0,12.0,-5.0,6.0,-5.0,0.0,13.0,-4.0,1.43310546875,-0.00537109375,1.09619140625,-15.365853658536587,2.378048780487805,4.695121951219512
11_34_30_865,-2.0,-19.0,3.0,8.0,18.0,-1.0,-5.0,-1.0,0.95068359375,-0.17724609375,0.251953125,-8.475609756097562,0.9756097560975611,0.7317073170731708
11_34_30_865,-1.0,5.0,-4.0,10.0,-4.0,-2.0,-1.0,0.0,0.3701171875,-0.275390625,-0.42724609375,-4.939024390243903,1.524390243902439,0.6097560975609757
11_34_30_865,3.0,-17.0,8.0,-9.0,39.0,11.0,-19.0,16.0,0.919921875,-0.083984375,0.470703125,-7.865853658536586,3.414634146341464,3.5975609756097566
11_34_30_918,0.0,19.0,-11.0,-5.0,-35.0,-10.0,12.0,-17.0,1.1318359375,-0.0927734375,0.71435546875,7.317073170731708,-9.939024390243903,1.5853658536585367
11_34_30_918,-8.0,-10.0,3.0,-1.0,15.0,2.0,-11.0,6.0,1.35595703125,-0.13427734375,0.798828125,2.073170731707317,-9.817073170731708,1.524390243902439
11_34_30_918,4.0,20.0,-7.0,14.0,-40.0,-9.0,13.0,-24.0,0.5830078125,-0.31640625,-0.20361328125,0.5487804878048781,-9.451219512195122,1.8902439024390245
11_34_30_918,-1.0,-9.0,2.0,4.0,18.0,9.0,-8.0,6.0,0.55419921875,-0.21044921875,0.021484375,-4.2682926829268295,-6.890243902439025,3.780487804878049
11_34_30_918,-1.0,10.0,-10.0,-8.0,-28.0,-6.0,9.0,-18.0,1.38916015625,0.00048828125,1.03125,-4.2682926829268295,-3.9024390243902443,4.146341463414634
11_34_30_918,0.0,-10.0,1.0,-12.0,25.0,6.0,-10.0,11.0,1.171875,-0.15234375,0.48388671875,2.8658536585365857,-3.4756097560975614,3.1097560975609757
11_34_30_918,-3.0,12.0,-11.0,-1.0,-25.0,-3.0,10.0,-15.0,0.41259765625,-0.3359375,-0.43994140625,0.853658536585366,-2.6219512195121952,3.414634146341464
11_34_30_918,1.0,-16.0,-6.0,-1.0,25.0,5.0,-11.0,9.0,0.7763671875,-0.1552734375,0.3017578125,-11.036585365853659,1.1585365853658538,3.048780487804878
11_34_30_918,0.0,14.0,3.0,8.0,-33.0,-7.0,11.0,-21.0,1.43310546875,-0.00537109375,1.09619140625,-15.365853658536587,2.378048780487805,4.695121951219512
11_34_30_918,1.0,-9.0,1.0,0.0,27.0,7.0,-10.0,9.0,0.95068359375,-0.17724609375,0.251953125,-8.475609756097562,0.9756097560975611,0.7317073170731708
11_34_30_962,0.0,15.0,-6.0,-5.0,-33.0,-7.0,6.0,-12.0,1.1318359375,-0.0927734375,0.71435546875,7.317073170731708,-9.939024390243903,1.5853658536585367
11_34_30_962,-1.0,-10.0,-3.0,-9.0,24.0,5.0,-8.0,8.0,1.35595703125,-0.13427734375,0.798828125,2.073170731707317,-9.817073170731708,1.524390243902439
11_34_30_962,0.0,19.0,-11.0,-5.0,-35.0,-10.0,12.0,-17.0,0.5830078125,-0.31640625,-0.20361328125,0.5487804878048781,-9.451219512195122,1.8902439024390245
11_34_30_962,-8.0,-10.0,3.0,-1.0,15.0,2.0,-11.0,6.0,0.55419921875,-0.21044921875,0.021484375,-4.2682926829268295,-6.890243902439025,3.780487804878049
11_34_30_962,4.0,20.0,-7.0,14.0,-40.0,-9.0,13.0,-24.0,1.38916015625,0.00048828125,1.03125,-4.2682926829268295,-3.9024390243902443,4.146341463414634
11_34_30_962,-1.0,-9.0,2.0,4.0,18.0,9.0,-8.0,6.0,1.171875,-0.15234375,0.48388671875,2.8658536585365857,-3.4756097560975614,3.1097560975609757
11_34_30_962,-1.0,10.0,-10.0,-8.0,-28.0,-6.0,9.0,-18.0,0.41259765625,-0.3359375,-0.43994140625,0.853658536585366,-2.6219512195121952,3.414634146341464
11_34_30_962,0.0,-10.0,1.0,-12.0,25.0,6.0,-10.0,11.0,0.7763671875,-0.1552734375,0.3017578125,-11.036585365853659,1.1585365853658538,3.048780487804878
11_34_30_962,-3.0,12.0,-11.0,-1.0,-25.0,-3.0,10.0,-15.0,1.43310546875,-0.00537109375,1.09619140625,-15.365853658536587,2.378048780487805,4.695121951219512
11_34_30_962,1.0,-16.0,-6.0,-1.0,25.0,5.0,-11.0,9.0,0.95068359375,-0.17724609375,0.251953125,-8.475609756097562,0.9756097560975611,0.7317073170731708
11_34_31_012,-2.0,3.0,3.0,-9.0,-17.0,-2.0,3.0,-8.0,0.916015625,-0.12939453125,0.42431640625,1.524390243902439,-8.048780487804878,-1.0365853658536586
11_34_31_012,0.0,0.0,0.0,-4.0,-2.0,-1.0,-1.0,3.0,1.1318359375,-0.0927734375,0.71435546875,7.317073170731708,-9.939024390243903,1.5853658536585367
11_34_31_012,-1.0,12.0,-1.0,9.0,-35.0,-13.0,15.0,-15.0,1.35595703125,-0.13427734375,0.798828125,2.073170731707317,-9.817073170731708,1.524390243902439
11_34_31_012,-5.0,8.0,-6.0,10.0,-8.0,0.0,0.0,-9.0,0.5830078125,-0.31640625,-0.20361328125,0.5487804878048781,-9.451219512195122,1.8902439024390245
11_34_31_012,-2.0,13.0,4.0,-10.0,-24.0,-8.0,12.0,-7.0,0.55419921875,-0.21044921875,0.021484375,-4.2682926829268295,-6.890243902439025,3.780487804878049
11_34_31_012,-2.0,-11.0,-5.0,-1.0,-7.0,0.0,-3.0,0.0,1.38916015625,0.00048828125,1.03125,-4.2682926829268295,-3.9024390243902443,4.146341463414634
11_34_31_012,-1.0,15.0,1.0,12.0,-30.0,-8.0,11.0,-17.0,1.171875,-0.15234375,0.48388671875,2.8658536585365857,-3.4756097560975614,3.1097560975609757
11_34_31_012,4.0,-7.0,-9.0,11.0,17.0,5.0,-9.0,4.0,0.41259765625,-0.3359375,-0.43994140625,0.853658536585366,-2.6219512195121952,3.414634146341464
11_34_31_012,2.0,9.0,0.0,-10.0,-28.0,-7.0,11.0,-13.0,0.7763671875,-0.1552734375,0.3017578125,-11.036585365853659,1.1585365853658538,3.048780487804878
11_34_31_012,0.0,-5.0,-9.0,-3.0,4.0,-4.0,-5.0,-4.0,1.43310546875,-0.00537109375,1.09619140625,-15.365853658536587,2.378048780487805,4.695121951219512
11_34_31_070,-8.0,-5.0,0.0,9.0,-16.0,-8.0,3.0,-1.0,0.66748046875,-0.1943359375,0.09033203125,11.402439024390246,-6.158536585365854,-0.06097560975609757
11_34_31_070,-4.0,5.0,-4.0,13.0,-12.0,-2.0,2.0,-6.0,0.916015625,-0.12939453125,0.42431640625,1.524390243902439,-8.048780487804878,-1.0365853658536586
11_34_31_070,-1.0,3.0,9.0,-2.0,-5.0,-3.0,4.0,-7.0,1.1318359375,-0.0927734375,0.71435546875,7.317073170731708,-9.939024390243903,1.5853658536585367
11_34_31_070,0.0,-1.0,-12.0,3.0,-4.0,-2.0,-1.0,-3.0,1.35595703125,-0.13427734375,0.798828125,2.073170731707317,-9.817073170731708,1.524390243902439
11_34_31_070,1.0,2.0,6.0,9.0,-20.0,-6.0,7.0,-6.0,0.5830078125,-0.31640625,-0.20361328125,0.5487804878048781,-9.451219512195122,1.8902439024390245
11_34_31_070,1.0,2.0,-9.0,5.0,-1.0,-2.0,-3.0,3.0,0.55419921875,-0.21044921875,0.021484375,-4.2682926829268295,-6.890243902439025,3.780487804878049
11_34_31_070,-2.0,3.0,3.0,-9.0,-17.0,-2.0,3.0,-8.0,1.38916015625,0.00048828125,1.03125,-4.2682926829268295,-3.9024390243902443,4.146341463414634
11_34_31_070,0.0,0.0,0.0,-4.0,-2.0,-1.0,-1.0,3.0,1.171875,-0.15234375,0.48388671875,2.8658536585365857,-3.4756097560975614,3.1097560975609757
11_34_31_070,-1.0,12.0,-1.0,9.0,-35.0,-13.0,15.0,-15.0,0.41259765625,-0.3359375,-0.43994140625,0.853658536585366,-2.6219512195121952,3.414634146341464
11_34_31_070,-5.0,8.0,-6.0,10.0,-8.0,0.0,0.0,-9.0,0.7763671875,-0.1552734375,0.3017578125,-11.036585365853659,1.1585365853658538,3.048780487804878
11_34_31_113,-3.0,-19.0,9.0,3.0,32.0,1.0,-7.0,11.0,0.7763671875,-0.27734375,-0.02490234375,21.402439024390247,-5.182926829268293,7.073170731707318
11_34_31_113,-4.0,11.0,-4.0,10.0,-15.0,-5.0,0.0,-10.0,1.23583984375,-0.03271484375,0.77978515625,6.219512195121951,-4.146341463414634,6.036585365853659
11_34_31_113,0.0,-22.0,11.0,-12.0,41.0,11.0,-20.0,20.0,1.34912109375,-0.0947265625,0.67822265625,8.475609756097562,-5.426829268292684,3.1707317073170733
11_34_31_113,-4.0,3.0,-5.0,-1.0,-5.0,1.0,-7.0,-3.0,0.66748046875,-0.1943359375,0.09033203125,11.402439024390246,-6.158536585365854,-0.06097560975609757
11_34_31_113,2.0,-16.0,11.0,7.0,30.0,5.0,-10.0,13.0,0.916015625,-0.12939453125,0.42431640625,1.524390243902439,-8.048780487804878,-1.0365853658536586
11_34_31_113,0.0,4.0,-13.0,5.0,-12.0,1.0,0.0,-5.0,1.1318359375,-0.0927734375,0.71435546875,7.317073170731708,-9.939024390243903,1.5853658536585367
11_34_31_113,-2.0,-11.0,7.0,-10.0,31.0,2.0,-12.0,12.0,1.35595703125,-0.13427734375,0.798828125,2.073170731707317,-9.817073170731708,1.524390243902439
11_34_31_113,1.0,-7.0,0.0,-8.0,-15.0,-4.0,-2.0,-1.0,0.5830078125,-0.31640625,-0.20361328125,0.5487804878048781,-9.451219512195122,1.8902439024390245
11_34_31_113,1.0,-11.0,2.0,-5.0,28.0,2.0,-4.0,13.0,0.55419921875,-0.21044921875,0.021484375,-4.2682926829268295,-6.890243902439025,3.780487804878049
11_34_31_113,-8.0,-3.0,-6.0,1.0,-14.0,0.0,-1.0,-9.0,1.38916015625,0.00048828125,1.03125,-4.2682926829268295,-3.9024390243902443,4.146341463414634
11_34_31_167,0.0,-5.0,9.0,0.0,8.0,2.0,-3.0,10.0,1.46484375,-0.029296875,0.96044921875,19.390243902439025,-2.1341463414634148,8.963414634146343
11_34_31_167,0.0,6.0,-7.0,2.0,-18.0,-3.0,1.0,-9.0,0.7763671875,-0.27734375,-0.02490234375,21.402439024390247,-5.182926829268293,7.073170731707318
11_34_31_167,-1.0,-21.0,8.0,2.0,36.0,6.0,-11.0,18.0,1.23583984375,-0.03271484375,0.77978515625,6.219512195121951,-4.146341463414634,6.036585365853659
11_34_31_167,-2.0,11.0,0.0,-4.0,-7.0,-1.0,1.0,-6.0,1.34912109375,-0.0947265625,0.67822265625,8.475609756097562,-5.426829268292684,3.1707317073170733
11_34_31_167,0.0,-18.0,6.0,-18.0,39.0,9.0,-12.0,21.0,0.66748046875,-0.1943359375,0.09033203125,11.402439024390246,-6.158536585365854,-0.06097560975609757
11_34_31_167,-1.0,-2.0,-2.0,2.0,-9.0,-1.0,0.0,-7.0,0.916015625,-0.12939453125,0.42431640625,1.524390243902439,-8.048780487804878,-1.0365853658536586
11_34_31_167,-3.0,-19.0,9.0,3.0,32.0,1.0,-7.0,11.0,1.1318359375,-0.0927734375,0.71435546875,7.317073170731708,-9.939024390243903,1.5853658536585367
11_34_31_167,-4.0,11.0,-4.0,10.0,-15.0,-5.0,0.0,-10.0,1.35595703125,-0.13427734375,0.798828125,2.073170731707317,-9.817073170731708,1.524390243902439
11_34_31_167,0.0,-22.0,11.0,-12.0,41.0,11.0,-20.0,20.0,0.5830078125,-0.31640625,-0.20361328125,0.5487804878048781,-9.451219512195122,1.8902439024390245
11_34_31_167,-4.0,3.0,-5.0,-1.0,-5.0,1.0,-7.0,-3.0,0.55419921875,-0.21044921875,0.021484375,-4.2682926829268295,-6.890243902439025,3.780487804878049
11_34_31_225,0.0,7.0,3.0,-3.0,2.0,3.0,-3.0,4.0,0.95947265625,-0.06591796875,0.4345703125,16.82926829268293,-0.6097560975609757,11.28048780487805
11_34_31_225,3.0,-3.0,1.0,1.0,0.0,-2.0,-1.0,-3.0,1.46484375,-0.029296875,0.96044921875,19.390243902439025,-2.1341463414634148,8.963414634146343
11_34_31_225,-6.0,-6.0,-5.0,3.0,-5.0,-2.0,0.0,2.0,0.7763671875,-0.27734375,-0.02490234375,21.402439024390247,-5.182926829268293,7.073170731707318
11_34_31_225,-5.0,5.0,-1.0,-1.0,-8.0,-1.0,1.0,-3.0,1.23583984375,-0.03271484375,0.77978515625,6.219512195121951,-4.146341463414634,6.036585365853659
11_34_31_225,0.0,-5.0,9.0,0.0,8.0,2.0,-3.0,10.0,1.34912109375,-0.0947265625,0.67822265625,8.475609756097562,-5.426829268292684,3.1707317073170733
11_34_31_225,0.0,6.0,-7.0,2.0,-18.0,-3.0,1.0,-9.0,0.66748046875,-0.1943359375,0.09033203125,11.402439024390246,-6.158536585365854,-0.06097560975609757
11_34_31_225,-1.0,-21.0,8.0,2.0,36.0,6.0,-11.0,18.0,0.916015625,-0.12939453125,0.42431640625,1.524390243902439,-8.048780487804878,-1.0365853658536586
11_34_31_225,-2.0,11.0,0.0,-4.0,-7.0,-1.0,1.0,-6.0,1.1318359375,-0.0927734375,0.71435546875,7.317073170731708,-9.939024390243903,1.5853658536585367
11_34_31_225,0.0,-18.0,6.0,-18.0,39.0,9.0,-12.0,21.0,1.35595703125,-0.13427734375,0.798828125,2.073170731707317,-9.817073170731708,1.524390243902439
11_34_31_225,-1.0,-2.0,-2.0,2.0,-9.0,-1.0,0.0,-7.0,0.5830078125,-0.31640625,-0.20361328125,0.5487804878048781,-9.451219512195122,1.8902439024390245
11_34_31_271,0.0,-4.0,-1.0,-3.0,8.0,4.0,-2.0,4.0,0.90234375,-0.1806640625,0.2607421875,15.000000000000002,-1.2195121951219514,8.658536585365855
11_34_31_271,-4.0,2.0,-4.0,5.0,-3.0,-4.0,1.0,-5.0,0.53515625,-0.177734375,0.12109375,15.609756097560977,1.0975609756097562,8.475609756097562
11_34_31_271,0.0,2.0,-2.0,1.0,-2.0,-5.0,2.0,-3.0,0.95947265625,-0.06591796875,0.4345703125,16.82926829268293,-0.6097560975609757,11.28048780487805
11_34_31_271,-2.0,-10.0,-2.0,5.0,-11.0,-3.0,5.0,0.0,1.46484375,-0.029296875,0.96044921875,19.390243902439025,-2.1341463414634148,8.963414634146343
11_34_31_271,0.0,7.0,3.0,-3.0,2.0,3.0,-3.0,4.0,0.7763671875,-0.27734375,-0.02490234375,21.402439024390247,-5.182926829268293,7.073170731707318
11_34_31_271,3.0,-3.0,1.0,1.0,0.0,-2.0,-1.0,-3.0,1.23583984375,-0.03271484375,0.77978515625,6.219512195121951,-4.146341463414634,6.036585365853659
11_34_31_271,-6.0,-6.0,-5.0,3.0,-5.0,-2.0,0.0,2.0,1.34912109375,-0.0947265625,0.67822265625,8.475609756097562,-5.426829268292684,3.1707317073170733
11_34_31_271,-5.0,5.0,-1.0,-1.0,-8.0,-1.0,1.0,-3.0,0.66748046875,-0.1943359375,0.09033203125,11.402439024390246,-6.158536585365854,-0.06097560975609757
11_34_31_271,0.0,-5.0,9.0,0.0,8.0,2.0,-3.0,10.0,0.916015625,-0.12939453125,0.42431640625,1.524390243902439,-8.048780487804878,-1.0365853658536586
11_34_31_271,0.0,6.0,-7.0,2.0,-18.0,-3.0,1.0,-9.0,1.1318359375,-0.0927734375,0.71435546875,7.317073170731708,-9.939024390243903,1.5853658536585367
11_34_31_325,-4.0,-10.0,-3.0,0.0,-6.0,-1.0,3.0,-5.0,0.92431640625,-0.162109375,0.2822265625,12.865853658536587,-2.0121951219512195,6.890243902439025
11_34_31_325,-2.0,6.0,3.0,-1.0,-4.0,-1.0,-1.0,-2.0,0.9462890625,-0.166015625,0.283203125,16.03658536585366,-1.8902439024390245,8.719512195121952
11_34_31_325,0.0,-3.0,-13.0,-8.0,0.0,1.0,1.0,-4.0,0.90234375,-0.1806640625,0.2607421875,15.000000000000002,-1.2195121951219514,8.658536585365855
11_34_31_325,-1.0,-8.0,0.0,1.0,-2.0,0.0,-3.0,1.0,0.53515625,-0.177734375,0.12109375,15.609756097560977,1.0975609756097562,8.475609756097562
11_34_31_325,3.0,2.0,-3.0,-4.0,-2.0,-4.0,-2.0,-7.0,0.95947265625,-0.06591796875,0.4345703125,16.82926829268293,-0.6097560975609757,11.28048780487805
11_34_31_325,-1.0,-5.0,4.0,1.0,0.0,-3.0,3.0,-1.0,1.46484375,-0.029296875,0.96044921875,19.390243902439025,-2.1341463414634148,8.963414634146343
11_34_31_325,-4.0,4.0,1.0,1.0,10.0,5.0,-8.0,-3.0,0.7763671875,-0.27734375,-0.02490234375,21.402439024390247,-5.182926829268293,7.073170731707318
11_34_31_325,2.0,-7.0,3.0,3.0,0.0,0.0,-1.0,3.0,1.23583984375,-0.03271484375,0.77978515625,6.219512195121951,-4.146341463414634,6.036585365853659
11_34_31_325,-1.0,1.0,-2.0,-1.0,-5.0,-2.0,3.0,-8.0,1.34912109375,-0.0947265625,0.67822265625,8.475609756097562,-5.426829268292684,3.1707317073170733
11_34_31_325,3.0,2.0,-1.0,2.0,0.0,-2.0,2.0,0.0,0.66748046875,-0.1943359375,0.09033203125,11.402439024390246,-6.158536585365854,-0.06097560975609757
11_34_31_367,-1.0,2.0,5.0,-4.0,2.0,1.0,0.0,1.0,0.927734375,-0.146484375,0.2685546875,9.085365853658537,-2.3170731707317076,4.329268292682928
11_34_31_367,2.0,-6.0,1.0,-5.0,5.0,3.0,-4.0,5.0,0.92236328125,-0.1357421875,0.25732421875,12.987804878048781,-1.707317073170732,4.573170731707317
11_34_31_367,3.0,-3.0,0.0,4.0,3.0,-1.0,1.0,-4.0,0.9228515625,-0.14453125,0.26025390625,15.121951219512196,-1.707317073170732,4.817073170731708
11_34_31_367,-4.0,0.0,2.0,-4.0,0.0,1.0,-1.0,-4.0,0.92626953125,-0.162109375,0.267578125,15.365853658536587,-2.439024390243903,5.2439024390243905
11_34_31_367,0.0,0.0,2.0,-2.0,-6.0,-5.0,-1.0,2.0,0.92431640625,-0.162109375,0.2822265625,12.865853658536587,-2.0121951219512195,6.890243902439025
11_34_31_367,0.0,-3.0,-1.0,-5.0,2.0,-1.0,-3.0,0.0,0.9462890625,-0.166015625,0.283203125,16.03658536585366,-1.8902439024390245,8.719512195121952
11_34_31_367,-2.0,4.0,-1.0,-3.0,-5.0,-3.0,4.0,3.0,0.90234375,-0.1806640625,0.2607421875,15.000000000000002,-1.2195121951219514,8.658536585365855
11_34_31_367,-1.0,-2.0,1.0,5.0,4.0,3.0,-3.0,0.0,0.53515625,-0.177734375,0.12109375,15.609756097560977,1.0975609756097562,8.475609756097562
11_34_31_367,0.0,0.0,-5.0,2.0,-2.0,-1.0,-4.0,-6.0,0.95947265625,-0.06591796875,0.4345703125,16.82926829268293,-0.6097560975609757,11.28048780487805
11_34_31_367,1.0,-2.0,5.0,-3.0,4.0,1.0,-2.0,9.0,1.46484375,-0.029296875,0.96044921875,19.390243902439025,-2.1341463414634148,8.963414634146343
11_34_31_422,0.0,-8.0,4.0,-2.0,-5.0,-3.0,0.0,-4.0,0.9404296875,-0.16845703125,0.2724609375,7.439024390243903,-3.1707317073170733,3.8414634146341466
11_34_31_422,-1.0,-6.0,-1.0,-1.0,2.0,-1.0,0.0,-1.0,0.927734375,-0.146484375,0.2685546875,9.085365853658537,-2.3170731707317076,4.329268292682928
11_34_31_422,-3.0,6.0,-2.0,1.0,-5.0,-1.0,-3.0,-3.0,0.92236328125,-0.1357421875,0.25732421875,12.987804878048781,-1.707317073170732,4.573170731707317
11_34_31_422,-2.0,-7.0,-4.0,0.0,1.0,1.0,-4.0,2.0,0.9228515625,-0.14453125,0.26025390625,15.121951219512196,-1.707317073170732,4.817073170731708
11_34_31_422,0.0,6.0,0.0,3.0,-5.0,0.0,3.0,-4.0,0.92626953125,-0.162109375,0.267578125,15.365853658536587,-2.439024390243903,5.2439024390243905
11_34_31_422,0.0,-7.0,-3.0,-1.0,1.0,0.0,-1.0,-2.0,0.92431640625,-0.162109375,0.2822265625,12.865853658536587,-2.0121951219512195,6.890243902439025
11_34_31_422,-1.0,2.0,5.0,-4.0,2.0,1.0,0.0,1.0,0.9462890625,-0.166015625,0.283203125,16.03658536585366,-1.8902439024390245,8.719512195121952
11_34_31_422,2.0,-6.0,1.0,-5.0,5.0,3.0,-4.0,5.0,0.90234375,-0.1806640625,0.2607421875,15.000000000000002,-1.2195121951219514,8.658536585365855
11_34_31_422,3.0,-3.0,0.0,4.0,3.0,-1.0,1.0,-4.0,0.53515625,-0.177734375,0.12109375,15.609756097560977,1.0975609756097562,8.475609756097562
11_34_31_422,-4.0,0.0,2.0,-4.0,0.0,1.0,-1.0,-4.0,0.95947265625,-0.06591796875,0.4345703125,16.82926829268293,-0.6097560975609757,11.28048780487805
11_34_31_472,1.0,-2.0,4.0,0.0,-4.0,-1.0,6.0,-2.0,0.947265625,-0.16748046875,0.2705078125,13.475609756097562,-2.9268292682926833,2.6219512195121952
11_34_31_472,-4.0,-3.0,-5.0,0.0,3.0,2.0,-5.0,1.0,0.94580078125,-0.16455078125,0.2783203125,10.975609756097562,-3.1097560975609757,3.8414634146341466
11_34_31_472,-2.0,-3.0,0.0,0.0,-10.0,-5.0,4.0,1.0,0.94873046875,-0.16552734375,0.27685546875,9.085365853658537,-2.7439024390243905,4.085365853658537
11_34_31_472,-2.0,-1.0,1.0,-1.0,11.0,-3.0,-2.0,-3.0,0.9404296875,-0.16845703125,0.2724609375,7.439024390243903,-3.1707317073170733,3.8414634146341466
11_34_31_472,-2.0,5.0,-1.0,4.0,-2.0,-3.0,-1.0,-2.0,0.927734375,-0.146484375,0.2685546875,9.085365853658537,-2.3170731707317076,4.329268292682928
11_34_31_472,-2.0,-11.0,-1.0,-1.0,7.0,-1.0,-7.0,2.0,0.92236328125,-0.1357421875,0.25732421875,12.987804878048781,-1.707317073170732,4.573170731707317
11_34_31_472,-1.0,6.0,2.0,2.0,-4.0,-1.0,3.0,-2.0,0.9228515625,-0.14453125,0.26025390625,15.121951219512196,-1.707317073170732,4.817073170731708
11_34_31_472,-1.0,-2.0,-1.0,-1.0,2.0,-1.0,-3.0,-1.0,0.92626953125,-0.162109375,0.267578125,15.365853658536587,-2.439024390243903,5.2439024390243905
11_34_31_472,4.0,2.0,-4.0,3.0,-6.0,-2.0,-2.0,-3.0,0.92431640625,-0.162109375,0.2822265625,12.865853658536587,-2.0121951219512195,6.890243902439025
11_34_31_472,-3.0,-4.0,-12.0,-7.0,8.0,0.0,-5.0,3.0,0.9462890625,-0.166015625,0.283203125,16.03658536585366,-1.8902439024390245,8.719512195121952
11_34_31_523,0.0,2.0,-4.0,0.0,0.0,4.0,-2.0,-5.0,0.9462890625,-0.14697265625,0.27734375,13.04878048780488,-1.2804878048780488,1.707317073170732
11_34_31_523,0.0,-34.0,-8.0,-3.0,1.0,-1.0,-2.0,0.0,0.947265625,-0.16748046875,0.2705078125,13.475609756097562,-2.9268292682926833,2.6219512195121952
11_34_31_523,5.0,21.0,-2.0,-9.0,-1.0,-2.0,-1.0,-6.0,0.94580078125,-0.16455078125,0.2783203125,10.975609756097562,-3.1097560975609757,3.8414634146341466
11_34_31_523,-6.0,-5.0,-3.0,5.0,3.0,3.0,-5.0,7.0,0.94873046875,-0.16552734375,0.27685546875,9.085365853658537,-2.7439024390243905,4.085365853658537
11_34_31_523,1.0,-2.0,4.0,0.0,-4.0,-1.0,6.0,-2.0,0.9404296875,-0.16845703125,0.2724609375,7.439024390243903,-3.1707317073170733,3.8414634146341466
11_34_31_523,-4.0,-3.0,-5.0,0.0,3.0,2.0,-5.0,1.0,0.927734375,-0.146484375,0.2685546875,9.085365853658537,-2.3170731707317076,4.329268292682928
11_34_31_523,-2.0,-3.0,0.0,0.0,-10.0,-5.0,4.0,1.0,0.92236328125,-0.1357421875,0.25732421875,12.987804878048781,-1.707317073170732,4.573170731707317
11_34_31_523,-2.0,-1.0,1.0,-1.0,11.0,-3.0,-2.0,-3.0,0.9228515625,-0.14453125,0.26025390625,15.121951219512196,-1.707317073170732,4.817073170731708
11_34_31_523,-2.0,5.0,-1.0,4.0,-2.0,-3.0,-1.0,-2.0,0.92626953125,-0.162109375,0.267578125,15.365853658536587,-2.439024390243903,5.2439024390243905
11_34_31_523,-2.0,-11.0,-1.0,-1.0,7.0,-1.0,-7.0,2.0,0.92431640625,-0.162109375,0.2822265625,12.865853658536587,-2.0121951219512195,6.890243902439025
11_34_31_572,-2.0,-8.0,-3.0,-3.0,1.0,-5.0,0.0,0.0,0.943359375,-0.13720703125,0.28955078125,9.51219512195122,0.9756097560975611,1.6463414634146343
11_34_31_572,2.0,6.0,-2.0,-4.0,7.0,3.0,-1.0,3.0,0.9462890625,-0.14697265625,0.27734375,13.04878048780488,-1.2804878048780488,1.707317073170732
11_34_31_572,-3.0,1.0,1.0,5.0,-7.0,2.0,2.0,-4.0,0.947265625,-0.16748046875,0.2705078125,13.475609756097562,-2.9268292682926833,2.6219512195121952
11_34_31_572,3.0,-12.0,2.0,-7.0,12.0,1.0,-4.0,5.0,0.94580078125,-0.16455078125,0.2783203125,10.975609756097562,-3.1097560975609757,3.8414634146341466
11_34_31_572,-1.0,5.0,0.0,3.0,-4.0,-4.0,0.0,-1.0,0.94873046875,-0.16552734375,0.27685546875,9.085365853658537,-2.7439024390243905,4.085365853658537
11_34_31_572,0.0,-3.0,-4.0,5.0,-2.0,-2.0,2.0,0.0,0.9404296875,-0.16845703125,0.2724609375,7.439024390243903,-3.1707317073170733,3.8414634146341466
11_34_31_572,0.0,2.0,-4.0,0.0,0.0,4.0,-2.0,-5.0,0.927734375,-0.146484375,0.2685546875,9.085365853658537,-2.3170731707317076,4.329268292682928
11_34_31_572,0.0,-34.0,-8.0,-3.0,1.0,-1.0,-2.0,0.0,0.92236328125,-0.1357421875,0.25732421875,12.987804878048781,-1.707317073170732,4.573170731707317
11_34_31_572,5.0,21.0,-2.0,-9.0,-1.0,-2.0,-1.0,-6.0,0.9228515625,-0.14453125,0.26025390625,15.121951219512196,-1.707317073170732,4.817073170731708
11_34_31_572,-6.0,-5.0,-3.0,5.0,3.0,3.0,-5.0,7.0,0.92626953125,-0.162109375,0.267578125,15.365853658536587,-2.439024390243903,5.2439024390243905
11_34_31_633,1.0,-2.0,2.0,7.0,-4.0,-6.0,-1.0,0.0,0.951171875,-0.15625,0.3056640625,7.439024390243903,2.439024390243903,0.853658536585366
11_34_31_633,-1.0,-8.0,-4.0,-2.0,9.0,4.0,-5.0,-3.0,0.943359375,-0.13720703125,0.28955078125,9.51219512195122,0.9756097560975611,1.6463414634146343
11_34_31_633,-4.0,-6.0,6.0,8.0,-7.0,-5.0,2.0,0.0,0.9462890625,-0.14697265625,0.27734375,13.04878048780488,-1.2804878048780488,1.707317073170732
11_34_31_633,-5.0,2.0,-13.0,0.0,3.0,-1.0,-1.0,1.0,0.947265625,-0.16748046875,0.2705078125,13.475609756097562,-2.9268292682926833,2.6219512195121952
11_34_31_633,4.0,4.0,-4.0,5.0,0.0,0.0,-2.0,3.0,0.94580078125,-0.16455078125,0.2783203125,10.975609756097562,-3.1097560975609757,3.8414634146341466
11_34_31_633,1.0,-10.0,0.0,-6.0,6.0,-1.0,-5.0,4.0,0.94873046875,-0.16552734375,0.27685546875,9.085365853658537,-2.7439024390243905,4.085365853658537
11_34_31_633,-2.0,-8.0,-3.0,-3.0,1.0,-5.0,0.0,0.0,0.9404296875,-0.16845703125,0.2724609375,7.439024390243903,-3.1707317073170733,3.8414634146341466
11_34_31_633,2.0,6.0,-2.0,-4.0,7.0,3.0,-1.0,3.0,0.927734375,-0.146484375,0.2685546875,9.085365853658537,-2.3170731707317076,4.329268292682928
11_34_31_633,-3.0,1.0,1.0,5.0,-7.0,2.0,2.0,-4.0,0.92236328125,-0.1357421875,0.25732421875,12.987804878048781,-1.707317073170732,4.573170731707317
11_34_31_633,3.0,-12.0,2.0,-7.0,12.0,1.0,-4.0,5.0,0.9228515625,-0.14453125,0.26025390625,15.121951219512196,-1.707317073170732,4.817073170731708
11_34_31_690,2.0,0.0,2.0,-3.0,1.0,0.0,-6.0,1.0,1.0068359375,-0.12744140625,0.52197265625,-8.231707317073171,38.41463414634147,-9.146341463414634
11_34_31_690,-5.0,1.0,-1.0,-1.0,-6.0,-2.0,-1.0,-4.0,0.97998046875,-0.0537109375,0.48486328125,2.1951219512195124,29.81707317073171,-5.182926829268293
11_34_31_690,-3.0,-5.0,-5.0,-7.0,-1.0,-6.0,4.0,-3.0,0.9541015625,-0.14501953125,0.3466796875,7.317073170731708,3.9024390243902443,-0.30487804878048785
11_34_31_690,-6.0,3.0,0.0,6.0,0.0,1.0,1.0,-3.0,0.951171875,-0.15625,0.3056640625,7.439024390243903,2.439024390243903,0.853658536585366
11_34_31_690,0.0,2.0,-5.0,1.0,8.0,9.0,-2.0,0.0,0.943359375,-0.13720703125,0.28955078125,9.51219512195122,0.9756097560975611,1.6463414634146343
11_34_31_690,1.0,-5.0,-5.0,-2.0,1.0,-1.0,0.0,3.0,0.9462890625,-0.14697265625,0.27734375,13.04878048780488,-1.2804878048780488,1.707317073170732
11_34_31_690,-2.0,4.0,-8.0,2.0,-13.0,-4.0,1.0,-4.0,0.947265625,-0.16748046875,0.2705078125,13.475609756097562,-2.9268292682926833,2.6219512195121952
11_34_31_690,3.0,-10.0,0.0,2.0,-8.0,-5.0,0.0,-5.0,0.94580078125,-0.16455078125,0.2783203125,10.975609756097562,-3.1097560975609757,3.8414634146341466
11_34_31_690,-1.0,0.0,0.0,-5.0,-1.0,4.0,-1.0,-2.0,0.94873046875,-0.16552734375,0.27685546875,9.085365853658537,-2.7439024390243905,4.085365853658537
11_34_31_690,1.0,-4.0,-6.0,-2.0,-2.0,2.0,-2.0,2.0,0.9404296875,-0.16845703125,0.2724609375,7.439024390243903,-3.1707317073170733,3.8414634146341466
11_34_31_723,1.0,5.0,-4.0,3.0,-6.0,-2.0,8.0,-6.0,1.0068359375,-0.12744140625,0.52197265625,-8.231707317073171,38.41463414634147,-9.146341463414634
11_34_31_723,-2.0,-1.0,-6.0,-1.0,-2.0,4.0,-3.0,-4.0,0.97998046875,-0.0537109375,0.48486328125,2.1951219512195124,29.81707317073171,-5.182926829268293
11_34_31_723,4.0,4.0,-3.0,-1.0,-2.0,-1.0,-6.0,2.0,0.9541015625,-0.14501953125,0.3466796875,7.317073170731708,3.9024390243902443,-0.30487804878048785
11_34_31_723,-2.0,-12.0,-5.0,-3.0,1.0,-2.0,3.0,0.0,0.951171875,-0.15625,0.3056640625,7.439024390243903,2.439024390243903,0.853658536585366
11_34_31_723,-1.0,0.0,0.0,-3.0,1.0,-2.0,0.0,-2.0,0.943359375,-0.13720703125,0.28955078125,9.51219512195122,0.9756097560975611,1.6463414634146343
11_34_31_723,2.0,0.0,2.0,-3.0,1.0,0.0,-6.0,1.0,0.9462890625,-0.14697265625,0.27734375,13.04878048780488,-1.2804878048780488,1.707317073170732
11_34_31_723,-5.0,1.0,-1.0,-1.0,-6.0,-2.0,-1.0,-4.0,0.947265625,-0.16748046875,0.2705078125,13.475609756097562,-2.9268292682926833,2.6219512195121952
11_34_31_723,-3.0,-5.0,-5.0,-7.0,-1.0,-6.0,4.0,-3.0,0.94580078125,-0.16455078125,0.2783203125,10.975609756097562,-3.1097560975609757,3.8414634146341466
11_34_31_723,-6.0,3.0,0.0,6.0,0.0,1.0,1.0,-3.0,0.94873046875,-0.16552734375,0.27685546875,9.085365853658537,-2.7439024390243905,4.085365853658537
11_34_31_776,-3.0,-12.0,4.0,4.0,-5.0,0.0,2.0,-4.0,0.9921875,-0.12548828125,0.48681640625,1.3414634146341464,57.560975609756106,-13.170731707317074
11_34_31_776,1.0,11.0,1.0,-5.0,6.0,2.0,-3.0,-1.0,1.01025390625,-0.15625,0.4931640625,-5.853658536585367,46.768292682926834,-11.097560975609756
11_34_31_776,-7.0,-17.0,-4.0,-2.0,-14.0,-7.0,-3.0,-4.0,1.0068359375,-0.12744140625,0.52197265625,-8.231707317073171,38.41463414634147,-9.146341463414634
11_34_31_776,0.0,-5.0,-7.0,1.0,-5.0,-1.0,-6.0,-3.0,0.97998046875,-0.0537109375,0.48486328125,2.1951219512195124,29.81707317073171,-5.182926829268293
11_34_31_776,2.0,5.0,-1.0,-3.0,0.0,2.0,-4.0,-1.0,0.9541015625,-0.14501953125,0.3466796875,7.317073170731708,3.9024390243902443,-0.30487804878048785
11_34_31_776,-3.0,-2.0,-5.0,9.0,4.0,2.0,4.0,-2.0,0.951171875,-0.15625,0.3056640625,7.439024390243903,2.439024390243903,0.853658536585366
11_34_31_776,0.0,4.0,5.0,-1.0,-5.0,2.0,3.0,3.0,0.943359375,-0.13720703125,0.28955078125,9.51219512195122,0.9756097560975611,1.6463414634146343
11_34_31_776,-4.0,-5.0,-4.0,2.0,-3.0,0.0,-3.0,-1.0,0.9462890625,-0.14697265625,0.27734375,13.04878048780488,-1.2804878048780488,1.707317073170732
11_34_31_776,2.0,3.0,-1.0,-11.0,-3.0,-1.0,0.0,-6.0,0.947265625,-0.16748046875,0.2705078125,13.475609756097562,-2.9268292682926833,2.6219512195121952
11_34_31_835,-1.0,3.0,5.0,1.0,-6.0,-2.0,5.0,-1.0,0.98193359375,-0.083984375,0.53271484375,-9.451219512195122,75.1829268292683,-7.01219512195122
11_34_31_835,-2.0,2.0,-3.0,-3.0,-5.0,0.0,-1.0,1.0,0.96875,-0.07275390625,0.484375,-1.5853658536585367,66.46341463414635,-13.475609756097562
11_34_31_835,3.0,3.0,-2.0,1.0,-1.0,-1.0,-6.0,3.0,0.9921875,-0.12548828125,0.48681640625,1.3414634146341464,57.560975609756106,-13.170731707317074
11_34_31_835,-3.0,-12.0,4.0,4.0,-5.0,0.0,2.0,-4.0,1.01025390625,-0.15625,0.4931640625,-5.853658536585367,46.768292682926834,-11.097560975609756
11_34_31_835,1.0,11.0,1.0,-5.0,6.0,2.0,-3.0,-1.0,1.0068359375,-0.12744140625,0.52197265625,-8.231707317073171,38.41463414634147,-9.146341463414634
11_34_31_835,-7.0,-17.0,-4.0,-2.0,-14.0,-7.0,-3.0,-4.0,0.97998046875,-0.0537109375,0.48486328125,2.1951219512195124,29.81707317073171,-5.182926829268293
11_34_31_835,0.0,-5.0,-7.0,1.0,-5.0,-1.0,-6.0,-3.0,0.9541015625,-0.14501953125,0.3466796875,7.317073170731708,3.9024390243902443,-0.30487804878048785
11_34_31_835,2.0,5.0,-1.0,-3.0,0.0,2.0,-4.0,-1.0,0.951171875,-0.15625,0.3056640625,7.439024390243903,2.439024390243903,0.853658536585366
11_34_31_835,-3.0,-2.0,-5.0,9.0,4.0,2.0,4.0,-2.0,0.943359375,-0.13720703125,0.28955078125,9.51219512195122,0.9756097560975611,1.6463414634146343
11_34_31_835,0.0,4.0,5.0,-1.0,-5.0,2.0,3.0,3.0,0.9462890625,-0.14697265625,0.27734375,13.04878048780488,-1.2804878048780488,1.707317073170732
11_34_31_888,-4.0,-12.0,-5.0,0.0,4.0,-1.0,-5.0,0.0,0.92529296875,-0.078125,0.580078125,-3.536585365853659,105.97560975609757,10.426829268292684
11_34_31_888,2.0,7.0,-3.0,-6.0,-8.0,-3.0,-5.0,-4.0,0.9404296875,-0.22216796875,0.58203125,-8.78048780487805,86.89024390243904,-0.7926829268292683
11_34_31_888,2.0,-4.0,4.0,-1.0,10.0,12.0,0.0,1.0,0.98193359375,-0.083984375,0.53271484375,-9.451219512195122,75.1829268292683,-7.01219512195122
11_34_31_888,-2.0,0.0,-5.0,-2.0,-7.0,-12.0,2.0,-2.0,0.96875,-0.07275390625,0.484375,-1.5853658536585367,66.46341463414635,-13.475609756097562
11_34_31_888,-3.0,-2.0,-2.0,-6.0,4.0,8.0,-1.0,2.0,0.9921875,-0.12548828125,0.48681640625,1.3414634146341464,57.560975609756106,-13.170731707317074
11_34_31_888,-4.0,0.0,-6.0,3.0,-4.0,-4.0,-1.0,-4.0,1.01025390625,-0.15625,0.4931640625,-5.853658536585367,46.768292682926834,-11.097560975609756
11_34_31_888,0.0,1.0,3.0,-1.0,2.0,-1.0,1.0,2.0,1.0068359375,-0.12744140625,0.52197265625,-8.231707317073171,38.41463414634147,-9.146341463414634
11_34_31_888,-4.0,1.0,-3.0,5.0,-7.0,0.0,0.0,-1.0,0.97998046875,-0.0537109375,0.48486328125,2.1951219512195124,29.81707317073171,-5.182926829268293
11_34_31_888,-2.0,-1.0,1.0,-2.0,4.0,1.0,-3.0,-4.0,0.9541015625,-0.14501953125,0.3466796875,7.317073170731708,3.9024390243902443,-0.30487804878048785
11_34_31_888,2.0,3.0,4.0,-1.0,-1.0,-2.0,0.0,-3.0,0.951171875,-0.15625,0.3056640625,7.439024390243903,2.439024390243903,0.853658536585366
11_34_31_937,-3.0,-6.0,-8.0,-6.0,0.0,-2.0,-5.0,-1.0,0.92529296875,-0.078125,0.580078125,-3.536585365853659,105.97560975609757,10.426829268292684
11_34_31_937,-2.0,0.0,4.0,0.0,1.0,0.0,1.0,-4.0,0.9404296875,-0.22216796875,0.58203125,-8.78048780487805,86.89024390243904,-0.7926829268292683
11_34_31_937,-1.0,-3.0,-3.0,4.0,4.0,3.0,0.0,5.0,0.98193359375,-0.083984375,0.53271484375,-9.451219512195122,75.1829268292683,-7.01219512195122
11_34_31_937,0.0,2.0,-5.0,-3.0,-4.0,-5.0,-3.0,-3.0,0.96875,-0.07275390625,0.484375,-1.5853658536585367,66.46341463414635,-13.475609756097562
11_34_31_937,-4.0,-3.0,-1.0,-3.0,3.0,3.0,-5.0,1.0,0.9921875,-0.12548828125,0.48681640625,1.3414634146341464,57.560975609756106,-13.170731707317074
11_34_31_937,-2.0,0.0,0.0,-4.0,-4.0,-3.0,2.0,-3.0,1.01025390625,-0.15625,0.4931640625,-5.853658536585367,46.768292682926834,-11.097560975609756
11_34_31_937,-1.0,-9.0,-7.0,0.0,5.0,-3.0,-1.0,2.0,1.0068359375,-0.12744140625,0.52197265625,-8.231707317073171,38.41463414634147,-9.146341463414634
11_34_31_937,0.0,4.0,-6.0,0.0,-3.0,-1.0,2.0,1.0,0.97998046875,-0.0537109375,0.48486328125,2.1951219512195124,29.81707317073171,-5.182926829268293
11_34_31_998,1.0,3.0,-7.0,2.0,3.0,6.0,-3.0,0.0,0.677734375,-0.24072265625,0.61767578125,-13.109756097560977,137.01219512195124,37.5609756097561
11_34_31_998,0.0,0.0,-4.0,-7.0,0.0,-5.0,-3.0,-1.0,0.7529296875,-0.25390625,0.62158203125,-0.3658536585365854,135.609756097561,33.47560975609756
11_34_31_998,-5.0,4.0,1.0,-2.0,-4.0,-6.0,0.0,0.0,0.86572265625,-0.28076171875,0.6044921875,-7.439024390243903,126.95121951219514,25.365853658536587
11_34_31_998,-2.0,2.0,1.0,-3.0,2.0,-2.0,3.0,-6.0,0.89453125,-0.2314453125,0.63232421875,-16.890243902439025,117.7439024390244,17.073170731707318
11_34_31_998,-1.0,-1.0,-2.0,-4.0,4.0,4.0,-3.0,3.0,0.92529296875,-0.078125,0.580078125,-3.536585365853659,105.97560975609757,10.426829268292684
11_34_31_998,1.0,-5.0,-9.0,0.0,-2.0,1.0,0.0,-2.0,0.9404296875,-0.22216796875,0.58203125,-8.78048780487805,86.89024390243904,-0.7926829268292683
11_34_31_998,-3.0,-6.0,-8.0,-6.0,0.0,-2.0,-5.0,-1.0,0.98193359375,-0.083984375,0.53271484375,-9.451219512195122,75.1829268292683,-7.01219512195122
11_34_31_998,-2.0,0.0,4.0,0.0,1.0,0.0,1.0,-4.0,0.96875,-0.07275390625,0.484375,-1.5853658536585367,66.46341463414635,-13.475609756097562
11_34_31_998,-1.0,-3.0,-3.0,4.0,4.0,3.0,0.0,5.0,0.9921875,-0.12548828125,0.48681640625,1.3414634146341464,57.560975609756106,-13.170731707317074
11_34_31_998,0.0,2.0,-5.0,-3.0,-4.0,-5.0,-3.0,-3.0,1.01025390625,-0.15625,0.4931640625,-5.853658536585367,46.768292682926834,-11.097560975609756
11_34_32_039,-6.0,-8.0,-1.0,-3.0,1.0,0.0,2.0,1.0,0.5546875,-0.35498046875,0.57470703125,-17.743902439024392,118.59756097560977,54.93902439024391
11_34_32_039,-2.0,-2.0,0.0,-2.0,-9.0,-5.0,2.0,-4.0,0.59228515625,-0.33935546875,0.576171875,-25.731707317073173,126.76829268292684,48.59756097560976
11_34_32_039,1.0,-1.0,-3.0,-3.0,-4.0,-1.0,-3.0,-3.0,0.6142578125,-0.29541015625,0.60205078125,-23.963414634146343,133.2926829268293,42.86585365853659
11_34_32_039,1.0,0.0,0.0,-3.0,-2.0,0.0,0.0,-5.0,0.677734375,-0.24072265625,0.61767578125,-13.109756097560977,137.01219512195124,37.5609756097561
11_34_32_039,2.0,3.0,-1.0,-2.0,-5.0,-3.0,4.0,-7.0,0.7529296875,-0.25390625,0.62158203125,-0.3658536585365854,135.609756097561,33.47560975609756
11_34_32_039,-2.0,3.0,-1.0,2.0,4.0,2.0,0.0,3.0,0.86572265625,-0.28076171875,0.6044921875,-7.439024390243903,126.95121951219514,25.365853658536587
11_34_32_039,-2.0,0.0,-7.0,0.0,-5.0,-3.0,0.0,-4.0,0.89453125,-0.2314453125,0.63232421875,-16.890243902439025,117.7439024390244,17.073170731707318
11_34_32_039,-2.0,2.0,2.0,2.0,0.0,0.0,-4.0,-3.0,0.92529296875,-0.078125,0.580078125,-3.536585365853659,105.97560975609757,10.426829268292684
11_34_32_039,-2.0,-2.0,-3.0,-2.0,-6.0,-3.0,-3.0,-1.0,0.9404296875,-0.22216796875,0.58203125,-8.78048780487805,86.89024390243904,-0.7926829268292683
11_34_32_039,0.0,2.0,4.0,-4.0,-3.0,-3.0,-3.0,-1.0,0.98193359375,-0.083984375,0.53271484375,-9.451219512195122,75.1829268292683,-7.01219512195122
11_34_32_099,-5.0,-18.0,-8.0,1.0,-5.0,-5.0,-1.0,1.0,0.43701171875,-0.318359375,0.5224609375,20.0,88.78048780487805,68.41463414634147
11_34_32_099,-4.0,-26.0,4.0,-3.0,10.0,3.0,1.0,3.0,0.47900390625,-0.34716796875,0.5458984375,8.414634146341465,98.71951219512196,66.03658536585367
11_34_32_099,1.0,11.0,-1.0,-2.0,-10.0,-4.0,3.0,-3.0,0.5126953125,-0.33740234375,0.546875,-7.500000000000001,108.59756097560977,60.97560975609757
11_34_32_099,1.0,-2.0,5.0,-4.0,1.0,1.0,2.0,-3.0,0.5546875,-0.35498046875,0.57470703125,-17.743902439024392,118.59756097560977,54.93902439024391
11_34_32_099,-3.0,0.0,-7.0,-2.0,-4.0,-1.0,-2.0,-7.0,0.59228515625,-0.33935546875,0.576171875,-25.731707317073173,126.76829268292684,48.59756097560976
11_34_32_099,-1.0,1.0,8.0,-5.0,3.0,-1.0,-2.0,-3.0,0.6142578125,-0.29541015625,0.60205078125,-23.963414634146343,133.2926829268293,42.86585365853659
11_34_32_099,0.0,-5.0,-6.0,3.0,-1.0,1.0,-1.0,-4.0,0.677734375,-0.24072265625,0.61767578125,-13.109756097560977,137.01219512195124,37.5609756097561
11_34_32_099,-4.0,7.0,0.0,-2.0,3.0,2.0,-2.0,1.0,0.7529296875,-0.25390625,0.62158203125,-0.3658536585365854,135.609756097561,33.47560975609756
11_34_32_099,-4.0,-3.0,-4.0,1.0,-3.0,1.0,-2.0,-2.0,0.86572265625,-0.28076171875,0.6044921875,-7.439024390243903,126.95121951219514,25.365853658536587
11_34_32_099,0.0,4.0,5.0,-1.0,8.0,-2.0,-3.0,5.0,0.89453125,-0.2314453125,0.63232421875,-16.890243902439025,117.7439024390244,17.073170731707318
11_34_32_134,1.0,8.0,-1.0,4.0,2.0,3.0,-1.0,-4.0,0.32080078125,-0.26123046875,0.5361328125,26.82926829268293,46.768292682926834,67.43902439024392
11_34_32_134,4.0,2.0,-1.0,-5.0,3.0,4.0,-5.0,1.0,0.3740234375,-0.24560546875,0.53369140625,25.853658536585368,62.43902439024391,70.1829268292683
11_34_32_134,2.0,1.0,-4.0,0.0,-3.0,-1.0,-1.0,-1.0,0.40087890625,-0.27783203125,0.515625,25.48780487804878,76.89024390243902,69.45121951219512
11_34_32_134,-1.0,0.0,5.0,0.0,3.0,3.0,0.0,1.0,0.43701171875,-0.318359375,0.5224609375,20.0,88.78048780487805,68.41463414634147
11_34_32_134,0.0,12.0,6.0,-2.0,0.0,3.0,-3.0,1.0,0.47900390625,-0.34716796875,0.5458984375,8.414634146341465,98.71951219512196,66.03658536585367
11_34_32_134,17.0,-26.0,2.0,-3.0,1.0,0.0,0.0,5.0,0.5126953125,-0.33740234375,0.546875,-7.500000000000001,108.59756097560977,60.97560975609757
11_34_32_134,-9.0,17.0,-4.0,-3.0,-4.0,-5.0,0.0,0.0,0.5546875,-0.35498046875,0.57470703125,-17.743902439024392,118.59756097560977,54.93902439024391
11_34_32_134,1.0,-24.0,4.0,2.0,-10.0,-3.0,3.0,-4.0,0.59228515625,-0.33935546875,0.576171875,-25.731707317073173,126.76829268292684,48.59756097560976
11_34_32_134,-4.0,-1.0,-1.0,0.0,0.0,2.0,-2.0,2.0,0.6142578125,-0.29541015625,0.60205078125,-23.963414634146343,133.2926829268293,42.86585365853659
11_34_32_134,-4.0,-3.0,4.0,-2.0,1.0,1.0,-3.0,0.0,0.677734375,-0.24072265625,0.61767578125,-13.109756097560977,137.01219512195124,37.5609756097561
11_34_32_189,-3.0,-8.0,3.0,4.0,-4.0,-4.0,1.0,5.0,0.29638671875,-0.2314453125,0.56787109375,26.402439024390247,25.30487804878049,61.15853658536586
11_34_32_189,-2.0,7.0,0.0,2.0,-3.0,-1.0,-1.0,-10.0,0.32080078125,-0.26123046875,0.5361328125,26.82926829268293,46.768292682926834,67.43902439024392
11_34_32_189,3.0,4.0,-5.0,4.0,4.0,3.0,-6.0,-2.0,0.3740234375,-0.24560546875,0.53369140625,25.853658536585368,62.43902439024391,70.1829268292683
11_34_32_189,-2.0,-1.0,3.0,-3.0,1.0,-3.0,-6.0,2.0,0.40087890625,-0.27783203125,0.515625,25.48780487804878,76.89024390243902,69.45121951219512
11_34_32_189,-3.0,-2.0,-7.0,3.0,-6.0,-5.0,1.0,-3.0,0.43701171875,-0.318359375,0.5224609375,20.0,88.78048780487805,68.41463414634147
11_34_32_189,-3.0,-6.0,-5.0,-6.0,-1.0,-3.0,-1.0,-1.0,0.47900390625,-0.34716796875,0.5458984375,8.414634146341465,98.71951219512196,66.03658536585367
11_34_32_189,1.0,8.0,-1.0,4.0,2.0,3.0,-1.0,-4.0,0.5126953125,-0.33740234375,0.546875,-7.500000000000001,108.59756097560977,60.97560975609757
11_34_32_189,4.0,2.0,-1.0,-5.0,3.0,4.0,-5.0,1.0,0.5546875,-0.35498046875,0.57470703125,-17.743902439024392,118.59756097560977,54.93902439024391
11_34_32_189,2.0,1.0,-4.0,0.0,-3.0,-1.0,-1.0,-1.0,0.59228515625,-0.33935546875,0.576171875,-25.731707317073173,126.76829268292684,48.59756097560976
11_34_32_189,-1.0,0.0,5.0,0.0,3.0,3.0,0.0,1.0,0.6142578125,-0.29541015625,0.60205078125,-23.963414634146343,133.2926829268293,42.86585365853659
11_34_32_263,-1.0,-9.0,0.0,2.0,-3.0,-4.0,-5.0,-3.0,0.31005859375,-0.142578125,0.5986328125,26.34146341463415,9.634146341463415,49.39024390243903
11_34_32_263,-3.0,2.0,-3.0,-2.0,8.0,2.0,-7.0,1.0,0.29638671875,-0.2314453125,0.56787109375,26.402439024390247,25.30487804878049,61.15853658536586
11_34_32_263,-3.0,-8.0,3.0,4.0,-4.0,-4.0,1.0,5.0,0.32080078125,-0.26123046875,0.5361328125,26.82926829268293,46.768292682926834,67.43902439024392
11_34_32_263,-2.0,7.0,0.0,2.0,-3.0,-1.0,-1.0,-10.0,0.3740234375,-0.24560546875,0.53369140625,25.853658536585368,62.43902439024391,70.1829268292683
11_34_32_263,3.0,4.0,-5.0,4.0,4.0,3.0,-6.0,-2.0,0.40087890625,-0.27783203125,0.515625,25.48780487804878,76.89024390243902,69.45121951219512
11_34_32_263,-2.0,-1.0,3.0,-3.0,1.0,-3.0,-6.0,2.0,0.43701171875,-0.318359375,0.5224609375,20.0,88.78048780487805,68.41463414634147
11_34_32_263,-3.0,-2.0,-7.0,3.0,-6.0,-5.0,1.0,-3.0,0.47900390625,-0.34716796875,0.5458984375,8.414634146341465,98.71951219512196,66.03658536585367
11_34_32_263,-3.0,-6.0,-5.0,-6.0,-1.0,-3.0,-1.0,-1.0,0.5126953125,-0.33740234375,0.546875,-7.500000000000001,108.59756097560977,60.97560975609757
11_34_32_263,1.0,8.0,-1.0,4.0,2.0,3.0,-1.0,-4.0,0.5546875,-0.35498046875,0.57470703125,-17.743902439024392,118.59756097560977,54.93902439024391
11_34_32_263,4.0,2.0,-1.0,-5.0,3.0,4.0,-5.0,1.0,0.59228515625,-0.33935546875,0.576171875,-25.731707317073173,126.76829268292684,48.59756097560976
11_34_32_311,-4.0,2.0,6.0,-5.0,-6.0,-2.0,-2.0,-8.0,0.48291015625,-0.16650390625,0.82275390625,-42.13414634146342,-44.69512195121952,-6.402439024390245
11_34_32_311,-3.0,0.0,1.0,0.0,6.0,-1.0,0.0,1.0,0.50048828125,-0.09765625,0.74951171875,-37.25609756097561,-40.426829268292686,1.829268292682927
11_34_32_311,2.0,-6.0,-3.0,-9.0,4.0,-3.0,8.0,-2.0,0.46337890625,-0.01220703125,0.70068359375,-22.134146341463417,-46.951219512195124,10.426829268292684
11_34_32_311,2.0,-1.0,-6.0,4.0,4.0,1.0,2.0,-3.0,0.34228515625,-0.10986328125,0.6572265625,17.804878048780488,-24.32926829268293,30.54878048780488
11_34_32_311,-2.0,3.0,8.0,-2.0,-5.0,1.0,0.0,-6.0,0.314453125,-0.13037109375,0.642578125,24.573170731707318,-6.890243902439025,39.63414634146342
11_34_32_311,-2.0,0.0,2.0,-3.0,-1.0,-3.0,-22.0,0.0,0.31005859375,-0.142578125,0.5986328125,26.34146341463415,9.634146341463415,49.39024390243903
11_34_32_311,-2.0,-5.0,-6.0,-5.0,0.0,-5.0,10.0,-3.0,0.29638671875,-0.2314453125,0.56787109375,26.402439024390247,25.30487804878049,61.15853658536586
11_34_32_311,-3.0,-1.0,-3.0,-1.0,-5.0,-6.0,0.0,-4.0,0.32080078125,-0.26123046875,0.5361328125,26.82926829268293,46.768292682926834,67.43902439024392
11_34_32_311,-3.0,5.0,2.0,3.0,-12.0,-4.0,-2.0,-6.0,0.3740234375,-0.24560546875,0.53369140625,25.853658536585368,62.43902439024391,70.1829268292683
11_34_32_311,-1.0,-3.0,5.0,-1.0,3.0,1.0,-4.0,-1.0,0.40087890625,-0.27783203125,0.515625,25.48780487804878,76.89024390243902,69.45121951219512
11_34_32_371,2.0,0.0,-1.0,0.0,-9.0,-10.0,-3.0,-6.0,0.50048828125,-0.09765625,0.74951171875,-37.25609756097561,-40.426829268292686,1.829268292682927
11_34_32_371,-4.0,2.0,6.0,-5.0,-6.0,-2.0,-2.0,-8.0,0.46337890625,-0.01220703125,0.70068359375,-22.134146341463417,-46.951219512195124,10.426829268292684
11_34_32_371,-3.0,0.0,1.0,0.0,6.0,-1.0,0.0,1.0,0.34228515625,-0.10986328125,0.6572265625,17.804878048780488,-24.32926829268293,30.54878048780488
11_34_32_371,2.0,-6.0,-3.0,-9.0,4.0,-3.0,8.0,-2.0,0.314453125,-0.13037109375,0.642578125,24.573170731707318,-6.890243902439025,39.63414634146342
11_34_32_371,2.0,-1.0,-6.0,4.0,4.0,1.0,2.0,-3.0,0.31005859375,-0.142578125,0.5986328125,26.34146341463415,9.634146341463415,49.39024390243903
11_34_32_371,-2.0,3.0,8.0,-2.0,-5.0,1.0,0.0,-6.0,0.29638671875,-0.2314453125,0.56787109375,26.402439024390247,25.30487804878049,61.15853658536586
11_34_32_371,-2.0,0.0,2.0,-3.0,-1.0,-3.0,-22.0,0.0,0.32080078125,-0.26123046875,0.5361328125,26.82926829268293,46.768292682926834,67.43902439024392
11_34_32_371,-2.0,-5.0,-6.0,-5.0,0.0,-5.0,10.0,-3.0,0.3740234375,-0.24560546875,0.53369140625,25.853658536585368,62.43902439024391,70.1829268292683
11_34_32_371,-3.0,-1.0,-3.0,-1.0,-5.0,-6.0,0.0,-4.0,0.40087890625,-0.27783203125,0.515625,25.48780487804878,76.89024390243902,69.45121951219512
11_34_32_414,-1.0,2.0,6.0,-3.0,-3.0,7.0,3.0,1.0,0.55224609375,-0.2607421875,0.85693359375,-16.158536585365855,-40.0,-19.146341463414636
11_34_32_414,1.0,9.0,1.0,8.0,4.0,4.0,-5.0,3.0,0.548828125,-0.25048828125,0.8994140625,-21.890243902439025,-44.87804878048781,-16.76829268292683
11_34_32_414,0.0,0.0,-2.0,0.0,-11.0,-3.0,-2.0,-2.0,0.5029296875,-0.21630859375,0.9208984375,-27.682926829268297,-49.024390243902445,-11.036585365853659
11_34_32_414,-1.0,0.0,-2.0,-4.0,-5.0,-3.0,-6.0,-1.0,0.48828125,-0.1826171875,0.88330078125,-34.207317073170735,-47.50000000000001,-9.695121951219512
11_34_32_414,-1.0,2.0,-3.0,-5.0,1.0,-1.0,-4.0,-1.0,0.48291015625,-0.16650390625,0.82275390625,-42.13414634146342,-44.69512195121952,-6.402439024390245
11_34_32_414,-2.0,2.0,-5.0,-3.0,-6.0,-2.0,1.0,-3.0,0.50048828125,-0.09765625,0.74951171875,-37.25609756097561,-40.426829268292686,1.829268292682927
11_34_32_414,2.0,-3.0,4.0,1.0,3.0,0.0,0.0,-2.0,0.46337890625,-0.01220703125,0.70068359375,-22.134146341463417,-46.951219512195124,10.426829268292684
11_34_32_414,1.0,-2.0,4.0,1.0,-4.0,0.0,0.0,-4.0,0.34228515625,-0.10986328125,0.6572265625,17.804878048780488,-24.32926829268293,30.54878048780488
11_34_32_414,-1.0,-7.0,-3.0,-3.0,-8.0,1.0,0.0,-2.0,0.314453125,-0.13037109375,0.642578125,24.573170731707318,-6.890243902439025,39.63414634146342
11_34_32_414,-5.0,1.0,1.0,-1.0,7.0,1.0,-4.0,1.0,0.31005859375,-0.142578125,0.5986328125,26.34146341463415,9.634146341463415,49.39024390243903
11_34_32_469,0.0,-5.0,1.0,0.0,-1.0,-1.0,-2.0,7.0,0.5,-0.29443359375,0.8701171875,-6.402439024390245,-44.63414634146342,-13.475609756097562
11_34_32_469,-3.0,0.0,-3.0,-5.0,-8.0,-6.0,2.0,-4.0,0.48974609375,-0.24462890625,0.8994140625,-8.170731707317074,-40.426829268292686,-16.890243902439025
11_34_32_469,2.0,0.0,-3.0,3.0,-5.0,0.0,-9.0,-6.0,0.55224609375,-0.2607421875,0.85693359375,-16.158536585365855,-40.0,-19.146341463414636
11_34_32_469,-4.0,-1.0,5.0,-7.0,13.0,13.0,3.0,1.0,0.548828125,-0.25048828125,0.8994140625,-21.890243902439025,-44.87804878048781,-16.76829268292683
11_34_32_469,-1.0,1.0,-1.0,1.0,-16.0,-11.0,1.0,-1.0,0.5029296875,-0.21630859375,0.9208984375,-27.682926829268297,-49.024390243902445,-11.036585365853659
11_34_32_469,-2.0,-3.0,0.0,5.0,15.0,3.0,2.0,0.0,0.48828125,-0.1826171875,0.88330078125,-34.207317073170735,-47.50000000000001,-9.695121951219512
11_34_32_469,0.0,-3.0,-3.0,-9.0,1.0,6.0,0.0,2.0,0.48291015625,-0.16650390625,0.82275390625,-42.13414634146342,-44.69512195121952,-6.402439024390245
11_34_32_469,-3.0,2.0,2.0,3.0,-12.0,-20.0,2.0,-1.0,0.50048828125,-0.09765625,0.74951171875,-37.25609756097561,-40.426829268292686,1.829268292682927
11_34_32_469,-1.0,2.0,6.0,-3.0,-3.0,7.0,3.0,1.0,0.46337890625,-0.01220703125,0.70068359375,-22.134146341463417,-46.951219512195124,10.426829268292684
11_34_32_469,1.0,9.0,1.0,8.0,4.0,4.0,-5.0,3.0,0.34228515625,-0.10986328125,0.6572265625,17.804878048780488,-24.32926829268293,30.54878048780488
11_34_32_520,0.0,5.0,-7.0,0.0,1.0,-3.0,-3.0,-2.0,0.59375,-0.318359375,0.79150390625,-11.463414634146343,-28.780487804878053,-16.951219512195124
11_34_32_520,-3.0,0.0,-5.0,-2.0,-2.0,1.0,-3.0,0.0,0.57275390625,-0.3115234375,0.81494140625,-10.121951219512196,-38.78048780487805,-15.182926829268293
11_34_32_520,0.0,1.0,-6.0,-5.0,-5.0,-5.0,2.0,-6.0,0.5,-0.29443359375,0.8701171875,-6.402439024390245,-44.63414634146342,-13.475609756097562
11_34_32_520,-2.0,0.0,1.0,-7.0,4.0,4.0,-4.0,-3.0,0.48974609375,-0.24462890625,0.8994140625,-8.170731707317074,-40.426829268292686,-16.890243902439025
11_34_32_520,4.0,-5.0,1.0,-1.0,1.0,-2.0,-3.0,-1.0,0.55224609375,-0.2607421875,0.85693359375,-16.158536585365855,-40.0,-19.146341463414636
11_34_32_520,-1.0,-4.0,3.0,-2.0,2.0,-4.0,-4.0,6.0,0.548828125,-0.25048828125,0.8994140625,-21.890243902439025,-44.87804878048781,-16.76829268292683
11_34_32_520,-1.0,1.0,-1.0,-5.0,0.0,-3.0,-3.0,-7.0,0.5029296875,-0.21630859375,0.9208984375,-27.682926829268297,-49.024390243902445,-11.036585365853659
11_34_32_520,-3.0,-1.0,-6.0,0.0,0.0,-4.0,-1.0,-4.0,0.48828125,-0.1826171875,0.88330078125,-34.207317073170735,-47.50000000000001,-9.695121951219512
11_34_32_520,1.0,1.0,2.0,-3.0,-3.0,-6.0,-3.0,-3.0,0.48291015625,-0.16650390625,0.82275390625,-42.13414634146342,-44.69512195121952,-6.402439024390245
11_34_32_563,4.0,0.0,1.0,1.0,10.0,-1.0,-6.0,1.0,0.48193359375,-0.37890625,0.78857421875,-18.53658536585366,-12.378048780487806,-10.060975609756099
11_34_32_563,0.0,-1.0,0.0,-4.0,-6.0,-1.0,3.0,1.0,0.5224609375,-0.41015625,0.77001953125,-15.975609756097562,-14.390243902439027,-9.51219512195122
11_34_32_563,1.0,-5.0,2.0,5.0,14.0,4.0,-2.0,2.0,0.5244140625,-0.408203125,0.77685546875,-23.719512195121954,-16.82926829268293,-9.329268292682928
11_34_32_563,1.0,-3.0,1.0,-1.0,-2.0,-1.0,1.0,-5.0,0.50390625,-0.3388671875,0.78857421875,-20.365853658536587,-18.475609756097562,-10.24390243902439
11_34_32_563,0.0,-5.0,8.0,2.0,12.0,-1.0,-6.0,4.0,0.54833984375,-0.30859375,0.79541015625,-14.26829268292683,-21.707317073170735,-12.682926829268293
11_34_32_563,-1.0,4.0,-5.0,0.0,-2.0,-4.0,-3.0,-1.0,0.59375,-0.318359375,0.79150390625,-11.463414634146343,-28.780487804878053,-16.951219512195124
11_34_32_563,7.0,0.0,5.0,2.0,-7.0,-4.0,-8.0,7.0,0.57275390625,-0.3115234375,0.81494140625,-10.121951219512196,-38.78048780487805,-15.182926829268293
11_34_32_563,-3.0,1.0,0.0,0.0,-8.0,2.0,17.0,3.0,0.5,-0.29443359375,0.8701171875,-6.402439024390245,-44.63414634146342,-13.475609756097562
11_34_32_563,-2.0,-1.0,-6.0,-3.0,6.0,7.0,-11.0,0.0,0.48974609375,-0.24462890625,0.8994140625,-8.170731707317074,-40.426829268292686,-16.890243902439025
11_34_32_563,0.0,-2.0,3.0,0.0,-2.0,0.0,3.0,3.0,0.55224609375,-0.2607421875,0.85693359375,-16.158536585365855,-40.0,-19.146341463414636
11_34_32_622,1.0,2.0,6.0,0.0,4.0,-2.0,-3.0,-4.0,0.4443359375,-0.42529296875,0.794921875,-28.780487804878053,-15.121951219512196,-11.341463414634147
11_34_32_622,-4.0,-3.0,-2.0,-2.0,-1.0,0.0,-1.0,-4.0,0.48193359375,-0.37890625,0.78857421875,-18.53658536585366,-12.378048780487806,-10.060975609756099
11_34_32_622,-2.0,-1.0,3.0,1.0,-1.0,2.0,-4.0,4.0,0.5224609375,-0.41015625,0.77001953125,-15.975609756097562,-14.390243902439027,-9.51219512195122
11_34_32_622,-2.0,-7.0,2.0,3.0,5.0,1.0,-4.0,3.0,0.5244140625,-0.408203125,0.77685546875,-23.719512195121954,-16.82926829268293,-9.329268292682928
11_34_32_622,-3.0,2.0,8.0,-2.0,4.0,-2.0,-3.0,4.0,0.50390625,-0.3388671875,0.78857421875,-20.365853658536587,-18.475609756097562,-10.24390243902439
11_34_32_622,-1.0,-8.0,-1.0,1.0,-5.0,-1.0,-1.0,-2.0,0.54833984375,-0.30859375,0.79541015625,-14.26829268292683,-21.707317073170735,-12.682926829268293
11_34_32_622,4.0,0.0,1.0,1.0,10.0,-1.0,-6.0,1.0,0.59375,-0.318359375,0.79150390625,-11.463414634146343,-28.780487804878053,-16.951219512195124
11_34_32_622,0.0,-1.0,0.0,-4.0,-6.0,-1.0,3.0,1.0,0.57275390625,-0.3115234375,0.81494140625,-10.121951219512196,-38.78048780487805,-15.182926829268293
11_34_32_622,1.0,-5.0,2.0,5.0,14.0,4.0,-2.0,2.0,0.5,-0.29443359375,0.8701171875,-6.402439024390245,-44.63414634146342,-13.475609756097562
11_34_32_622,1.0,-3.0,1.0,-1.0,-2.0,-1.0,1.0,-5.0,0.48974609375,-0.24462890625,0.8994140625,-8.170731707317074,-40.426829268292686,-16.890243902439025
11_34_32_670,-3.0,1.0,-3.0,-1.0,4.0,0.0,-6.0,3.0,0.50537109375,-0.5283203125,0.75390625,-16.890243902439025,-25.914634146341466,-15.060975609756099
11_34_32_670,-3.0,1.0,2.0,3.0,-5.0,-5.0,0.0,-1.0,0.4609375,-0.4853515625,0.7724609375,-30.30487804878049,-20.0609756097561,-12.74390243902439
11_34_32_670,-1.0,-6.0,-5.0,-5.0,12.0,2.0,-7.0,8.0,0.4443359375,-0.42529296875,0.794921875,-28.780487804878053,-15.121951219512196,-11.341463414634147
11_34_32_670,-1.0,-10.0,4.0,4.0,1.0,0.0,3.0,-2.0,0.48193359375,-0.37890625,0.78857421875,-18.53658536585366,-12.378048780487806,-10.060975609756099
11_34_32_670,1.0,2.0,6.0,0.0,4.0,-2.0,-3.0,-4.0,0.5224609375,-0.41015625,0.77001953125,-15.975609756097562,-14.390243902439027,-9.51219512195122
11_34_32_670,-4.0,-3.0,-2.0,-2.0,-1.0,0.0,-1.0,-4.0,0.5244140625,-0.408203125,0.77685546875,-23.719512195121954,-16.82926829268293,-9.329268292682928
11_34_32_670,-2.0,-1.0,3.0,1.0,-1.0,2.0,-4.0,4.0,0.50390625,-0.3388671875,0.78857421875,-20.365853658536587,-18.475609756097562,-10.24390243902439
11_34_32_670,-2.0,-7.0,2.0,3.0,5.0,1.0,-4.0,3.0,0.54833984375,-0.30859375,0.79541015625,-14.26829268292683,-21.707317073170735,-12.682926829268293
11_34_32_670,-3.0,2.0,8.0,-2.0,4.0,-2.0,-3.0,4.0,0.59375,-0.318359375,0.79150390625,-11.463414634146343,-28.780487804878053,-16.951219512195124
11_34_32_670,-1.0,-8.0,-1.0,1.0,-5.0,-1.0,-1.0,-2.0,0.57275390625,-0.3115234375,0.81494140625,-10.121951219512196,-38.78048780487805,-15.182926829268293
11_34_32_719,1.0,-7.0,1.0,-7.0,14.0,2.0,-12.0,22.0,0.5595703125,-0.365234375,0.6435546875,-4.146341463414634,-35.243902439024396,-19.451219512195124
11_34_32_719,-2.0,-2.0,2.0,-5.0,-1.0,-1.0,4.0,10.0,0.53369140625,-0.32177734375,0.65283203125,1.6463414634146343,-31.219512195121954,-17.378048780487806
11_34_32_719,1.0,1.0,3.0,3.0,-1.0,0.0,-3.0,1.0,0.568359375,-0.40625,0.6640625,2.1341463414634148,-29.451219512195124,-19.512195121951223
11_34_32_719,2.0,-1.0,1.0,3.0,2.0,1.0,0.0,0.0,0.5615234375,-0.494140625,0.70458984375,-4.451219512195122,-29.451219512195124,-17.682926829268293
11_34_32_719,-3.0,3.0,-6.0,-1.0,2.0,6.0,-3.0,1.0,0.50537109375,-0.5283203125,0.75390625,-16.890243902439025,-25.914634146341466,-15.060975609756099
11_34_32_719,-2.0,3.0,-7.0,0.0,-6.0,-7.0,3.0,-3.0,0.4609375,-0.4853515625,0.7724609375,-30.30487804878049,-20.0609756097561,-12.74390243902439
11_34_32_719,3.0,-9.0,5.0,6.0,8.0,-1.0,-3.0,-1.0,0.4443359375,-0.42529296875,0.794921875,-28.780487804878053,-15.121951219512196,-11.341463414634147
11_34_32_719,2.0,-13.0,-10.0,4.0,-3.0,0.0,-6.0,-3.0,0.48193359375,-0.37890625,0.78857421875,-18.53658536585366,-12.378048780487806,-10.060975609756099
11_34_32_719,1.0,2.0,9.0,-1.0,13.0,3.0,-4.0,5.0,0.5224609375,-0.41015625,0.77001953125,-15.975609756097562,-14.390243902439027,-9.51219512195122
11_34_32_719,-3.0,-1.0,4.0,-3.0,-12.0,-4.0,0.0,1.0,0.5244140625,-0.408203125,0.77685546875,-23.719512195121954,-16.82926829268293,-9.329268292682928
11_34_32_787,1.0,-1.0,-6.0,-1.0,-4.0,-2.0,9.0,3.0,0.60107421875,-0.42041015625,0.63037109375,-3.8414634146341466,-41.890243902439025,-22.621951219512198
11_34_32_787,-1.0,1.0,2.0,5.0,-9.0,2.0,0.0,-7.0,0.5595703125,-0.365234375,0.6435546875,-4.146341463414634,-35.243902439024396,-19.451219512195124
11_34_32_787,1.0,-7.0,1.0,-7.0,14.0,2.0,-12.0,22.0,0.53369140625,-0.32177734375,0.65283203125,1.6463414634146343,-31.219512195121954,-17.378048780487806
11_34_32_787,-2.0,-2.0,2.0,-5.0,-1.0,-1.0,4.0,10.0,0.568359375,-0.40625,0.6640625,2.1341463414634148,-29.451219512195124,-19.512195121951223
11_34_32_787,1.0,1.0,3.0,3.0,-1.0,0.0,-3.0,1.0,0.5615234375,-0.494140625,0.70458984375,-4.451219512195122,-29.451219512195124,-17.682926829268293
11_34_32_787,2.0,-1.0,1.0,3.0,2.0,1.0,0.0,0.0,0.50537109375,-0.5283203125,0.75390625,-16.890243902439025,-25.914634146341466,-15.060975609756099
11_34_32_787,-3.0,3.0,-6.0,-1.0,2.0,6.0,-3.0,1.0,0.4609375,-0.4853515625,0.7724609375,-30.30487804878049,-20.0609756097561,-12.74390243902439
11_34_32_787,-2.0,3.0,-7.0,0.0,-6.0,-7.0,3.0,-3.0,0.4443359375,-0.42529296875,0.794921875,-28.780487804878053,-15.121951219512196,-11.341463414634147
11_34_32_787,3.0,-9.0,5.0,6.0,8.0,-1.0,-3.0,-1.0,0.48193359375,-0.37890625,0.78857421875,-18.53658536585366,-12.378048780487806,-10.060975609756099
11_34_32_787,2.0,-13.0,-10.0,4.0,-3.0,0.0,-6.0,-3.0,0.5224609375,-0.41015625,0.77001953125,-15.975609756097562,-14.390243902439027,-9.51219512195122
11_34_32_820,-2.0,-5.0,-13.0,1.0,3.0,2.0,-2.0,0.0,0.5947265625,-0.30712890625,0.6064453125,8.78048780487805,-47.37804878048781,-24.512195121951223
11_34_32_820,-1.0,-1.0,-6.0,2.0,-7.0,-2.0,0.0,-4.0,0.61279296875,-0.38671875,0.59521484375,2.7439024390243905,-45.73170731707317,-24.512195121951223
11_34_32_820,-4.0,-1.0,-1.0,-3.0,3.0,-1.0,-2.0,4.0,0.60107421875,-0.42041015625,0.63037109375,-3.8414634146341466,-41.890243902439025,-22.621951219512198
11_34_32_820,0.0,1.0,0.0,2.0,-2.0,-1.0,1.0,1.0,0.5595703125,-0.365234375,0.6435546875,-4.146341463414634,-35.243902439024396,-19.451219512195124
11_34_32_820,-2.0,0.0,-7.0,-5.0,1.0,-3.0,2.0,5.0,0.53369140625,-0.32177734375,0.65283203125,1.6463414634146343,-31.219512195121954,-17.378048780487806
11_34_32_820,1.0,-2.0,3.0,-3.0,3.0,-2.0,2.0,-3.0,0.568359375,-0.40625,0.6640625,2.1341463414634148,-29.451219512195124,-19.512195121951223
11_34_32_820,1.0,2.0,-2.0,-1.0,0.0,-5.0,0.0,-4.0,0.5615234375,-0.494140625,0.70458984375,-4.451219512195122,-29.451219512195124,-17.682926829268293
11_34_32_820,-2.0,-1.0,-6.0,5.0,0.0,-1.0,1.0,-1.0,0.50537109375,-0.5283203125,0.75390625,-16.890243902439025,-25.914634146341466,-15.060975609756099
11_34_32_820,-2.0,-2.0,1.0,0.0,4.0,-3.0,-2.0,-4.0,0.4609375,-0.4853515625,0.7724609375,-30.30487804878049,-20.0609756097561,-12.74390243902439
11_34_32_884,2.0,5.0,8.0,1.0,-1.0,-1.0,1.0,0.0,0.6533203125,-0.22802734375,0.564453125,2.682926829268293,-67.6219512195122,-32.07317073170732
11_34_32_884,-5.0,-5.0,-7.0,0.0,2.0,-4.0,-1.0,-3.0,0.6142578125,-0.2744140625,0.61328125,1.3414634146341464,-59.207317073170735,-28.475609756097562
11_34_32_884,-4.0,3.0,6.0,1.0,-9.0,-4.0,1.0,0.0,0.59423828125,-0.28173828125,0.62060546875,5.121951219512195,-49.69512195121952,-25.365853658536587
11_34_32_884,0.0,-3.0,-10.0,-3.0,7.0,-2.0,-2.0,-3.0,0.5947265625,-0.30712890625,0.6064453125,8.78048780487805,-47.37804878048781,-24.512195121951223
11_34_32_884,2.0,0.0,1.0,1.0,-2.0,-2.0,1.0,-3.0,0.61279296875,-0.38671875,0.59521484375,2.7439024390243905,-45.73170731707317,-24.512195121951223
11_34_32_884,-4.0,0.0,2.0,-2.0,-4.0,-6.0,1.0,-4.0,0.60107421875,-0.42041015625,0.63037109375,-3.8414634146341466,-41.890243902439025,-22.621951219512198
11_34_32_884,-4.0,-1.0,-6.0,-4.0,2.0,-2.0,1.0,1.0,0.5595703125,-0.365234375,0.6435546875,-4.146341463414634,-35.243902439024396,-19.451219512195124
11_34_32_884,0.0,-4.0,2.0,-4.0,-4.0,-3.0,-3.0,-1.0,0.53369140625,-0.32177734375,0.65283203125,1.6463414634146343,-31.219512195121954,-17.378048780487806
11_34_32_884,2.0,1.0,-3.0,1.0,-3.0,3.0,0.0,-3.0,0.568359375,-0.40625,0.6640625,2.1341463414634148,-29.451219512195124,-19.512195121951223
11_34_32_884,-2.0,-5.0,-13.0,1.0,3.0,2.0,-2.0,0.0,0.5615234375,-0.494140625,0.70458984375,-4.451219512195122,-29.451219512195124,-17.682926829268293
11_34_32_924,5.0,4.0,-5.0,-3.0,6.0,3.0,-5.0,0.0,0.73486328125,-0.13232421875,0.6953125,-2.3170731707317076,-66.82926829268293,-30.000000000000004
11_34_32_924,-2.0,-3.0,-6.0,-1.0,2.0,0.0,1.0,0.0,0.70556640625,-0.171875,0.68994140625,-1.829268292682927,-65.60975609756098,-32.6219512195122
11_34_32_924,-6.0,9.0,-1.0,3.0,-14.0,-6.0,3.0,-11.0,0.7158203125,-0.224609375,0.646484375,-1.2195121951219514,-65.1219512195122,-33.90243902439025
11_34_32_924,-2.0,2.0,-4.0,0.0,1.0,-1.0,-2.0,5.0,0.71240234375,-0.22509765625,0.603515625,-1.0365853658536586,-68.71951219512195,-33.109756097560975
11_34_32_924,0.0,-6.0,-5.0,5.0,-1.0,0.0,-2.0,-1.0,0.6533203125,-0.22802734375,0.564453125,2.682926829268293,-67.6219512195122,-32.07317073170732
11_34_32_924,-1.0,-1.0,-1.0,-4.0,-3.0,2.0,2.0,1.0,0.6142578125,-0.2744140625,0.61328125,1.3414634146341464,-59.207317073170735,-28.475609756097562
11_34_32_924,-8.0,-2.0,-6.0,2.0,-12.0,-5.0,-1.0,-6.0,0.59423828125,-0.28173828125,0.62060546875,5.121951219512195,-49.69512195121952,-25.365853658536587
11_34_32_924,-3.0,-1.0,2.0,-7.0,8.0,7.0,-3.0,3.0,0.5947265625,-0.30712890625,0.6064453125,8.78048780487805,-47.37804878048781,-24.512195121951223
11_34_32_924,-1.0,0.0,-8.0,-2.0,3.0,0.0,-2.0,3.0,0.61279296875,-0.38671875,0.59521484375,2.7439024390243905,-45.73170731707317,-24.512195121951223
11_34_32_924,-1.0,3.0,5.0,3.0,4.0,-1.0,3.0,-3.0,0.60107421875,-0.42041015625,0.63037109375,-3.8414634146341466,-41.890243902439025,-22.621951219512198
11_34_32_972,4.0,0.0,3.0,2.0,-2.0,0.0,2.0,1.0,0.8046875,-0.0712890625,0.67333984375,-13.719512195121952,-58.10975609756098,-26.28048780487805
11_34_32_972,-4.0,-1.0,4.0,-5.0,9.0,-1.0,3.0,-2.0,0.79736328125,-0.1015625,0.67431640625,-9.26829268292683,-66.34146341463415,-29.02439024390244
11_34_32_972,-1.0,9.0,-2.0,0.0,-11.0,-3.0,3.0,-1.0,0.73486328125,-0.13232421875,0.6953125,-2.3170731707317076,-66.82926829268293,-30.000000000000004
11_34_32_972,1.0,-5.0,-5.0,-2.0,-2.0,1.0,-3.0,-4.0,0.70556640625,-0.171875,0.68994140625,-1.829268292682927,-65.60975609756098,-32.6219512195122
11_34_32_972,1.0,-3.0,0.0,-5.0,4.0,-4.0,2.0,1.0,0.7158203125,-0.224609375,0.646484375,-1.2195121951219514,-65.1219512195122,-33.90243902439025
11_34_32_972,-4.0,-5.0,-2.0,-6.0,1.0,-4.0,-2.0,1.0,0.71240234375,-0.22509765625,0.603515625,-1.0365853658536586,-68.71951219512195,-33.109756097560975
11_34_32_972,-5.0,2.0,-11.0,8.0,-15.0,-2.0,3.0,-9.0,0.6533203125,-0.22802734375,0.564453125,2.682926829268293,-67.6219512195122,-32.07317073170732
11_34_32_972,0.0,-3.0,1.0,4.0,2.0,0.0,-5.0,2.0,0.6142578125,-0.2744140625,0.61328125,1.3414634146341464,-59.207317073170735,-28.475609756097562
11_34_32_972,4.0,-1.0,3.0,4.0,1.0,1.0,-2.0,-2.0,0.59423828125,-0.28173828125,0.62060546875,5.121951219512195,-49.69512195121952,-25.365853658536587
11_34_32_972,-4.0,-3.0,-4.0,-3.0,0.0,-1.0,2.0,2.0,0.5947265625,-0.30712890625,0.6064453125,8.78048780487805,-47.37804878048781,-24.512195121951223
11_34_33_027,-2.0,0.0,1.0,0.0,-3.0,-2.0,-1.0,1.0,0.765625,-0.06298828125,0.69921875,-16.03658536585366,-51.646341463414636,-24.695121951219516
11_34_33_027,0.0,-2.0,-2.0,-1.0,-5.0,-7.0,1.0,4.0,0.8046875,-0.0712890625,0.67333984375,-13.719512195121952,-58.10975609756098,-26.28048780487805
11_34_33_027,-1.0,6.0,0.0,6.0,-3.0,4.0,-1.0,-2.0,0.79736328125,-0.1015625,0.67431640625,-9.26829268292683,-66.34146341463415,-29.02439024390244
11_34_33_027,-3.0,-4.0,-12.0,-6.0,0.0,3.0,-3.0,-1.0,0.73486328125,-0.13232421875,0.6953125,-2.3170731707317076,-66.82926829268293,-30.000000000000004
11_34_33_027,4.0,0.0,3.0,2.0,-2.0,0.0,2.0,1.0,0.70556640625,-0.171875,0.68994140625,-1.829268292682927,-65.60975609756098,-32.6219512195122
11_34_33_027,-4.0,-1.0,4.0,-5.0,9.0,-1.0,3.0,-2.0,0.7158203125,-0.224609375,0.646484375,-1.2195121951219514,-65.1219512195122,-33.90243902439025
11_34_33_027,-1.0,9.0,-2.0,0.0,-11.0,-3.0,3.0,-1.0,0.71240234375,-0.22509765625,0.603515625,-1.0365853658536586,-68.71951219512195,-33.109756097560975
11_34_33_027,1.0,-5.0,-5.0,-2.0,-2.0,1.0,-3.0,-4.0,0.6533203125,-0.22802734375,0.564453125,2.682926829268293,-67.6219512195122,-32.07317073170732
11_34_33_027,1.0,-3.0,0.0,-5.0,4.0,-4.0,2.0,1.0,0.6142578125,-0.2744140625,0.61328125,1.3414634146341464,-59.207317073170735,-28.475609756097562
11_34_33_027,-4.0,-5.0,-2.0,-6.0,1.0,-4.0,-2.0,1.0,0.59423828125,-0.28173828125,0.62060546875,5.121951219512195,-49.69512195121952,-25.365853658536587
11_34_33_074,-3.0,-3.0,-6.0,-3.0,-3.0,-2.0,0.0,0.0,0.7685546875,-0.12255859375,0.6640625,-1.9512195121951221,-34.63414634146342,-16.219512195121954
11_34_33_074,0.0,0.0,0.0,0.0,3.0,-3.0,1.0,-6.0,0.76318359375,-0.1044921875,0.67333984375,-11.402439024390246,-41.951219512195124,-17.5609756097561
11_34_33_074,1.0,-1.0,2.0,2.0,-4.0,1.0,0.0,2.0,0.76416015625,-0.072265625,0.67138671875,-17.134146341463417,-46.707317073170735,-21.463414634146343
11_34_33_074,0.0,2.0,0.0,2.0,5.0,1.0,-2.0,-1.0,0.765625,-0.06298828125,0.69921875,-16.03658536585366,-51.646341463414636,-24.695121951219516
11_34_33_074,-4.0,3.0,0.0,-1.0,-9.0,-4.0,3.0,-3.0,0.8046875,-0.0712890625,0.67333984375,-13.719512195121952,-58.10975609756098,-26.28048780487805
11_34_33_074,0.0,-9.0,-4.0,1.0,1.0,0.0,-5.0,-1.0,0.79736328125,-0.1015625,0.67431640625,-9.26829268292683,-66.34146341463415,-29.02439024390244
11_34_33_074,-5.0,-10.0,3.0,-1.0,3.0,-1.0,1.0,1.0,0.73486328125,-0.13232421875,0.6953125,-2.3170731707317076,-66.82926829268293,-30.000000000000004
11_34_33_074,2.0,10.0,-5.0,5.0,0.0,-1.0,4.0,-4.0,0.70556640625,-0.171875,0.68994140625,-1.829268292682927,-65.60975609756098,-32.6219512195122
11_34_33_074,-3.0,3.0,-1.0,-10.0,-12.0,-4.0,1.0,-2.0,0.7158203125,-0.224609375,0.646484375,-1.2195121951219514,-65.1219512195122,-33.90243902439025
11_34_33_074,0.0,-2.0,-2.0,2.0,-2.0,-2.0,-2.0,1.0,0.71240234375,-0.22509765625,0.603515625,-1.0365853658536586,-68.71951219512195,-33.109756097560975
11_34_33_124,-2.0,8.0,0.0,-2.0,-15.0,-5.0,3.0,-9.0,0.7275390625,-0.13232421875,0.595703125,-12.926829268292684,-23.414634146341466,-11.463414634146343
11_34_33_124,1.0,0.0,-3.0,-1.0,1.0,2.0,0.0,3.0,0.70556640625,-0.107421875,0.630859375,-9.146341463414634,-23.59756097560976,-11.646341463414634
11_34_33_124,-3.0,-2.0,2.0,-5.0,4.0,2.0,-2.0,1.0,0.740234375,-0.11669921875,0.6669921875,-8.109756097560977,-22.5609756097561,-12.926829268292684
11_34_33_124,2.0,-1.0,2.0,4.0,-5.0,-3.0,-3.0,-3.0,0.76318359375,-0.10400390625,0.66015625,-2.25609756097561,-27.682926829268297,-13.414634146341465
11_34_33_124,-8.0,-20.0,-3.0,-5.0,-15.0,-6.0,6.0,-8.0,0.7685546875,-0.12255859375,0.6640625,-1.9512195121951221,-34.63414634146342,-16.219512195121954
11_34_33_124,-3.0,11.0,6.0,1.0,2.0,-6.0,-3.0,0.0,0.76318359375,-0.1044921875,0.67333984375,-11.402439024390246,-41.951219512195124,-17.5609756097561
11_34_33_124,-2.0,1.0,0.0,-3.0,1.0,-2.0,-2.0,3.0,0.76416015625,-0.072265625,0.67138671875,-17.134146341463417,-46.707317073170735,-21.463414634146343
11_34_33_124,-2.0,-6.0,-1.0,-8.0,9.0,4.0,0.0,-1.0,0.765625,-0.06298828125,0.69921875,-16.03658536585366,-51.646341463414636,-24.695121951219516
11_34_33_124,2.0,8.0,1.0,-8.0,-7.0,-5.0,3.0,0.0,0.8046875,-0.0712890625,0.67333984375,-13.719512195121952,-58.10975609756098,-26.28048780487805
11_34_33_124,-2.0,-5.0,-2.0,2.0,-2.0,-1.0,-4.0,1.0,0.79736328125,-0.1015625,0.67431640625,-9.26829268292683,-66.34146341463415,-29.02439024390244
11_34_33_178,1.0,-5.0,0.0,-2.0,0.0,-2.0,-3.0,1.0,0.7275390625,-0.13232421875,0.595703125,-12.926829268292684,-23.414634146341466,-11.463414634146343
11_34_33_178,2.0,1.0,-7.0,-2.0,-6.0,-1.0,-3.0,0.0,0.70556640625,-0.107421875,0.630859375,-9.146341463414634,-23.59756097560976,-11.646341463414634
11_34_33_178,-2.0,8.0,0.0,-2.0,-15.0,-5.0,3.0,-9.0,0.740234375,-0.11669921875,0.6669921875,-8.109756097560977,-22.5609756097561,-12.926829268292684
11_34_33_178,1.0,0.0,-3.0,-1.0,1.0,2.0,0.0,3.0,0.76318359375,-0.10400390625,0.66015625,-2.25609756097561,-27.682926829268297,-13.414634146341465
11_34_33_178,-3.0,-2.0,2.0,-5.0,4.0,2.0,-2.0,1.0,0.7685546875,-0.12255859375,0.6640625,-1.9512195121951221,-34.63414634146342,-16.219512195121954
11_34_33_178,2.0,-1.0,2.0,4.0,-5.0,-3.0,-3.0,-3.0,0.76318359375,-0.1044921875,0.67333984375,-11.402439024390246,-41.951219512195124,-17.5609756097561
11_34_33_178,-8.0,-20.0,-3.0,-5.0,-15.0,-6.0,6.0,-8.0,0.76416015625,-0.072265625,0.67138671875,-17.134146341463417,-46.707317073170735,-21.463414634146343
11_34_33_178,-3.0,11.0,6.0,1.0,2.0,-6.0,-3.0,0.0,0.765625,-0.06298828125,0.69921875,-16.03658536585366,-51.646341463414636,-24.695121951219516
11_34_33_178,-2.0,1.0,0.0,-3.0,1.0,-2.0,-2.0,3.0,0.8046875,-0.0712890625,0.67333984375,-13.719512195121952,-58.10975609756098,-26.28048780487805
11_34_33_178,-2.0,-6.0,-1.0,-8.0,9.0,4.0,0.0,-1.0,0.79736328125,-0.1015625,0.67431640625,-9.26829268292683,-66.34146341463415,-29.02439024390244
11_34_33_228,-4.0,-6.0,-1.0,-6.0,-2.0,-2.0,-6.0,5.0,0.7060546875,-0.13818359375,0.60400390625,-6.951219512195123,-14.878048780487806,-6.036585365853659
11_34_33_228,-4.0,-6.0,-3.0,-3.0,-6.0,-9.0,-3.0,-2.0,0.72802734375,-0.15576171875,0.59130859375,-7.01219512195122,-16.03658536585366,-9.085365853658537
11_34_33_228,0.0,3.0,6.0,-1.0,-9.0,-4.0,1.0,-1.0,0.736328125,-0.18310546875,0.5927734375,-14.02439024390244,-19.390243902439025,-9.329268292682928
11_34_33_228,-1.0,-3.0,-2.0,-1.0,-4.0,-4.0,0.0,-5.0,0.7275390625,-0.13232421875,0.595703125,-12.926829268292684,-23.414634146341466,-11.463414634146343
11_34_33_228,-3.0,7.0,-4.0,-8.0,-14.0,-7.0,1.0,-4.0,0.70556640625,-0.107421875,0.630859375,-9.146341463414634,-23.59756097560976,-11.646341463414634
11_34_33_228,3.0,1.0,3.0,6.0,-1.0,0.0,-3.0,0.0,0.740234375,-0.11669921875,0.6669921875,-8.109756097560977,-22.5609756097561,-12.926829268292684
11_34_33_228,-1.0,-2.0,-3.0,-4.0,3.0,-4.0,-1.0,-4.0,0.76318359375,-0.10400390625,0.66015625,-2.25609756097561,-27.682926829268297,-13.414634146341465
11_34_33_228,-1.0,1.0,2.0,4.0,-3.0,-3.0,0.0,2.0,0.7685546875,-0.12255859375,0.6640625,-1.9512195121951221,-34.63414634146342,-16.219512195121954
11_34_33_228,-4.0,0.0,-1.0,1.0,-7.0,2.0,3.0,-3.0,0.76318359375,-0.1044921875,0.67333984375,-11.402439024390246,-41.951219512195124,-17.5609756097561
11_34_33_228,-2.0,0.0,-1.0,-4.0,-1.0,1.0,-4.0,0.0,0.76416015625,-0.072265625,0.67138671875,-17.134146341463417,-46.707317073170735,-21.463414634146343
11_34_33_282,2.0,-1.0,-7.0,5.0,5.0,-1.0,0.0,0.0,0.8603515625,-0.24365234375,0.51123046875,-16.70731707317073,-15.670731707317074,11.951219512195124
11_34_33_282,-2.0,2.0,-2.0,10.0,3.0,11.0,1.0,-3.0,0.830078125,-0.1748046875,0.5009765625,-20.30487804878049,-16.463414634146343,5.548780487804878
11_34_33_282,-3.0,-8.0,-2.0,-8.0,9.0,2.0,-10.0,10.0,0.759765625,-0.0947265625,0.50244140625,-15.853658536585368,-20.182926829268293,2.987804878048781
11_34_33_282,3.0,1.0,6.0,6.0,1.0,0.0,-1.0,2.0,0.7060546875,-0.13818359375,0.60400390625,-6.951219512195123,-14.878048780487806,-6.036585365853659
11_34_33_282,-4.0,-5.0,21.0,-4.0,5.0,-9.0,0.0,1.0,0.72802734375,-0.15576171875,0.59130859375,-7.01219512195122,-16.03658536585366,-9.085365853658537
11_34_33_282,-1.0,3.0,9.0,-12.0,20.0,12.0,1.0,0.0,0.736328125,-0.18310546875,0.5927734375,-14.02439024390244,-19.390243902439025,-9.329268292682928
11_34_33_282,-2.0,0.0,9.0,15.0,-7.0,-13.0,4.0,-1.0,0.7275390625,-0.13232421875,0.595703125,-12.926829268292684,-23.414634146341466,-11.463414634146343
11_34_33_282,-1.0,3.0,-4.0,3.0,8.0,27.0,6.0,-2.0,0.70556640625,-0.107421875,0.630859375,-9.146341463414634,-23.59756097560976,-11.646341463414634
11_34_33_282,-3.0,-4.0,-2.0,-2.0,-1.0,-6.0,-8.0,-2.0,0.740234375,-0.11669921875,0.6669921875,-8.109756097560977,-22.5609756097561,-12.926829268292684
11_34_33_282,0.0,-1.0,-5.0,-6.0,-13.0,-11.0,1.0,-6.0,0.76318359375,-0.10400390625,0.66015625,-2.25609756097561,-27.682926829268297,-13.414634146341465
11_34_33_333,1.0,-5.0,-5.0,1.0,-4.0,-1.0,6.0,-4.0,0.970703125,-0.32373046875,0.40869140625,-15.365853658536587,-3.9024390243902443,36.40243902439025
11_34_33_333,2.0,3.0,9.0,-4.0,0.0,-3.0,-8.0,-3.0,0.95556640625,-0.26953125,0.41943359375,-15.79268292682927,-8.292682926829269,31.951219512195124
11_34_33_333,-5.0,-3.0,-17.0,-12.0,0.0,-6.0,-17.0,0.0,0.9228515625,-0.2646484375,0.42578125,-22.195121951219512,-15.426829268292684,22.439024390243905
11_34_33_333,1.0,1.0,1.0,-1.0,-7.0,-8.0,11.0,-5.0,0.8603515625,-0.24365234375,0.51123046875,-16.70731707317073,-15.670731707317074,11.951219512195124
11_34_33_333,-3.0,4.0,-1.0,5.0,7.0,8.0,5.0,1.0,0.830078125,-0.1748046875,0.5009765625,-20.30487804878049,-16.463414634146343,5.548780487804878
11_34_33_333,-2.0,2.0,-2.0,0.0,2.0,5.0,-20.0,0.0,0.759765625,-0.0947265625,0.50244140625,-15.853658536585368,-20.182926829268293,2.987804878048781
11_34_33_333,1.0,-4.0,-5.0,-2.0,5.0,-1.0,0.0,0.0,0.7060546875,-0.13818359375,0.60400390625,-6.951219512195123,-14.878048780487806,-6.036585365853659
11_34_33_333,-1.0,3.0,12.0,3.0,-9.0,-7.0,-1.0,0.0,0.72802734375,-0.15576171875,0.59130859375,-7.01219512195122,-16.03658536585366,-9.085365853658537
11_34_33_333,1.0,-4.0,-3.0,10.0,-9.0,-4.0,-4.0,0.0,0.736328125,-0.18310546875,0.5927734375,-14.02439024390244,-19.390243902439025,-9.329268292682928
11_34_33_333,0.0,-2.0,-19.0,-9.0,-2.0,-6.0,5.0,-6.0,0.7275390625,-0.13232421875,0.595703125,-12.926829268292684,-23.414634146341466,-11.463414634146343
11_34_33_377,-1.0,-7.0,-7.0,0.0,6.0,5.0,3.0,-4.0,0.91796875,-0.45068359375,0.44873046875,-7.926829268292684,11.097560975609756,48.59756097560976
11_34_33_377,0.0,6.0,-7.0,-7.0,0.0,0.0,-5.0,1.0,0.98779296875,-0.39990234375,0.42333984375,-18.719512195121954,5.365853658536586,43.41463414634147
11_34_33_377,-1.0,-19.0,-5.0,2.0,-4.0,-2.0,0.0,-4.0,0.970703125,-0.32373046875,0.40869140625,-15.365853658536587,-3.9024390243902443,36.40243902439025
11_34_33_377,-4.0,1.0,4.0,-5.0,8.0,-3.0,-5.0,3.0,0.95556640625,-0.26953125,0.41943359375,-15.79268292682927,-8.292682926829269,31.951219512195124
11_34_33_377,-1.0,2.0,-2.0,0.0,-4.0,2.0,-1.0,-1.0,0.9228515625,-0.2646484375,0.42578125,-22.195121951219512,-15.426829268292684,22.439024390243905
11_34_33_377,-1.0,-3.0,5.0,-3.0,2.0,-1.0,2.0,-1.0,0.8603515625,-0.24365234375,0.51123046875,-16.70731707317073,-15.670731707317074,11.951219512195124
11_34_33_377,1.0,-1.0,1.0,0.0,2.0,1.0,-6.0,3.0,0.830078125,-0.1748046875,0.5009765625,-20.30487804878049,-16.463414634146343,5.548780487804878
11_34_33_377,2.0,-4.0,-3.0,-6.0,-2.0,-3.0,-1.0,-2.0,0.759765625,-0.0947265625,0.50244140625,-15.853658536585368,-20.182926829268293,2.987804878048781
11_34_33_377,2.0,-6.0,1.0,-9.0,-9.0,-9.0,3.0,-11.0,0.7060546875,-0.13818359375,0.60400390625,-6.951219512195123,-14.878048780487806,-6.036585365853659
11_34_33_431,-3.0,-3.0,10.0,-8.0,6.0,5.0,-1.0,1.0,0.85400390625,-0.42578125,0.43359375,35.36585365853659,16.219512195121954,61.585365853658544
11_34_33_431,0.0,-1.0,-3.0,-4.0,-6.0,0.0,-2.0,0.0,0.8720703125,-0.443359375,0.4384765625,31.951219512195124,15.243902439024392,62.37804878048781
11_34_33_431,-4.0,-3.0,-3.0,3.0,7.0,-2.0,-5.0,4.0,0.880859375,-0.45068359375,0.4921875,27.25609756097561,11.219512195121952,57.50000000000001
11_34_33_431,0.0,2.0,-3.0,0.0,2.0,-4.0,-1.0,-1.0,0.888671875,-0.44775390625,0.47119140625,10.548780487804878,11.402439024390246,50.79268292682927
11_34_33_431,3.0,-1.0,11.0,-7.0,4.0,-1.0,-5.0,-3.0,0.91796875,-0.45068359375,0.44873046875,-7.926829268292684,11.097560975609756,48.59756097560976
11_34_33_431,-2.0,1.0,-8.0,0.0,2.0,3.0,-5.0,-2.0,0.98779296875,-0.39990234375,0.42333984375,-18.719512195121954,5.365853658536586,43.41463414634147
11_34_33_431,6.0,0.0,7.0,1.0,1.0,-1.0,-3.0,6.0,0.970703125,-0.32373046875,0.40869140625,-15.365853658536587,-3.9024390243902443,36.40243902439025
11_34_33_431,1.0,9.0,-1.0,0.0,-5.0,1.0,-1.0,-2.0,0.95556640625,-0.26953125,0.41943359375,-15.79268292682927,-8.292682926829269,31.951219512195124
11_34_33_431,1.0,-10.0,-3.0,-5.0,-1.0,-1.0,-6.0,0.0,0.9228515625,-0.2646484375,0.42578125,-22.195121951219512,-15.426829268292684,22.439024390243905
11_34_33_431,0.0,4.0,-5.0,-4.0,0.0,-2.0,-2.0,3.0,0.8603515625,-0.24365234375,0.51123046875,-16.70731707317073,-15.670731707317074,11.951219512195124
11_34_33_485,-1.0,-2.0,-4.0,-4.0,2.0,0.0,-8.0,-1.0,0.8505859375,-0.4287109375,0.3876953125,32.43902439024391,11.951219512195124,44.81707317073171
11_34_33_485,-3.0,2.0,7.0,1.0,0.0,4.0,-2.0,-4.0,0.845703125,-0.45556640625,0.42529296875,35.54878048780488,13.719512195121952,54.63414634146342
11_34_33_485,-1.0,-2.0,5.0,1.0,7.0,-3.0,-4.0,1.0,0.85400390625,-0.42578125,0.43359375,35.36585365853659,16.219512195121954,61.585365853658544
11_34_33_485,0.0,-6.0,-2.0,-2.0,-1.0,4.0,1.0,2.0,0.8720703125,-0.443359375,0.4384765625,31.951219512195124,15.243902439024392,62.37804878048781
11_34_33_485,0.0,-5.0,-2.0,0.0,10.0,2.0,-1.0,-2.0,0.880859375,-0.45068359375,0.4921875,27.25609756097561,11.219512195121952,57.50000000000001
11_34_33_485,0.0,0.0,-1.0,-3.0,-4.0,-3.0,1.0,-3.0,0.888671875,-0.44775390625,0.47119140625,10.548780487804878,11.402439024390246,50.79268292682927
11_34_33_485,-1.0,-3.0,2.0,2.0,5.0,2.0,-1.0,4.0,0.91796875,-0.45068359375,0.44873046875,-7.926829268292684,11.097560975609756,48.59756097560976
11_34_33_485,1.0,-1.0,1.0,-6.0,6.0,4.0,-2.0,3.0,0.98779296875,-0.39990234375,0.42333984375,-18.719512195121954,5.365853658536586,43.41463414634147
11_34_33_485,0.0,3.0,3.0,2.0,-3.0,-1.0,0.0,-2.0,0.970703125,-0.32373046875,0.40869140625,-15.365853658536587,-3.9024390243902443,36.40243902439025
11_34_33_485,1.0,-3.0,-11.0,-4.0,-8.0,-3.0,3.0,5.0,0.95556640625,-0.26953125,0.41943359375,-15.79268292682927,-8.292682926829269,31.951219512195124
11_34_33_531,-4.0,-3.0,-4.0,-1.0,-6.0,-3.0,-2.0,-1.0,0.86767578125,-0.33837890625,0.3662109375,26.09756097560976,14.51219512195122,30.426829268292686
11_34_33_531,1.0,-3.0,-3.0,2.0,4.0,2.0,-6.0,0.0,0.8740234375,-0.3779296875,0.3720703125,31.03658536585366,11.76829268292683,37.43902439024391
11_34_33_531,0.0,0.0,2.0,1.0,6.0,-5.0,-2.0,-4.0,0.8505859375,-0.4287109375,0.3876953125,32.43902439024391,11.951219512195124,44.81707317073171
11_34_33_531,0.0,3.0,10.0,-1.0,0.0,-4.0,-4.0,4.0,0.845703125,-0.45556640625,0.42529296875,35.54878048780488,13.719512195121952,54.63414634146342
11_34_33_531,0.0,-2.0,0.0,3.0,5.0,-1.0,-3.0,2.0,0.85400390625,-0.42578125,0.43359375,35.36585365853659,16.219512195121954,61.585365853658544
11_34_33_531,-1.0,-5.0,3.0,-3.0,-1.0,5.0,-5.0,1.0,0.8720703125,-0.443359375,0.4384765625,31.951219512195124,15.243902439024392,62.37804878048781
11_34_33_531,-1.0,-2.0,-4.0,-4.0,2.0,0.0,-8.0,-1.0,0.880859375,-0.45068359375,0.4921875,27.25609756097561,11.219512195121952,57.50000000000001
11_34_33_531,-3.0,2.0,7.0,1.0,0.0,4.0,-2.0,-4.0,0.888671875,-0.44775390625,0.47119140625,10.548780487804878,11.402439024390246,50.79268292682927
11_34_33_531,-1.0,-2.0,5.0,1.0,7.0,-3.0,-4.0,1.0,0.91796875,-0.45068359375,0.44873046875,-7.926829268292684,11.097560975609756,48.59756097560976
11_34_33_531,0.0,-6.0,-2.0,-2.0,-1.0,4.0,1.0,2.0,0.98779296875,-0.39990234375,0.42333984375,-18.719512195121954,5.365853658536586,43.41463414634147
11_34_33_589,0.0,-3.0,4.0,0.0,-6.0,-1.0,1.0,2.0,0.830078125,-0.3232421875,0.3369140625,9.939024390243903,-11.76829268292683,9.878048780487806
11_34_33_589,-2.0,-2.0,1.0,-3.0,-11.0,-3.0,1.0,2.0,0.77783203125,-0.36474609375,0.3603515625,9.390243902439025,-0.5487804878048781,16.76829268292683
11_34_33_589,-5.0,-2.0,-6.0,-4.0,-4.0,-3.0,12.0,-1.0,0.822265625,-0.35205078125,0.35791015625,16.34146341463415,14.451219512195124,24.207317073170735
11_34_33_589,0.0,7.0,0.0,11.0,9.0,-7.0,-12.0,-1.0,0.86767578125,-0.33837890625,0.3662109375,26.09756097560976,14.51219512195122,30.426829268292686
11_34_33_589,-4.0,-1.0,-3.0,2.0,-5.0,4.0,-4.0,4.0,0.8740234375,-0.3779296875,0.3720703125,31.03658536585366,11.76829268292683,37.43902439024391
11_34_33_589,4.0,-7.0,1.0,0.0,31.0,23.0,-8.0,6.0,0.8505859375,-0.4287109375,0.3876953125,32.43902439024391,11.951219512195124,44.81707317073171
11_34_33_589,-1.0,-1.0,1.0,-1.0,2.0,-3.0,1.0,-1.0,0.845703125,-0.45556640625,0.42529296875,35.54878048780488,13.719512195121952,54.63414634146342
11_34_33_589,1.0,-6.0,0.0,-2.0,4.0,3.0,-3.0,-1.0,0.85400390625,-0.42578125,0.43359375,35.36585365853659,16.219512195121954,61.585365853658544
11_34_33_589,0.0,2.0,0.0,0.0,-19.0,-4.0,2.0,0.0,0.8720703125,-0.443359375,0.4384765625,31.951219512195124,15.243902439024392,62.37804878048781
11_34_33_589,-1.0,4.0,-4.0,0.0,-3.0,-1.0,-1.0,-5.0,0.880859375,-0.45068359375,0.4921875,27.25609756097561,11.219512195121952,57.50000000000001
11_34_33_630,-1.0,2.0,0.0,4.0,2.0,-4.0,1.0,-3.0,0.87890625,-0.46630859375,0.2802734375,10.548780487804878,-4.573170731707317,-7.439024390243903
11_34_33_630,1.0,3.0,-4.0,-1.0,5.0,9.0,-2.0,0.0,0.87158203125,-0.328125,0.27001953125,5.731707317073171,-10.914634146341465,4.146341463414634
11_34_33_630,-5.0,-4.0,-3.0,-2.0,3.0,5.0,1.0,0.0,0.830078125,-0.3232421875,0.3369140625,9.939024390243903,-11.76829268292683,9.878048780487806
11_34_33_630,0.0,2.0,3.0,-1.0,2.0,-7.0,-5.0,1.0,0.77783203125,-0.36474609375,0.3603515625,9.390243902439025,-0.5487804878048781,16.76829268292683
11_34_33_630,-2.0,-3.0,9.0,2.0,-2.0,-6.0,2.0,1.0,0.822265625,-0.35205078125,0.35791015625,16.34146341463415,14.451219512195124,24.207317073170735
11_34_33_630,-4.0,1.0,-7.0,2.0,-6.0,-1.0,-3.0,-1.0,0.86767578125,-0.33837890625,0.3662109375,26.09756097560976,14.51219512195122,30.426829268292686
11_34_33_630,-1.0,3.0,-6.0,1.0,-3.0,0.0,0.0,0.0,0.8740234375,-0.3779296875,0.3720703125,31.03658536585366,11.76829268292683,37.43902439024391
11_34_33_630,-3.0,1.0,1.0,-3.0,-6.0,-3.0,-2.0,-3.0,0.8505859375,-0.4287109375,0.3876953125,32.43902439024391,11.951219512195124,44.81707317073171
11_34_33_630,0.0,-5.0,4.0,0.0,2.0,-2.0,2.0,2.0,0.845703125,-0.45556640625,0.42529296875,35.54878048780488,13.719512195121952,54.63414634146342
11_34_33_694,2.0,3.0,-5.0,-3.0,5.0,4.0,-1.0,-1.0,0.84423828125,-0.4306640625,0.32373046875,16.646341463414636,-3.9024390243902443,-5.548780487804878
11_34_33_694,2.0,1.0,-4.0,4.0,3.0,0.0,-1.0,-1.0,0.87890625,-0.46630859375,0.2802734375,10.548780487804878,-4.573170731707317,-7.439024390243903
11_34_33_694,-4.0,-4.0,1.0,-13.0,-3.0,-8.0,2.0,2.0,0.87158203125,-0.328125,0.27001953125,5.731707317073171,-10.914634146341465,4.146341463414634
11_34_33_694,-1.0,2.0,0.0,4.0,2.0,-4.0,1.0,-3.0,0.830078125,-0.3232421875,0.3369140625,9.939024390243903,-11.76829268292683,9.878048780487806
11_34_33_694,1.0,3.0,-4.0,-1.0,5.0,9.0,-2.0,0.0,0.77783203125,-0.36474609375,0.3603515625,9.390243902439025,-0.5487804878048781,16.76829268292683
11_34_33_694,-5.0,-4.0,-3.0,-2.0,3.0,5.0,1.0,0.0,0.822265625,-0.35205078125,0.35791015625,16.34146341463415,14.451219512195124,24.207317073170735
11_34_33_694,0.0,2.0,3.0,-1.0,2.0,-7.0,-5.0,1.0,0.86767578125,-0.33837890625,0.3662109375,26.09756097560976,14.51219512195122,30.426829268292686
11_34_33_694,-2.0,-3.0,9.0,2.0,-2.0,-6.0,2.0,1.0,0.8740234375,-0.3779296875,0.3720703125,31.03658536585366,11.76829268292683,37.43902439024391
11_34_33_694,-4.0,1.0,-7.0,2.0,-6.0,-1.0,-3.0,-1.0,0.8505859375,-0.4287109375,0.3876953125,32.43902439024391,11.951219512195124,44.81707317073171
11_34_33_694,-1.0,3.0,-6.0,1.0,-3.0,0.0,0.0,0.0,0.845703125,-0.45556640625,0.42529296875,35.54878048780488,13.719512195121952,54.63414634146342
11_34_33_731,-1.0,0.0,-3.0,-1.0,-7.0,-7.0,2.0,-2.0,0.79296875,-0.39794921875,0.40087890625,5.670731707317073,-4.817073170731708,-19.207317073170735
11_34_33_731,-1.0,-5.0,0.0,-3.0,2.0,-2.0,-3.0,0.0,0.8154296875,-0.4287109375,0.388671875,10.0,-5.914634146341464,-18.170731707317074
11_34_33_731,-1.0,3.0,-4.0,8.0,4.0,5.0,-1.0,-3.0,0.83447265625,-0.43603515625,0.3515625,3.7195121951219514,-11.646341463414634,-15.731707317073171
11_34_33_731,-3.0,0.0,-18.0,-2.0,0.0,2.0,-3.0,1.0,0.81201171875,-0.3671875,0.3017578125,9.146341463414634,-13.902439024390246,-12.74390243902439
11_34_33_731,-5.0,-3.0,-10.0,-8.0,-10.0,-4.0,-1.0,-6.0,0.79150390625,-0.34130859375,0.3349609375,19.32926829268293,-9.634146341463415,-9.695121951219512
11_34_33_731,-2.0,-2.0,-3.0,-2.0,-9.0,-9.0,2.0,3.0,0.84423828125,-0.4306640625,0.32373046875,16.646341463414636,-3.9024390243902443,-5.548780487804878
11_34_33_731,0.0,0.0,-7.0,-4.0,-1.0,0.0,2.0,0.0,0.87890625,-0.46630859375,0.2802734375,10.548780487804878,-4.573170731707317,-7.439024390243903
11_34_33_731,2.0,-5.0,-6.0,1.0,3.0,-3.0,1.0,-6.0,0.87158203125,-0.328125,0.27001953125,5.731707317073171,-10.914634146341465,4.146341463414634
11_34_33_731,-1.0,3.0,9.0,2.0,-7.0,2.0,-1.0,0.0,0.830078125,-0.3232421875,0.3369140625,9.939024390243903,-11.76829268292683,9.878048780487806
11_34_33_731,-2.0,-1.0,11.0,-2.0,3.0,1.0,-2.0,-1.0,0.77783203125,-0.36474609375,0.3603515625,9.390243902439025,-0.5487804878048781,16.76829268292683
11_34_33_784,-1.0,-1.0,3.0,-2.0,-5.0,1.0,-1.0,-2.0,0.79296875,-0.39794921875,0.40087890625,5.670731707317073,-4.817073170731708,-19.207317073170735
11_34_33_784,0.0,0.0,-7.0,-3.0,1.0,2.0,-4.0,0.0,0.8154296875,-0.4287109375,0.388671875,10.0,-5.914634146341464,-18.170731707317074
11_34_33_784,1.0,2.0,4.0,-3.0,-2.0,-1.0,-1.0,5.0,0.83447265625,-0.43603515625,0.3515625,3.7195121951219514,-11.646341463414634,-15.731707317073171
11_34_33_784,-3.0,2.0,3.0,1.0,-2.0,-4.0,1.0,2.0,0.81201171875,-0.3671875,0.3017578125,9.146341463414634,-13.902439024390246,-12.74390243902439
11_34_33_784,0.0,0.0,1.0,-4.0,-11.0,-6.0,1.0,-4.0,0.79150390625,-0.34130859375,0.3349609375,19.32926829268293,-9.634146341463415,-9.695121951219512
11_34_33_784,0.0,-5.0,-3.0,-3.0,6.0,3.0,-4.0,-1.0,0.84423828125,-0.4306640625,0.32373046875,16.646341463414636,-3.9024390243902443,-5.548780487804878
11_34_33_784,0.0,-1.0,-1.0,3.0,7.0,5.0,0.0,1.0,0.87890625,-0.46630859375,0.2802734375,10.548780487804878,-4.573170731707317,-7.439024390243903
11_34_33_784,0.0,-3.0,1.0,-2.0,-1.0,-4.0,-2.0,2.0,0.87158203125,-0.328125,0.27001953125,5.731707317073171,-10.914634146341465,4.146341463414634
11_34_33_846,-4.0,4.0,2.0,-1.0,-5.0,-1.0,2.0,-3.0,0.90673828125,-0.431640625,0.419921875,9.939024390243903,-7.621951219512196,-29.26829268292683
11_34_33_846,-1.0,-3.0,-18.0,-7.0,-5.0,-6.0,1.0,-4.0,0.81787109375,-0.40673828125,0.40576171875,7.134146341463415,-6.097560975609756,-23.59756097560976
11_34_33_846,-1.0,-5.0,-5.0,-2.0,6.0,1.0,-3.0,-6.0,0.79296875,-0.39794921875,0.40087890625,5.670731707317073,-4.817073170731708,-19.207317073170735
11_34_33_846,-4.0,-3.0,1.0,5.0,-6.0,0.0,-2.0,-2.0,0.8154296875,-0.4287109375,0.388671875,10.0,-5.914634146341464,-18.170731707317074
11_34_33_846,-1.0,1.0,0.0,-1.0,2.0,-4.0,2.0,-5.0,0.83447265625,-0.43603515625,0.3515625,3.7195121951219514,-11.646341463414634,-15.731707317073171
11_34_33_846,-1.0,-1.0,3.0,-2.0,-5.0,1.0,-1.0,-2.0,0.81201171875,-0.3671875,0.3017578125,9.146341463414634,-13.902439024390246,-12.74390243902439
11_34_33_846,0.0,0.0,-7.0,-3.0,1.0,2.0,-4.0,0.0,0.79150390625,-0.34130859375,0.3349609375,19.32926829268293,-9.634146341463415,-9.695121951219512
11_34_33_846,1.0,2.0,4.0,-3.0,-2.0,-1.0,-1.0,5.0,0.84423828125,-0.4306640625,0.32373046875,16.646341463414636,-3.9024390243902443,-5.548780487804878
11_34_33_846,-3.0,2.0,3.0,1.0,-2.0,-4.0,1.0,2.0,0.87890625,-0.46630859375,0.2802734375,10.548780487804878,-4.573170731707317,-7.439024390243903
11_34_33_884,-3.0,-3.0,1.0,0.0,-1.0,-1.0,-1.0,2.0,0.86474609375,-0.18212890625,0.43408203125,-24.085365853658537,-3.2926829268292686,-25.182926829268293
11_34_33_884,0.0,-4.0,-3.0,0.0,-6.0,-1.0,2.0,-2.0,0.9052734375,-0.19873046875,0.4482421875,-14.085365853658537,-3.7195121951219514,-28.963414634146343
11_34_33_884,2.0,-3.0,-4.0,-2.0,-4.0,-3.0,0.0,3.0,0.951171875,-0.28271484375,0.4638671875,4.085365853658537,-2.987804878048781,-33.65853658536586
11_34_33_884,-1.0,2.0,-5.0,3.0,1.0,3.0,-3.0,0.0,0.95556640625,-0.39111328125,0.453125,11.890243902439025,-5.609756097560976,-33.90243902439025
11_34_33_884,-3.0,-5.0,1.0,1.0,2.0,1.0,0.0,-3.0,0.90673828125,-0.431640625,0.419921875,9.939024390243903,-7.621951219512196,-29.26829268292683
11_34_33_884,1.0,6.0,-3.0,1.0,-4.0,-2.0,2.0,-2.0,0.81787109375,-0.40673828125,0.40576171875,7.134146341463415,-6.097560975609756,-23.59756097560976
11_34_33_884,-1.0,-3.0,2.0,2.0,4.0,-1.0,0.0,3.0,0.79296875,-0.39794921875,0.40087890625,5.670731707317073,-4.817073170731708,-19.207317073170735
11_34_33_884,-4.0,-6.0,-3.0,-7.0,-1.0,0.0,-5.0,-6.0,0.8154296875,-0.4287109375,0.388671875,10.0,-5.914634146341464,-18.170731707317074
11_34_33_938,0.0,-4.0,-1.0,1.0,-9.0,-1.0,6.0,-5.0,0.8017578125,-0.236328125,0.46826171875,-2.987804878048781,5.853658536585367,-19.207317073170735
11_34_33_938,0.0,2.0,3.0,0.0,-3.0,-1.0,-2.0,-2.0,0.822265625,-0.2353515625,0.439453125,-13.841463414634148,3.7195121951219514,-20.914634146341466
11_34_33_938,0.0,-1.0,-5.0,3.0,2.0,-1.0,-3.0,1.0,0.8408203125,-0.220703125,0.43310546875,-24.878048780487806,0.06097560975609757,-23.231707317073173
11_34_33_938,-2.0,-1.0,5.0,1.0,-1.0,-3.0,-1.0,1.0,0.86474609375,-0.18212890625,0.43408203125,-24.085365853658537,-3.2926829268292686,-25.182926829268293
11_34_33_938,-1.0,-1.0,-2.0,0.0,-7.0,-4.0,2.0,-3.0,0.9052734375,-0.19873046875,0.4482421875,-14.085365853658537,-3.7195121951219514,-28.963414634146343
11_34_33_938,-2.0,-1.0,-4.0,-7.0,-5.0,-6.0,2.0,1.0,0.951171875,-0.28271484375,0.4638671875,4.085365853658537,-2.987804878048781,-33.65853658536586
11_34_33_938,-2.0,-5.0,1.0,0.0,1.0,-2.0,-3.0,-6.0,0.95556640625,-0.39111328125,0.453125,11.890243902439025,-5.609756097560976,-33.90243902439025
11_34_33_938,6.0,-1.0,-4.0,3.0,6.0,6.0,-1.0,4.0,0.90673828125,-0.431640625,0.419921875,9.939024390243903,-7.621951219512196,-29.26829268292683
11_34_33_938,-4.0,-5.0,1.0,-7.0,2.0,0.0,3.0,-3.0,0.81787109375,-0.40673828125,0.40576171875,7.134146341463415,-6.097560975609756,-23.59756097560976
11_34_34_001,1.0,0.0,0.0,-6.0,3.0,0.0,-2.0,2.0,0.81591796875,-0.18603515625,0.44091796875,-1.7682926829268295,-2.9268292682926833,-17.682926829268293
11_34_34_001,-3.0,0.0,7.0,-2.0,1.0,-1.0,1.0,1.0,0.798828125,-0.18994140625,0.43359375,0.3658536585365854,1.0365853658536586,-18.353658536585368
11_34_34_001,6.0,6.0,-8.0,4.0,-4.0,1.0,-2.0,-4.0,0.8017578125,-0.236328125,0.46826171875,-2.987804878048781,5.853658536585367,-19.207317073170735
11_34_34_001,-1.0,-3.0,3.0,5.0,-2.0,-5.0,1.0,-1.0,0.822265625,-0.2353515625,0.439453125,-13.841463414634148,3.7195121951219514,-20.914634146341466
11_34_34_001,-3.0,2.0,-7.0,0.0,3.0,-2.0,-4.0,-1.0,0.8408203125,-0.220703125,0.43310546875,-24.878048780487806,0.06097560975609757,-23.231707317073173
11_34_34_001,-2.0,2.0,5.0,-4.0,0.0,-1.0,-3.0,1.0,0.86474609375,-0.18212890625,0.43408203125,-24.085365853658537,-3.2926829268292686,-25.182926829268293
11_34_34_001,0.0,-4.0,-1.0,1.0,-9.0,-1.0,6.0,-5.0,0.9052734375,-0.19873046875,0.4482421875,-14.085365853658537,-3.7195121951219514,-28.963414634146343
11_34_34_001,0.0,2.0,3.0,0.0,-3.0,-1.0,-2.0,-2.0,0.951171875,-0.28271484375,0.4638671875,4.085365853658537,-2.987804878048781,-33.65853658536586
11_34_34_001,0.0,-1.0,-5.0,3.0,2.0,-1.0,-3.0,1.0,0.95556640625,-0.39111328125,0.453125,11.890243902439025,-5.609756097560976,-33.90243902439025
11_34_34_038,0.0,0.0,-11.0,-7.0,0.0,0.0,-7.0,2.0,0.833984375,-0.19775390625,0.44189453125,-10.975609756097562,-1.6463414634146343,-14.51219512195122
11_34_34_038,-4.0,-1.0,6.0,3.0,-9.0,-6.0,-1.0,0.0,0.83349609375,-0.193359375,0.451171875,-8.536585365853659,-3.9024390243902443,-15.975609756097562
11_34_34_038,-3.0,5.0,-3.0,1.0,2.0,1.0,-1.0,-1.0,0.81591796875,-0.18603515625,0.44091796875,-1.7682926829268295,-2.9268292682926833,-17.682926829268293
11_34_34_038,-1.0,1.0,-11.0,-5.0,-4.0,-1.0,1.0,-6.0,0.798828125,-0.18994140625,0.43359375,0.3658536585365854,1.0365853658536586,-18.353658536585368
11_34_34_038,-1.0,0.0,-10.0,2.0,4.0,0.0,1.0,4.0,0.8017578125,-0.236328125,0.46826171875,-2.987804878048781,5.853658536585367,-19.207317073170735
11_34_34_038,-4.0,2.0,-1.0,2.0,-6.0,-2.0,2.0,-5.0,0.822265625,-0.2353515625,0.439453125,-13.841463414634148,3.7195121951219514,-20.914634146341466
11_34_34_038,1.0,-1.0,-2.0,-3.0,1.0,2.0,0.0,2.0,0.8408203125,-0.220703125,0.43310546875,-24.878048780487806,0.06097560975609757,-23.231707317073173
11_34_34_038,1.0,0.0,0.0,-6.0,3.0,0.0,-2.0,2.0,0.86474609375,-0.18212890625,0.43408203125,-24.085365853658537,-3.2926829268292686,-25.182926829268293
11_34_34_038,-3.0,0.0,7.0,-2.0,1.0,-1.0,1.0,1.0,0.9052734375,-0.19873046875,0.4482421875,-14.085365853658537,-3.7195121951219514,-28.963414634146343
11_34_34_038,6.0,6.0,-8.0,4.0,-4.0,1.0,-2.0,-4.0,0.951171875,-0.28271484375,0.4638671875,4.085365853658537,-2.987804878048781,-33.65853658536586
11_34_34_097,-5.0,-4.0,-6.0,-4.0,1.0,-4.0,-3.0,4.0,0.8125,-0.20849609375,0.4248046875,-23.84146341463415,-3.9024390243902443,-13.29268292682927
11_34_34_097,-1.0,4.0,1.0,-1.0,-12.0,-4.0,2.0,-4.0,0.818359375,-0.20458984375,0.42138671875,-25.0609756097561,-2.8658536585365857,-12.926829268292684
