Application:, Trigno Discover (2.0.1.2)
Date/Time:, 5/14/2025 12:05:22 PM
Collection Length (seconds):, 43.7805
Forearm 2 (83169), , , , , , , , Forearm 1 (82633), , , , , , , , Biceps (83254), , , , , , , , Triceps (83087)
sensor mode: 45, , , , , , , , sensor mode: 45, , , , , , , , sensor mode: 45, , , , , , , , sensor mode: 45
EMG 1 Time Series (s), EMG 1 (mV), ACC X Time Series (s), ACC X (G), ACC Y Time Series (s), ACC Y (G), ACC Z Time Series (s), ACC Z (G), EMG 1 Time Series (s), EMG 1 (mV), ACC X Time Series (s), ACC X (G), ACC Y Time Series (s), ACC Y (G), ACC Z Time Series (s), ACC Z (G), EMG 1 Time Series (s), EMG 1 (mV), ACC X Time Series (s), ACC X (G), ACC Y Time Series (s), ACC Y (G), ACC Z Time Series (s), ACC Z (G), EMG 1 Time Series (s), EMG 1 (mV), ACC X Time Series (s), ACC X (G), ACC Y Time Series (s), ACC Y (G), ACC Z Time Series (s), ACC Z (G)
, 1925.9259 Hz, , 74.0741 Hz, , 74.0741 Hz, , 74.0741 Hz, , 1925.9259 Hz, , 74.0741 Hz, , 74.0741 Hz, , 74.0741 Hz, , 1925.9259 Hz, , 74.0741 Hz, , 74.0741 Hz, , 74.0741 Hz, , 1925.9259 Hz, , 74.0741 Hz, , 74.0741 Hz, , 74.0741 Hz
, 0.0005192307692307692 s, , 0.0135 s, , 0.0135 s, , 0.0135 s, , 0.0005192307692307692 s, , 0.0135 s, , 0.0135 s, , 0.0135 s, , 0.0005192307692307692 s, , 0.0135 s, , 0.0135 s, , 0.0135 s, , 0.0005192307692307692 s, , 0.0135 s, , 0.0135 s, , 0.0135 s, , Type, Name, Label, Time (s), , Pair, E1, E2, T1, T2, V1, V2, Sensor, Channel, Units, Delta T, RMS, PKPK, Peak Value, TPK, Integral
0, 0.0206455, 0, -0.2192383, 0, -0.980957, 0, 0.1572266, 0, -0.0075532, 0, 0.3286133, 0, -0.9262695, 0, -0.2407227, 0, -0.0130922, 0, 0.2084961, 0, -0.9921875, 0, -0.0371094, 0, -0.0015106, 0, -0.1264648, 0, -0.9868164, 0, 0.0991211, , , , , , , , , , , , , , , , , , , , , , 
0.0005192, 0.0146029, 0.0135, -0.2163086, 0.0135, -0.9848633, 0.0135, 0.1582031, 0.0005192, -0.0065461, 0.0135, 0.3310547, 0.0135, -0.9311523, 0.0135, -0.2407227, 0.0005192, -0.0105745, 0.0135, 0.2080078, 0.0135, -0.9936523, 0.0135, -0.0356445, 0.0005192, 0.0001678, 0.0135, -0.1269531, 0.0135, -0.9868164, 0.0135, 0.0981445, , , , , , , , , , , , , , , , , , , , , , 
0.0010385, 0.0102388, 0.027, -0.2211914, 0.027, -0.9829102, 0.027, 0.1616211, 0.0010385, -0.0038605, 0.027, 0.3237305, 0.027, -0.9326172, 0.027, -0.2441406, 0.0010385, -0.0082246, 0.027, 0.2075195, 0.027, -0.9936523, 0.027, -0.0332031, 0.0010385, -0.0011749, 0.027, -0.1313477, 0.027, -0.987793, 0.027, 0.0947266, , , , , , , , , , , , , , , , , , , , , , 
0.0015577, 0.0025177, 0.0405, -0.2211914, 0.0405, -0.9829102, 0.0405, 0.1625977, 0.0015577, -0.0023499, 0.0405, 0.3212891, 0.0405, -0.9291992, 0.0405, -0.2490234, 0.0015577, -0.0082246, 0.0405, 0.2075195, 0.0405, -0.9907227, 0.0405, -0.0341797, 0.0015577, -0.0008392, 0.0405, -0.1352539, 0.0405, -0.984375, 0.0405, 0.1000977, , , , , , , , , , , , , , , , , , , , , , 
0.0020769, -0.0028534, 0.054, -0.2207031, 0.054, -0.9829102, 0.054, 0.1601562, 0.0020769, -0.0035248, 0.054, 0.3286133, 0.054, -0.9243164, 0.054, -0.2470703, 0.0020769, -0.0099031, 0.054, 0.2045898, 0.054, -0.9921875, 0.054, -0.0380859, 0.0020769, 0.0025177, 0.054, -0.1323242, 0.054, -0.9824219, 0.054, 0.097168, , , , , , , , , , , , , , , , , , , , , , 
0.0025962, -0.0048676, 0.0675, -0.2182617, 0.0675, -0.9819336, 0.0675, 0.1582031, 0.0025962, -0.0077211, 0.0675, 0.3325195, 0.0675, -0.9238281, 0.0675, -0.2402344, 0.0025962, -0.010071, 0.0675, 0.1967773, 0.0675, -0.9926758, 0.0675, -0.0405273, 0.0025962, 0.0068818, 0.0675, -0.128418, 0.0675, -0.9848633, 0.0675, 0.0976562, , , , , , , , , , , , , , , , , , , , , , 
0.0031154, -0.005539, 0.081, -0.2143555, 0.081, -0.9833984, 0.081, 0.1572266, 0.0031154, -0.0102388, 0.081, 0.3286133, 0.081, -0.9262695, 0.081, -0.2382812, 0.0031154, -0.0062104, 0.081, 0.2021484, 0.081, -0.9916992, 0.081, -0.0415039, 0.0031154, 0.0105745, 0.081, -0.125, 0.081, -0.9873047, 0.081, 0.0996094, , , , , , , , , , , , , , , , , , , , , , 
0.0036346, -0.0129244, 0.0945, -0.2202148, 0.0945, -0.984375, 0.0945, 0.1572266, 0.0036346, -0.0102388, 0.0945, 0.3251953, 0.0945, -0.9277344, 0.0945, -0.2421875, 0.0036346, -0.0023499, 0.0945, 0.2124023, 0.0945, -0.9941406, 0.0945, -0.0371094, 0.0036346, 0.01561, 0.0945, -0.1264648, 0.0945, -0.9916992, 0.0945, 0.097168, , , , , , , , , , , , , , , , , , , , , , 
0.0041538, -0.0223239, 0.108, -0.2294922, 0.108, -0.9892578, 0.108, 0.1577148, 0.0041538, -0.008896, 0.108, 0.3217773, 0.108, -0.9331055, 0.108, -0.2421875, 0.0041538, -0.0008392, 0.108, 0.206543, 0.108, -0.9960938, 0.108, -0.0317383, 0.0041538, 0.0169528, 0.108, -0.1342773, 0.108, -0.9921875, 0.108, 0.097168, , , , , , , , , , , , , , , , , , , , , , 
0.0046731, -0.0280308, 0.1215, -0.2294922, 0.1215, -0.9882812, 0.1215, 0.1591797, 0.0046731, -0.0075532, 0.1215, 0.3208008, 0.1215, -0.9355469, 0.1215, -0.2436523, 0.0046731, -0.0011749, 0.1215, 0.1992188, 0.1215, -0.9995117, 0.1215, -0.0341797, 0.0046731, 0.0169528, 0.1215, -0.1352539, 0.1215, -0.9887695, 0.1215, 0.0942383, , , , , , , , , , , , , , , , , , , , , , 
0.0051923, -0.0280308, 0.135, -0.2265625, 0.135, -0.984375, 0.135, 0.1601562, 0.0051923, -0.005539, 0.135, 0.3251953, 0.135, -0.9316406, 0.135, -0.2426758, 0.0051923, -0.002182, 0.135, 0.1982422, 0.135, -0.9985352, 0.135, -0.0361328, 0.0051923, 0.0179599, 0.135, -0.1264648, 0.135, -0.9912109, 0.135, 0.0927734, , , , , , , , , , , , , , , , , , , , , , 
0.0057115, -0.0253452, 0.1485, -0.2246094, 0.1485, -0.9814453, 0.1485, 0.1567383, 0.0057115, -0.005539, 0.1485, 0.3310547, 0.1485, -0.9272461, 0.1485, -0.2392578, 0.0057115, 0.0001678, 0.1485, 0.1982422, 0.1485, -0.9980469, 0.1485, -0.0375977, 0.0057115, 0.0194705, 0.1485, -0.1279297, 0.1485, -0.9863281, 0.1485, 0.1010742, , , , , , , , , , , , , , , , , , , , , , 
0.0062308, -0.0213169, 0.162, -0.2167969, 0.162, -0.9833984, 0.162, 0.1577148, 0.0062308, -0.005539, 0.162, 0.3325195, 0.162, -0.9291992, 0.162, -0.2373047, 0.0062308, 0.0010071, 0.162, 0.2001953, 0.162, -0.9946289, 0.162, -0.0439453, 0.0062308, 0.0186313, 0.162, -0.137207, 0.162, -0.9853516, 0.162, 0.1020508, , , , , , , , , , , , , , , , , , , , , , 
0.00675, -0.0115816, 0.1755, -0.2138672, 0.1755, -0.9814453, 0.1755, 0.1586914, 0.00675, -0.0068818, 0.1755, 0.3266602, 0.1755, -0.9282227, 0.1755, -0.2446289, 0.00675, -0.0008392, 0.1755, 0.203125, 0.1755, -0.9916992, 0.1755, -0.0405273, 0.00675, 0.017792, 0.1755, -0.1328125, 0.1755, -0.9858398, 0.1755, 0.0981445, , , , , , , , , , , , , , , , , , , , , , 
0.0072692, 0.0015106, 0.189, -0.2216797, 0.189, -0.980957, 0.189, 0.1547852, 0.0072692, -0.0095674, 0.189, 0.3251953, 0.189, -0.9257812, 0.189, -0.2421875, 0.0072692, -0.0038605, 0.189, 0.2045898, 0.189, -0.9897461, 0.189, -0.0356445, 0.0072692, 0.0186313, 0.189, -0.1342773, 0.189, -0.9804688, 0.189, 0.0927734, , , , , , , , , , , , , , , , , , , , , , 
0.0077885, 0.012253, 0.2025, -0.2236328, 0.2025, -0.9824219, 0.2025, 0.1533203, 0.0077885, -0.0102388, 0.2025, 0.324707, 0.2025, -0.9272461, 0.2025, -0.2421875, 0.0077885, -0.0063783, 0.2025, 0.1972656, 0.2025, -0.9912109, 0.2025, -0.0351562, 0.0077885, 0.0179599, 0.2025, -0.1333008, 0.2025, -0.9804688, 0.2025, 0.0927734, , , , , , , , , , , , , , , , , , , , , , 
0.0083077, 0.0102388, 0.216, -0.222168, 0.216, -0.984375, 0.216, 0.15625, 0.0083077, -0.0082246, 0.216, 0.3212891, 0.216, -0.9277344, 0.216, -0.2431641, 0.0083077, -0.0068818, 0.216, 0.2001953, 0.216, -0.9936523, 0.216, -0.0419922, 0.0083077, 0.0149386, 0.216, -0.1318359, 0.216, -0.9824219, 0.216, 0.0952148, , , , , , , , , , , , , , , , , , , , , , 
0.0088269, 0.0105745, 0.2295, -0.2255859, 0.2295, -0.9838867, 0.2295, 0.1533203, 0.0088269, -0.0070497, 0.2295, 0.3168945, 0.2295, -0.9296875, 0.2295, -0.2421875, 0.0088269, -0.0062104, 0.2295, 0.2041016, 0.2295, -0.9926758, 0.2295, -0.0454102, 0.0088269, 0.0129244, 0.2295, -0.1201172, 0.2295, -0.9921875, 0.2295, 0.0942383, , , , , , , , , , , , , , , , , , , , , , 
0.0093462, 0.0162814, 0.243, -0.21875, 0.243, -0.9863281, 0.243, 0.152832, 0.0093462, -0.0065461, 0.243, 0.3232422, 0.243, -0.9335938, 0.243, -0.2421875, 0.0093462, -0.0068818, 0.243, 0.2050781, 0.243, -0.9936523, 0.243, -0.0439453, 0.0093462, 0.0132601, 0.243, -0.121582, 0.243, -0.9887695, 0.243, 0.0957031, , , , , , , , , , , , , , , , , , , , , , 
0.0098654, 0.0172885, 0.2565, -0.2158203, 0.2565, -0.9829102, 0.2565, 0.1547852, 0.0098654, -0.0068818, 0.2565, 0.328125, 0.2565, -0.9287109, 0.2565, -0.2402344, 0.0098654, -0.0062104, 0.2565, 0.2055664, 0.2565, -0.9912109, 0.2565, -0.0415039, 0.0098654, 0.0132601, 0.2565, -0.1269531, 0.2565, -0.9873047, 0.2565, 0.0957031, , , , , , , , , , , , , , , , , , , , , , 
0.0103846, 0.0132601, 0.27, -0.2202148, 0.27, -0.9814453, 0.27, 0.1513672, 0.0103846, -0.0078889, 0.27, 0.3256836, 0.27, -0.9243164, 0.27, -0.2392578, 0.0103846, -0.0058747, 0.27, 0.2045898, 0.27, -0.9902344, 0.27, -0.0385742, 0.0103846, 0.0115816, 0.27, -0.1279297, 0.27, -0.9868164, 0.27, 0.0922852, , , , , , , , , , , , , , , , , , , , , , 
0.0109038, 0.0127565, 0.2835, -0.2197266, 0.2835, -0.9824219, 0.2835, 0.1489258, 0.0109038, -0.0082246, 0.2835, 0.3276367, 0.2835, -0.9301758, 0.2835, -0.234375, 0.0109038, -0.0058747, 0.2835, 0.2016602, 0.2835, -0.9921875, 0.2835, -0.0375977, 0.0109038, 0.008896, 0.2835, -0.1386719, 0.2835, -0.9853516, 0.2835, 0.0952148, , , , , , , , , , , , , , , , , , , , , , 
0.0114231, 0.0179599, 0.297, -0.2158203, 0.297, -0.9858398, 0.297, 0.1508789, 0.0114231, -0.0062104, 0.297, 0.3227539, 0.297, -0.9316406, 0.297, -0.2368164, 0.0114231, -0.0048676, 0.297, 0.1943359, 0.297, -0.9960938, 0.297, -0.0415039, 0.0114231, 0.0068818, 0.297, -0.1367188, 0.297, -0.9882812, 0.297, 0.0942383, , , , , , , , , , , , , , , , , , , , , , 
0.0119423, 0.0209812, 0.3105, -0.2226562, 0.3105, -0.9887695, 0.3105, 0.152832, 0.0119423, -0.0048676, 0.3105, 0.3222656, 0.3105, -0.9345703, 0.3105, -0.2338867, 0.0119423, -0.0041962, 0.3105, 0.199707, 0.3105, -1.0009766, 0.3105, -0.0390625, 0.0119423, 0.0068818, 0.3105, -0.1225586, 0.3105, -0.9907227, 0.3105, 0.0932617, , , , , , , , , , , , , , , , , , , , , , 
0.0124615, 0.0182956, 0.324, -0.2294922, 0.324, -0.9873047, 0.324, 0.1450195, 0.0124615, -0.005539, 0.324, 0.3237305, 0.324, -0.9375, 0.324, -0.2329102, 0.0124615, -0.0041962, 0.324, 0.2045898, 0.324, -0.996582, 0.324, -0.0385742, 0.0124615, 0.0082246, 0.324, -0.125, 0.324, -0.9887695, 0.324, 0.0908203, , , , , , , , , , , , , , , , , , , , , , 
0.0129808, 0.0159457, 0.3375, -0.2260742, 0.3375, -0.987793, 0.3375, 0.1469727, 0.0129808, -0.0068818, 0.3375, 0.3227539, 0.3375, -0.9375, 0.3375, -0.2358398, 0.0129808, -0.0041962, 0.3375, 0.2075195, 0.3375, -0.9921875, 0.3375, -0.0429688, 0.0129808, 0.0090639, 0.3375, -0.1235352, 0.3375, -0.9863281, 0.3375, 0.09375, , , , , , , , , , , , , , , , , , , , , , 
0.0135, 0.0169528, 0.351, -0.2167969, 0.351, -0.9853516, 0.351, 0.1547852, 0.0135, -0.0083925, 0.351, 0.3168945, 0.351, -0.9326172, 0.351, -0.2412109, 0.0135, -0.0048676, 0.351, 0.2089844, 0.351, -0.9936523, 0.351, -0.0424805, 0.0135, 0.0092317, 0.351, -0.121582, 0.351, -0.9921875, 0.351, 0.0966797, , , , , , , , , , , , , , , , , , , , , , 
0.0140192, 0.0164492, 0.3645, -0.2197266, 0.3645, -0.9838867, 0.3645, 0.152832, 0.0140192, -0.0082246, 0.3645, 0.3227539, 0.3645, -0.9321289, 0.3645, -0.2402344, 0.0140192, -0.0063783, 0.3645, 0.1972656, 0.3645, -0.9926758, 0.3645, -0.0385742, 0.0140192, 0.008896, 0.3645, -0.1328125, 0.3645, -0.9838867, 0.3645, 0.0986328, , , , , , , , , , , , , , , , , , , , , , 
0.0145385, 0.0186313, 0.378, -0.2211914, 0.378, -0.9829102, 0.378, 0.1489258, 0.0145385, -0.0082246, 0.378, 0.3242188, 0.378, -0.9326172, 0.378, -0.2387695, 0.0145385, -0.0065461, 0.378, 0.1928711, 0.378, -0.9907227, 0.378, -0.0415039, 0.0145385, 0.0095674, 0.378, -0.1357422, 0.378, -0.980957, 0.378, 0.0986328, , , , , , , , , , , , , , , , , , , , , , 
0.0150577, 0.0224918, 0.3915, -0.2202148, 0.3915, -0.9804688, 0.3915, 0.152832, 0.0150577, -0.008896, 0.3915, 0.3188477, 0.3915, -0.9277344, 0.3915, -0.2368164, 0.0150577, -0.005539, 0.3915, 0.1972656, 0.3915, -0.9921875, 0.3915, -0.0410156, 0.0150577, 0.011078, 0.3915, -0.1333008, 0.3915, -0.9873047, 0.3915, 0.097168, , , , , , , , , , , , , , , , , , , , , , 
0.0155769, 0.0243381, 0.405, -0.2265625, 0.405, -0.9785156, 0.405, 0.1503906, 0.0155769, -0.0095674, 0.405, 0.3193359, 0.405, -0.925293, 0.405, -0.2348633, 0.0155769, -0.0052033, 0.405, 0.1987305, 0.405, -0.9926758, 0.405, -0.0375977, 0.0155769, 0.0099031, 0.405, -0.128418, 0.405, -0.984375, 0.405, 0.0966797, , , , , , , , , , , , , , , , , , , , , , 
0.0160962, 0.0290379, 0.4185, -0.222168, 0.4185, -0.9833984, 0.4185, 0.1459961, 0.0160962, -0.0109102, 0.4185, 0.3261719, 0.4185, -0.9272461, 0.4185, -0.2358398, 0.0160962, -0.0075532, 0.4185, 0.1972656, 0.4185, -0.9916992, 0.4185, -0.0380859, 0.0160962, 0.0065461, 0.4185, -0.1333008, 0.4185, -0.9804688, 0.4185, 0.0932617, , , , , , , , , , , , , , , , , , , , , , 
0.0166154, 0.0374304, 0.432, -0.2167969, 0.432, -0.9838867, 0.432, 0.1503906, 0.0166154, -0.0119173, 0.432, 0.3212891, 0.432, -0.9311523, 0.432, -0.2348633, 0.0166154, -0.0097353, 0.432, 0.1967773, 0.432, -0.9897461, 0.432, -0.0429688, 0.0166154, 0.0045319, 0.432, -0.1293945, 0.432, -0.984375, 0.432, 0.0922852, , , , , , , , , , , , , , , , , , , , , , 
0.0171346, 0.0411231, 0.4455, -0.2192383, 0.4455, -0.9814453, 0.4455, 0.1499023, 0.0171346, -0.0124208, 0.4455, 0.3178711, 0.4455, -0.934082, 0.4455, -0.237793, 0.0171346, -0.0109102, 0.4455, 0.2055664, 0.4455, -0.9902344, 0.4455, -0.0385742, 0.0171346, 0.0038605, 0.4455, -0.1196289, 0.4455, -0.9902344, 0.4455, 0.0932617, , , , , , , , , , , , , , , , , , , , , , 
0.0176538, 0.0374304, 0.459, -0.222168, 0.459, -0.980957, 0.459, 0.1513672, 0.0176538, -0.0115816, 0.459, 0.3168945, 0.459, -0.9277344, 0.459, -0.2416992, 0.0176538, -0.0099031, 0.459, 0.2075195, 0.459, -0.9946289, 0.459, -0.034668, 0.0176538, 0.0023499, 0.459, -0.1274414, 0.459, -0.9882812, 0.459, 0.0961914, , , , , , , , , , , , , , , , , , , , , , 
0.0181731, 0.0344091, 0.4725, -0.222168, 0.4725, -0.9873047, 0.4725, 0.1523438, 0.0181731, -0.0115816, 0.4725, 0.3173828, 0.4725, -0.9282227, 0.4725, -0.246582, 0.0181731, -0.0102388, 0.4725, 0.2016602, 0.4725, -0.9946289, 0.4725, -0.0371094, 0.0181731, -0.0001678, 0.4725, -0.1328125, 0.4725, -0.984375, 0.4725, 0.0947266, , , , , , , , , , , , , , , , , , , , , , 
0.0186923, 0.0320592, 0.486, -0.2202148, 0.486, -0.9868164, 0.486, 0.15625, 0.0186923, -0.0112459, 0.486, 0.3203125, 0.486, -0.9306641, 0.486, -0.2392578, 0.0186923, -0.0109102, 0.486, 0.2045898, 0.486, -0.9907227, 0.486, -0.043457, 0.0186923, -0.0015106, 0.486, -0.125, 0.486, -0.9863281, 0.486, 0.0952148, , , , , , , , , , , , , , , , , , , , , , 
0.0192115, 0.0317235, 0.4995, -0.2172852, 0.4995, -0.9755859, 0.4995, 0.1499023, 0.0192115, -0.0115816, 0.4995, 0.3222656, 0.4995, -0.9301758, 0.4995, -0.2363281, 0.0192115, -0.0090639, 0.4995, 0.2011719, 0.4995, -0.9907227, 0.4995, -0.0463867, 0.0192115, -0.0005035, 0.4995, -0.125, 0.4995, -0.9833984, 0.4995, 0.0976562, , , , , , , , , , , , , , , , , , , , , , 
0.0197308, 0.0287022, 0.513, -0.2143555, 0.513, -0.9799805, 0.513, 0.1489258, 0.0197308, -0.011078, 0.513, 0.3286133, 0.513, -0.9233398, 0.513, -0.2387695, 0.0197308, -0.0085603, 0.513, 0.1962891, 0.513, -0.9921875, 0.513, -0.0419922, 0.0197308, 0.0035248, 0.513, -0.1323242, 0.513, -0.9858398, 0.513, 0.0991211, , , , , , , , , , , , , , , , , , , , , , 
0.02025, 0.0203098, 0.5265, -0.2167969, 0.5265, -0.9897461, 0.5265, 0.1523438, 0.02025, -0.011078, 0.5265, 0.3251953, 0.5265, -0.9316406, 0.5265, -0.2387695, 0.02025, -0.0117494, 0.5265, 0.1972656, 0.5265, -0.9941406, 0.5265, -0.0419922, 0.02025, 0.0092317, 0.5265, -0.1328125, 0.5265, -0.9868164, 0.5265, 0.0947266, , , , , , , , , , , , , , , , , , , , , , 
0.0207692, 0.0166171, 0.54, -0.2236328, 0.54, -0.987793, 0.54, 0.1508789, 0.0207692, -0.011078, 0.54, 0.3125, 0.54, -0.9384766, 0.54, -0.2407227, 0.0207692, -0.0137636, 0.54, 0.199707, 0.54, -0.9975586, 0.54, -0.0390625, 0.0207692, 0.01561, 0.54, -0.1274414, 0.54, -0.9907227, 0.54, 0.0913086, , , , , , , , , , , , , , , , , , , , , , 
0.0212885, 0.0179599, 0.5535, -0.2290039, 0.5535, -0.9873047, 0.5535, 0.1469727, 0.0212885, -0.0097353, 0.5535, 0.3134766, 0.5535, -0.9375, 0.5535, -0.2412109, 0.0212885, -0.0129244, 0.5535, 0.1972656, 0.5535, -1.0014648, 0.5535, -0.0361328, 0.0212885, 0.0213169, 0.5535, -0.1274414, 0.5535, -0.9897461, 0.5535, 0.0917969, , , , , , , , , , , , , , , , , , , , , , 
0.0218077, 0.0109102, 0.567, -0.222168, 0.567, -0.9892578, 0.567, 0.152832, 0.0218077, -0.0085603, 0.567, 0.3217773, 0.567, -0.9335938, 0.567, -0.2407227, 0.0218077, -0.0129244, 0.567, 0.2011719, 0.567, -0.9985352, 0.567, -0.0380859, 0.0218077, 0.0226596, 0.567, -0.1274414, 0.567, -0.9907227, 0.567, 0.0957031, , , , , , , , , , , , , , , , , , , , , , 
0.0223269, -0.0001678, 0.5805, -0.2138672, 0.5805, -0.9833984, 0.5805, 0.1572266, 0.0223269, -0.0078889, 0.5805, 0.3242188, 0.5805, -0.9321289, 0.5805, -0.2412109, 0.0223269, -0.0129244, 0.5805, 0.2109375, 0.5805, -0.9931641, 0.5805, -0.0390625, 0.0223269, 0.023331, 0.5805, -0.1225586, 0.5805, -0.9936523, 0.5805, 0.0976562, , , , , , , , , , , , , , , , , , , , , , 
0.0228462, -0.0115816, 0.594, -0.2143555, 0.594, -0.984375, 0.594, 0.1547852, 0.0228462, -0.0062104, 0.594, 0.3251953, 0.594, -0.9311523, 0.594, -0.2407227, 0.0228462, -0.0125887, 0.594, 0.2094727, 0.594, -0.9936523, 0.594, -0.0361328, 0.0228462, 0.0271916, 0.594, -0.1313477, 0.594, -0.987793, 0.594, 0.0986328, , , , , , , , , , , , , , , , , , , , , , 
0.0233654, -0.0157778, 0.6075, -0.2128906, 0.6075, -0.9824219, 0.6075, 0.1538086, 0.0233654, -0.0052033, 0.6075, 0.3286133, 0.6075, -0.9296875, 0.6075, -0.2416992, 0.0233654, -0.012253, 0.6075, 0.1987305, 0.6075, -0.9897461, 0.6075, -0.0332031, 0.0233654, 0.0307164, 0.6075, -0.1386719, 0.6075, -0.9814453, 0.6075, 0.0976562, , , , , , , , , , , , , , , , , , , , , , 
0.0238846, -0.014435, 0.621, -0.2114258, 0.621, -0.9794922, 0.621, 0.15625, 0.0238846, -0.005539, 0.621, 0.3198242, 0.621, -0.9262695, 0.621, -0.2426758, 0.0238846, -0.0109102, 0.621, 0.1958008, 0.621, -0.9853516, 0.621, -0.0380859, 0.0238846, 0.0305486, 0.621, -0.1357422, 0.621, -0.9829102, 0.621, 0.0966797, , , , , , , , , , , , , , , , , , , , , , 
0.0244038, -0.0117494, 0.6345, -0.2133789, 0.6345, -0.9775391, 0.6345, 0.1577148, 0.0244038, -0.0058747, 0.6345, 0.3193359, 0.6345, -0.9233398, 0.6345, -0.2446289, 0.0244038, -0.0095674, 0.6345, 0.1977539, 0.6345, -0.9907227, 0.6345, -0.0361328, 0.0244038, 0.0307164, 0.6345, -0.1381836, 0.6345, -0.9824219, 0.6345, 0.0957031, , , , , , , , , , , , , , , , , , , , , , 
0.0249231, -0.012253, 0.648, -0.2216797, 0.648, -0.9790039, 0.648, 0.1538086, 0.0249231, -0.005539, 0.648, 0.3203125, 0.648, -0.925293, 0.648, -0.2441406, 0.0249231, -0.0082246, 0.648, 0.1958008, 0.648, -0.9921875, 0.648, -0.0351562, 0.0249231, 0.0325628, 0.648, -0.1416016, 0.648, -0.9848633, 0.648, 0.0961914, , , , , , , , , , , , , , , , , , , , , , 
0.0254423, -0.012253, 0.6615, -0.2285156, 0.6615, -0.9785156, 0.6615, 0.1552734, 0.0254423, -0.0035248, 0.6615, 0.3212891, 0.6615, -0.9267578, 0.6615, -0.2412109, 0.0254423, -0.0078889, 0.6615, 0.1967773, 0.6615, -0.9951172, 0.6615, -0.0356445, 0.0254423, 0.0330663, 0.6615, -0.1386719, 0.6615, -0.9863281, 0.6615, 0.0942383, , , , , , , , , , , , , , , , , , , , , , 
0.0259615, -0.0078889, 0.675, -0.2250977, 0.675, -0.9819336, 0.675, 0.1547852, 0.0259615, -0.0035248, 0.675, 0.3242188, 0.675, -0.9282227, 0.675, -0.2392578, 0.0259615, -0.0082246, 0.675, 0.1987305, 0.675, -0.9931641, 0.675, -0.0351562, 0.0259615, 0.0317235, 0.675, -0.1342773, 0.675, -0.9868164, 0.675, 0.0947266, , , , , , , , , , , , , , , , , , , , , , 
0.0264808, 0.0008392, 0.6885, -0.2124023, 0.6885, -0.980957, 0.6885, 0.1552734, 0.0264808, -0.0041962, 0.6885, 0.328125, 0.6885, -0.9277344, 0.6885, -0.2387695, 0.0264808, -0.0083925, 0.6885, 0.2016602, 0.6885, -0.9902344, 0.6885, -0.0327148, 0.0264808, 0.0303807, 0.6885, -0.1313477, 0.6885, -0.9804688, 0.6885, 0.0947266, , , , , , , , , , , , , , , , , , , , , , 
0.027, 0.0078889, 0.702, -0.2045898, 0.702, -0.9785156, 0.702, 0.1591797, 0.027, -0.0048676, 0.702, 0.3276367, 0.702, -0.9199219, 0.702, -0.2456055, 0.027, -0.0085603, 0.702, 0.2055664, 0.702, -0.9829102, 0.702, -0.0380859, 0.027, 0.026688, 0.702, -0.1308594, 0.702, -0.9794922, 0.702, 0.0922852, , , , , , , , , , , , , , , , , , , , , , 
0.0275192, 0.0135958, 0.7155, -0.2124023, 0.7155, -0.9804688, 0.7155, 0.1586914, 0.0275192, -0.0070497, 0.7155, 0.3291016, 0.7155, -0.9213867, 0.7155, -0.2451172, 0.0275192, -0.008896, 0.7155, 0.2075195, 0.7155, -0.987793, 0.7155, -0.0366211, 0.0275192, 0.0223239, 0.7155, -0.1279297, 0.7155, -0.9858398, 0.7155, 0.09375, , , , , , , , , , , , , , , , , , , , , , 
0.0280385, 0.0159457, 0.729, -0.2285156, 0.729, -0.9775391, 0.729, 0.1572266, 0.0280385, -0.0077211, 0.729, 0.324707, 0.729, -0.925293, 0.729, -0.2416992, 0.0280385, -0.0095674, 0.729, 0.2021484, 0.729, -0.9936523, 0.729, -0.03125, 0.0280385, 0.0193027, 0.729, -0.1323242, 0.729, -0.9873047, 0.729, 0.0981445, , , , , , , , , , , , , , , , , , , , , , 
0.0285577, 0.0172885, 0.7425, -0.2314453, 0.7425, -0.9765625, 0.7425, 0.1577148, 0.0285577, -0.0068818, 0.7425, 0.3232422, 0.7425, -0.9262695, 0.7425, -0.2392578, 0.0285577, -0.008896, 0.7425, 0.2006836, 0.7425, -0.9921875, 0.7425, -0.0224609, 0.0285577, 0.0182956, 0.7425, -0.1435547, 0.7425, -0.9833984, 0.7425, 0.1010742, , , , , , , , , , , , , , , , , , , , , , 
0.0290769, 0.0209812, 0.756, -0.2250977, 0.756, -0.9760742, 0.756, 0.1635742, 0.0290769, -0.005539, 0.756, 0.3286133, 0.756, -0.9213867, 0.756, -0.2392578, 0.0290769, -0.0080568, 0.756, 0.2011719, 0.756, -0.9848633, 0.756, -0.0200195, 0.0290769, 0.0166171, 0.756, -0.1479492, 0.756, -0.9770508, 0.756, 0.0986328, , , , , , , , , , , , , , , , , , , , , , 
0.0295962, 0.0240024, 0.7695, -0.2197266, 0.7695, -0.9667969, 0.7695, 0.1704102, 0.0295962, -0.0062104, 0.7695, 0.3325195, 0.7695, -0.9189453, 0.7695, -0.2446289, 0.0295962, -0.0075532, 0.7695, 0.2021484, 0.7695, -0.9790039, 0.7695, -0.0263672, 0.0295962, 0.0164492, 0.7695, -0.1503906, 0.7695, -0.9755859, 0.7695, 0.1010742, , , , , , , , , , , , , , , , , , , , , , 
0.0301154, 0.0250095, 0.783, -0.215332, 0.783, -0.9575195, 0.783, 0.1743164, 0.0301154, -0.0068818, 0.783, 0.3354492, 0.783, -0.9082031, 0.783, -0.2514648, 0.0301154, -0.008896, 0.783, 0.2006836, 0.783, -0.9741211, 0.783, -0.0166016, 0.0301154, 0.0135958, 0.783, -0.1518555, 0.783, -0.9711914, 0.783, 0.1054688, , , , , , , , , , , , , , , , , , , , , , 
0.0306346, 0.0246738, 0.7965, -0.2158203, 0.7965, -0.9580078, 0.7965, 0.1777344, 0.0306346, -0.0085603, 0.7965, 0.3388672, 0.7965, -0.8994141, 0.7965, -0.2548828, 0.0306346, -0.0115816, 0.7965, 0.2036133, 0.7965, -0.9716797, 0.7965, -0.0014648, 0.0306346, 0.0119173, 0.7965, -0.1611328, 0.7965, -0.9702148, 0.7965, 0.1098633, , , , , , , , , , , , , , , , , , , , , , 
0.0311538, 0.0261845, 0.81, -0.2211914, 0.81, -0.9570312, 0.81, 0.1787109, 0.0311538, -0.0085603, 0.81, 0.3349609, 0.81, -0.8964844, 0.81, -0.2539062, 0.0311538, -0.0129244, 0.81, 0.2070312, 0.81, -0.9702148, 0.81, 0.0039062, 0.0311538, 0.0130922, 0.81, -0.1772461, 0.81, -0.9638672, 0.81, 0.1044922, , , , , , , , , , , , , , , , , , , , , , 
0.0316731, 0.026688, 0.8235, -0.2290039, 0.8235, -0.9506836, 0.8235, 0.1772461, 0.0316731, -0.0092317, 0.8235, 0.3295898, 0.8235, -0.8984375, 0.8235, -0.2504883, 0.0316731, -0.0139315, 0.8235, 0.203125, 0.8235, -0.965332, 0.8235, 0.0048828, 0.0316731, 0.0130922, 0.8235, -0.1835938, 0.8235, -0.9594727, 0.8235, 0.1069336, , , , , , , , , , , , , , , , , , , , , , 
0.0321923, 0.0236667, 0.837, -0.2319336, 0.837, -0.9438477, 0.837, 0.1767578, 0.0321923, -0.0075532, 0.837, 0.331543, 0.837, -0.8945312, 0.837, -0.2460938, 0.0321923, -0.0139315, 0.837, 0.1943359, 0.837, -0.9589844, 0.837, 0.0083008, 0.0321923, 0.0112459, 0.837, -0.1884766, 0.837, -0.9521484, 0.837, 0.1088867, , , , , , , , , , , , , , , , , , , , , , 
0.0327115, 0.0191348, 0.8505, -0.2265625, 0.8505, -0.9365234, 0.8505, 0.1821289, 0.0327115, -0.0048676, 0.8505, 0.3393555, 0.8505, -0.8847656, 0.8505, -0.2446289, 0.0327115, -0.0129244, 0.8505, 0.1914062, 0.8505, -0.9550781, 0.8505, 0.0107422, 0.0327115, 0.0104067, 0.8505, -0.1860352, 0.8505, -0.9477539, 0.8505, 0.1103516, , , , , , , , , , , , , , , , , , , , , , 
0.0332308, 0.017792, 0.864, -0.222168, 0.864, -0.9321289, 0.864, 0.1889648, 0.0332308, -0.0045319, 0.864, 0.34375, 0.864, -0.8774414, 0.864, -0.2553711, 0.0332308, -0.0129244, 0.864, 0.1958008, 0.864, -0.9482422, 0.864, 0.0141602, 0.0332308, 0.0102388, 0.864, -0.1850586, 0.864, -0.9443359, 0.864, 0.1113281, , , , , , , , , , , , , , , , , , , , , , 
0.03375, 0.0182956, 0.8775, -0.2285156, 0.8775, -0.9331055, 0.8775, 0.1914062, 0.03375, -0.0045319, 0.8775, 0.3457031, 0.8775, -0.875, 0.8775, -0.2573242, 0.03375, -0.0115816, 0.8775, 0.2006836, 0.8775, -0.9545898, 0.8775, 0.0185547, 0.03375, 0.0092317, 0.8775, -0.1860352, 0.8775, -0.9462891, 0.8775, 0.109375, , , , , , , , , , , , , , , , , , , , , , 
0.0342692, 0.0182956, 0.891, -0.2431641, 0.891, -0.9360352, 0.891, 0.1972656, 0.0342692, -0.005539, 0.891, 0.3466797, 0.891, -0.8828125, 0.891, -0.2563477, 0.0342692, -0.0112459, 0.891, 0.1987305, 0.891, -0.9638672, 0.891, 0.0244141, 0.0342692, 0.0082246, 0.891, -0.1933594, 0.891, -0.9492188, 0.891, 0.1108398, , , , , , , , , , , , , , , , , , , , , , 
0.0347885, 0.0179599, 0.9045, -0.2416992, 0.9045, -0.9458008, 0.9045, 0.1972656, 0.0347885, -0.0062104, 0.9045, 0.3486328, 0.9045, -0.894043, 0.9045, -0.2568359, 0.0347885, -0.0109102, 0.9045, 0.1982422, 0.9045, -0.9677734, 0.9045, 0.0205078, 0.0347885, 0.006714, 0.9045, -0.1958008, 0.9045, -0.9584961, 0.9045, 0.1137695, , , , , , , , , , , , , , , , , , , , , , 
0.0353077, 0.0152743, 0.918, -0.2260742, 0.918, -0.9550781, 0.918, 0.1943359, 0.0353077, -0.0065461, 0.918, 0.3637695, 0.918, -0.8989258, 0.918, -0.2529297, 0.0353077, -0.008896, 0.918, 0.2075195, 0.918, -0.9775391, 0.918, 0.0161133, 0.0353077, 0.0041962, 0.918, -0.1865234, 0.918, -0.96875, 0.918, 0.1152344, , , , , , , , , , , , , , , , , , , , , , 
0.0358269, 0.017792, 0.9315, -0.2226562, 0.9315, -0.9584961, 0.9315, 0.1967773, 0.0358269, -0.0082246, 0.9315, 0.3686523, 0.9315, -0.9042969, 0.9315, -0.2519531, 0.0358269, -0.0075532, 0.9315, 0.2104492, 0.9315, -0.9794922, 0.9315, 0.0078125, 0.0358269, 0.0008392, 0.9315, -0.1757812, 0.9315, -0.9692383, 0.9315, 0.1171875, , , , , , , , , , , , , , , , , , , , , , 
0.0363462, 0.0287022, 0.945, -0.2250977, 0.945, -0.956543, 0.945, 0.1977539, 0.0363462, -0.0095674, 0.945, 0.3666992, 0.945, -0.9018555, 0.945, -0.2553711, 0.0363462, -0.0072175, 0.945, 0.2138672, 0.945, -0.9750977, 0.945, 0.0063477, 0.0363462, -0.0011749, 0.945, -0.1704102, 0.945, -0.9609375, 0.945, 0.1181641, , , , , , , , , , , , , , , , , , , , , , 
0.0368654, 0.0357519, 0.9585, -0.2246094, 0.9585, -0.953125, 0.9585, 0.2001953, 0.0368654, -0.0095674, 0.9585, 0.3603516, 0.9585, -0.9013672, 0.9585, -0.2607422, 0.0368654, -0.0077211, 0.9585, 0.2177734, 0.9585, -0.965332, 0.9585, 0.0039062, 0.0368654, -0.0008392, 0.9585, -0.1601562, 0.9585, -0.9545898, 0.9585, 0.1201172, , , , , , , , , , , , , , , , , , , , , , 
0.0373846, 0.0397803, 0.972, -0.2250977, 0.972, -0.9443359, 0.972, 0.206543, 0.0373846, -0.0095674, 0.972, 0.3496094, 0.972, -0.8896484, 0.972, -0.2709961, 0.0373846, -0.0065461, 0.972, 0.2314453, 0.972, -0.9526367, 0.972, 0.0078125, 0.0373846, -0.0008392, 0.972, -0.15625, 0.972, -0.949707, 0.972, 0.128418, , , , , , , , , , , , , , , , , , , , , , 
0.0379038, 0.0411231, 0.9855, -0.215332, 0.9855, -0.9321289, 0.9855, 0.2080078, 0.0379038, -0.0095674, 0.9855, 0.3413086, 0.9855, -0.8725586, 0.9855, -0.2841797, 0.0379038, -0.0062104, 0.9855, 0.2407227, 0.9855, -0.9394531, 0.9855, 0.015625, 0.0379038, -0.0005035, 0.9855, -0.1567383, 0.9855, -0.9477539, 0.9855, 0.1318359, , , , , , , , , , , , , , , , , , , , , , 
0.0384231, 0.040116, 0.999, -0.2104492, 0.999, -0.9228516, 0.999, 0.2104492, 0.0384231, -0.008896, 0.999, 0.3422852, 0.999, -0.8632812, 0.999, -0.2861328, 0.0384231, -0.0062104, 0.999, 0.2416992, 0.999, -0.9326172, 0.999, 0.0234375, 0.0384231, -0.0008392, 0.999, -0.1665039, 0.999, -0.9399414, 0.999, 0.1347656, , , , , , , , , , , , , , , , , , , , , , 
0.0389423, 0.040116, 1.0125, -0.2050781, 1.0125, -0.9111328, 1.0125, 0.2128906, 0.0389423, -0.0095674, 1.0125, 0.3520508, 1.0125, -0.8510742, 1.0125, -0.2734375, 0.0389423, -0.0075532, 1.0125, 0.2402344, 1.0125, -0.9179688, 1.0125, 0.0327148, 0.0389423, -0.0030213, 1.0125, -0.1831055, 1.0125, -0.9199219, 1.0125, 0.1386719, , , , , , , , , , , , , , , , , , , , , , 
0.0394615, 0.036759, 1.026, -0.2045898, 1.026, -0.8916016, 1.026, 0.2050781, 0.0394615, -0.0102388, 1.026, 0.3588867, 1.026, -0.8369141, 1.026, -0.2568359, 0.0394615, -0.008896, 1.026, 0.2407227, 1.026, -0.8974609, 1.026, 0.0419922, 0.0394615, -0.0018463, 1.026, -0.199707, 1.026, -0.894043, 1.026, 0.140625, , , , , , , , , , , , , , , , , , , , , , 
0.0399808, 0.0280308, 1.0395, -0.1967773, 1.0395, -0.8710938, 1.0395, 0.2021484, 0.0399808, -0.0109102, 1.0395, 0.3525391, 1.0395, -0.8188477, 1.0395, -0.2631836, 0.0399808, -0.0085603, 1.0395, 0.2358398, 1.0395, -0.8823242, 1.0395, 0.0473633, 0.0399808, 0.0015106, 1.0395, -0.2055664, 1.0395, -0.8798828, 1.0395, 0.1430664, , , , , , , , , , , , , , , , , , , , , , 
0.0405, 0.0186313, 1.053, -0.1904297, 1.053, -0.8520508, 1.053, 0.2060547, 0.0405, -0.0109102, 1.053, 0.3417969, 1.053, -0.7954102, 1.053, -0.2636719, 0.0405, -0.0077211, 1.053, 0.2216797, 1.053, -0.8588867, 1.053, 0.0454102, 0.0405, 0.0058747, 1.053, -0.203125, 1.053, -0.8588867, 1.053, 0.1479492, , , , , , , , , , , , , , , , , , , , , , 
0.0410192, 0.0119173, 1.0665, -0.1831055, 1.0665, -0.828125, 1.0665, 0.1987305, 0.0410192, -0.0112459, 1.0665, 0.3334961, 1.0665, -0.7763672, 1.0665, -0.2631836, 0.0410192, -0.0082246, 1.0665, 0.2158203, 1.0665, -0.8457031, 1.0665, 0.0439453, 0.0410192, 0.0090639, 1.0665, -0.2070312, 1.0665, -0.8344727, 1.0665, 0.144043, , , , , , , , , , , , , , , , , , , , , , 
0.0415385, 0.0078889, 1.08, -0.184082, 1.08, -0.8129883, 1.08, 0.1958008, 0.0415385, -0.0109102, 1.08, 0.328125, 1.08, -0.7685547, 1.08, -0.2617188, 0.0415385, -0.0082246, 1.08, 0.2163086, 1.08, -0.8183594, 1.08, 0.0449219, 0.0415385, 0.0112459, 1.08, -0.2016602, 1.08, -0.8178711, 1.08, 0.1435547, , , , , , , , , , , , , , , , , , , , , , 
0.0420577, 0.0031891, 1.0935, -0.1821289, 1.0935, -0.793457, 1.0935, 0.1796875, 0.0420577, -0.008896, 1.0935, 0.3041992, 1.0935, -0.7578125, 1.0935, -0.2548828, 0.0420577, -0.0082246, 1.0935, 0.2192383, 1.0935, -0.7993164, 1.0935, 0.0419922, 0.0420577, 0.0146029, 1.0935, -0.2026367, 1.0935, -0.8007812, 1.0935, 0.1494141, , , , , , , , , , , , , , , , , , , , , , 
0.0425769, -0.0028534, 1.107, -0.1669922, 1.107, -0.7661133, 1.107, 0.1708984, 0.0425769, -0.0075532, 1.107, 0.277832, 1.107, -0.7363281, 1.107, -0.2529297, 0.0425769, -0.0075532, 1.107, 0.1962891, 1.107, -0.7827148, 1.107, 0.0371094, 0.0425769, 0.0159457, 1.107, -0.2124023, 1.107, -0.7729492, 1.107, 0.1508789, , , , , , , , , , , , , , , , , , , , , , 
0.0430962, -0.0082246, 1.1205, -0.1459961, 1.1205, -0.7456055, 1.1205, 0.1694336, 0.0430962, -0.0078889, 1.1205, 0.2807617, 1.1205, -0.7021484, 1.1205, -0.2441406, 0.0430962, -0.0062104, 1.1205, 0.1850586, 1.1205, -0.7583008, 1.1205, 0.0249023, 0.0430962, 0.0166171, 1.1205, -0.2143555, 1.1205, -0.7451172, 1.1205, 0.1435547, , , , , , , , , , , , , , , , , , , , , , 
0.0436154, -0.0109102, 1.134, -0.1445312, 1.134, -0.737793, 1.134, 0.1679688, 0.0436154, -0.0075532, 1.134, 0.2875977, 1.134, -0.6767578, 1.134, -0.2373047, 0.0436154, -0.005539, 1.134, 0.1811523, 1.134, -0.7329102, 1.134, 0.0214844, 0.0436154, 0.0193027, 1.134, -0.2050781, 1.134, -0.7353516, 1.134, 0.1464844, , , , , , , , , , , , , , , , , , , , , , 
0.0441346, -0.0149386, 1.1475, -0.1450195, 1.1475, -0.7231445, 1.1475, 0.1533203, 0.0441346, -0.0075532, 1.1475, 0.2827148, 1.1475, -0.668457, 1.1475, -0.2290039, 0.0441346, -0.0045319, 1.1475, 0.1806641, 1.1475, -0.7236328, 1.1475, 0.0039062, 0.0441346, 0.0213169, 1.1475, -0.1884766, 1.1475, -0.7299805, 1.1475, 0.1176758, , , , , , , , , , , , , , , , , , , , , , 
0.0446538, -0.0203098, 1.161, -0.144043, 1.161, -0.7207031, 1.161, 0.1425781, 0.0446538, -0.0075532, 1.161, 0.2729492, 1.161, -0.6713867, 1.161, -0.2231445, 0.0446538, -0.0030213, 1.161, 0.1933594, 1.161, -0.7275391, 1.161, -0.0029297, 0.0446538, 0.0199741, 1.161, -0.1992188, 1.161, -0.7119141, 1.161, 0.1298828, , , , , , , , , , , , , , , , , , , , , , 
0.0451731, -0.0218204, 1.1745, -0.1621094, 1.1745, -0.7363281, 1.1745, 0.1308594, 0.0451731, -0.0092317, 1.1745, 0.2592773, 1.1745, -0.6923828, 1.1745, -0.2114258, 0.0451731, -0.0036927, 1.1745, 0.2084961, 1.1745, -0.7460938, 1.1745, 0.0014648, 0.0451731, 0.0186313, 1.1745, -0.1674805, 1.1745, -0.706543, 1.1745, 0.1279297, , , , , , , , , , , , , , , , , , , , , , 
0.0456923, -0.0179599, 1.188, -0.168457, 1.188, -0.7421875, 1.188, 0.1196289, 0.0456923, -0.0102388, 1.188, 0.2558594, 1.188, -0.7011719, 1.188, -0.1948242, 0.0456923, -0.005539, 1.188, 0.2041016, 1.188, -0.7416992, 1.188, -0.0087891, 0.0456923, 0.0179599, 1.188, -0.1274414, 1.188, -0.7255859, 1.188, 0.109375, , , , , , , , , , , , , , , , , , , , , , 
0.0462115, -0.012253, 1.2015, -0.1337891, 1.2015, -0.737793, 1.2015, 0.1088867, 0.0462115, -0.0095674, 1.2015, 0.2573242, 1.2015, -0.6948242, 1.2015, -0.1933594, 0.0462115, -0.0052033, 1.2015, 0.2011719, 1.2015, -0.7363281, 1.2015, -0.0126953, 0.0462115, 0.0191348, 1.2015, -0.0966797, 1.2015, -0.7338867, 1.2015, 0.0957031, , , , , , , , , , , , , , , , , , , , , , 
0.0467308, -0.0048676, 1.215, -0.1147461, 1.215, -0.7358398, 1.215, 0.1064453, 0.0467308, -0.008896, 1.215, 0.262207, 1.215, -0.6845703, 1.215, -0.1962891, 0.0467308, -0.0028534, 1.215, 0.2036133, 1.215, -0.7236328, 1.215, -0.015625, 0.0467308, 0.0176242, 1.215, -0.0585938, 1.215, -0.7446289, 1.215, 0.0893555, , , , , , , , , , , , , , , , , , , , , , 
0.04725, 0.0025177, 1.2285, -0.1201172, 1.2285, -0.7519531, 1.2285, 0.0991211, 0.04725, -0.0075532, 1.2285, 0.2548828, 1.2285, -0.6918945, 1.2285, -0.1918945, 0.04725, -0.0015106, 1.2285, 0.2124023, 1.2285, -0.7172852, 1.2285, -0.0410156, 0.04725, 0.0139315, 1.2285, -0.034668, 1.2285, -0.7480469, 1.2285, 0.0644531, , , , , , , , , , , , , , , , , , , , , , 
0.0477692, 0.0105745, 1.242, -0.1318359, 1.242, -0.7631836, 1.242, 0.0981445, 0.0477692, -0.0058747, 1.242, 0.2299805, 1.242, -0.7055664, 1.242, -0.2021484, 0.0477692, -0.0008392, 1.242, 0.2290039, 1.242, -0.7250977, 1.242, -0.0546875, 0.0477692, 0.0115816, 1.242, -0.015625, 1.242, -0.7543945, 1.242, 0.0698242, , , , , , , , , , , , , , , , , , , , , , 
0.0482885, 0.018967, 1.2555, -0.1450195, 1.2555, -0.7680664, 1.2555, 0.1015625, 0.0482885, -0.005539, 1.2555, 0.2128906, 1.2555, -0.7080078, 1.2555, -0.2158203, 0.0482885, -0.0011749, 1.2555, 0.2250977, 1.2555, -0.706543, 1.2555, -0.0795898, 0.0482885, 0.0114137, 1.2555, 0.0229492, 1.2555, -0.7416992, 1.2555, 0.0830078, , , , , , , , , , , , , , , , , , , , , , 
0.0488077, 0.0166171, 1.269, -0.1225586, 1.269, -0.7626953, 1.269, 0.0844727, 0.0488077, -0.0062104, 1.269, 0.2060547, 1.269, -0.6982422, 1.269, -0.2246094, 0.0488077, -0.002182, 1.269, 0.1992188, 1.269, -0.7211914, 1.269, -0.1025391, 0.0488077, 0.0092317, 1.269, 0.0463867, 1.269, -0.7348633, 1.269, 0.0947266, , , , , , , , , , , , , , , , , , , , , , 
0.0493269, 0.0142672, 1.2825, -0.0991211, 1.2825, -0.7749023, 1.2825, 0.0869141, 0.0493269, -0.0075532, 1.2825, 0.2231445, 1.2825, -0.7011719, 1.2825, -0.2216797, 0.0493269, -0.0052033, 1.2825, 0.1474609, 1.2825, -0.7275391, 1.2825, -0.1772461, 0.0493269, 0.0062104, 1.2825, 0.0551758, 1.2825, -0.7299805, 1.2825, 0.0927734, , , , , , , , , , , , , , , , , , , , , , 
0.0498462, 0.0191348, 1.296, -0.0917969, 1.296, -0.78125, 1.296, 0.0883789, 0.0498462, -0.0082246, 1.296, 0.2236328, 1.296, -0.7133789, 1.296, -0.2128906, 0.0498462, -0.0082246, 1.296, 0.1645508, 1.296, -0.7241211, 1.296, -0.1381836, 0.0498462, 0.005539, 1.296, 0.1103516, 1.296, -0.7138672, 1.296, 0.0854492, , , , , , , , , , , , , , , , , , , , , , 
0.0503654, 0.0240024, 1.3095, -0.0654297, 1.3095, -0.7641602, 1.3095, 0.0771484, 0.0503654, -0.005539, 1.3095, 0.1953125, 1.3095, -0.699707, 1.3095, -0.2275391, 0.0503654, -0.0092317, 1.3095, 0.1308594, 1.3095, -0.7563477, 1.3095, -0.1933594, 0.0503654, 0.0045319, 1.3095, 0.1152344, 1.3095, -0.7050781, 1.3095, 0.0952148, , , , , , , , , , , , , , , , , , , , , , 
0.0508846, 0.0271916, 1.323, -0.0380859, 1.323, -0.7387695, 1.323, 0.0922852, 0.0508846, -0.0048676, 1.323, 0.1674805, 1.323, -0.6860352, 1.323, -0.2397461, 0.0508846, -0.0072175, 1.323, 0.1992188, 1.323, -0.6953125, 1.323, -0.2402344, 0.0508846, 0.0025177, 1.323, 0.059082, 1.323, -0.6894531, 1.323, 0.0761719, , , , , , , , , , , , , , , , , , , , , , 
0.0514038, 0.0271916, 1.3365, -0.0522461, 1.3365, -0.7373047, 1.3365, 0.0830078, 0.0514038, -0.0075532, 1.3365, 0.1220703, 1.3365, -0.671875, 1.3365, -0.262207, 0.0514038, -0.0062104, 1.3365, 0.2368164, 1.3365, -0.6860352, 1.3365, -0.2207031, 0.0514038, 0.0001678, 1.3365, 0.0693359, 1.3365, -0.7177734, 1.3365, 0.1147461, , , , , , , , , , , , , , , , , , , , , , 
0.0519231, 0.0240024, 1.35, -0.1113281, 1.35, -0.7973633, 1.35, 0.0742188, 0.0519231, -0.0085603, 1.35, 0.1235352, 1.35, -0.7041016, 1.35, -0.2666016, 0.0519231, -0.0052033, 1.35, 0.2255859, 1.35, -0.7216797, 1.35, -0.2329102, 0.0519231, 0.0008392, 1.35, 0.09375, 1.35, -0.7519531, 1.35, 0.1352539, , , , , , , , , , , , , , , , , , , , , , 
0.0524423, 0.0280308, 1.3635, -0.1196289, 1.3635, -0.8769531, 1.3635, 0.0620117, 0.0524423, -0.0075532, 1.3635, 0.1708984, 1.3635, -0.7685547, 1.3635, -0.2441406, 0.0524423, -0.0060426, 1.3635, 0.2163086, 1.3635, -0.7973633, 1.3635, -0.2143555, 0.0524423, 0.0038605, 1.3635, 0.0771484, 1.3635, -0.7744141, 1.3635, 0.1049805, , , , , , , , , , , , , , , , , , , , , , 
0.0529615, 0.03122, 1.377, -0.0742188, 1.377, -0.9121094, 1.377, 0.0683594, 0.0529615, -0.0072175, 1.377, 0.2158203, 1.377, -0.8237305, 1.377, -0.2265625, 0.0529615, -0.0075532, 1.377, 0.1987305, 1.377, -0.8422852, 1.377, -0.2431641, 0.0529615, 0.0068818, 1.377, 0.1391602, 1.377, -0.7900391, 1.377, 0.0864258, , , , , , , , , , , , , , , , , , , , , , 
0.0534808, 0.0260166, 1.3905, -0.0229492, 1.3905, -0.8920898, 1.3905, 0.0722656, 0.0534808, -0.0068818, 1.3905, 0.2192383, 1.3905, -0.8432617, 1.3905, -0.2202148, 0.0534808, -0.0085603, 1.3905, 0.1962891, 1.3905, -0.8144531, 1.3905, -0.2866211, 0.0534808, 0.0092317, 1.3905, 0.2304688, 1.3905, -0.8022461, 1.3905, 0.090332, , , , , , , , , , , , , , , , , , , , , , 
0.054, 0.0186313, 1.404, -0.0078125, 1.404, -0.8535156, 1.404, 0.0786133, 0.054, -0.005539, 1.404, 0.1816406, 1.404, -0.8227539, 1.404, -0.2402344, 0.054, -0.0083925, 1.404, 0.1782227, 1.404, -0.7817383, 1.404, -0.3266602, 0.054, 0.0112459, 1.404, 0.2729492, 1.404, -0.8198242, 1.404, 0.0908203, , , , , , , , , , , , , , , , , , , , , , 
0.0545192, 0.0105745, 1.4175, -0.0043945, 1.4175, -0.8305664, 1.4175, 0.0776367, 0.0545192, -0.0041962, 1.4175, 0.1269531, 1.4175, -0.7758789, 1.4175, -0.2792969, 0.0545192, -0.0075532, 1.4175, 0.203125, 1.4175, -0.7514648, 1.4175, -0.3476562, 0.0545192, 0.0115816, 1.4175, 0.237793, 1.4175, -0.8017578, 1.4175, 0.1020508, , , , , , , , , , , , , , , , , , , , , , 
0.0550385, 0.0072175, 1.431, 0, 1.431, -0.8618164, 1.431, 0.0629883, 0.0550385, -0.0036927, 1.431, 0.1025391, 1.431, -0.7490234, 1.431, -0.3012695, 0.0550385, -0.0082246, 1.431, 0.2431641, 1.431, -0.7436523, 1.431, -0.3217773, 0.0550385, 0.0105745, 1.431, 0.2114258, 1.431, -0.7915039, 1.431, 0.1030273, , , , , , , , , , , , , , , , , , , , , , 
0.0555577, 0.0132601, 1.4445, -0.0019531, 1.4445, -0.9101562, 1.4445, 0.0595703, 0.0555577, -0.005539, 1.4445, 0.1108398, 1.4445, -0.784668, 1.4445, -0.2954102, 0.0555577, -0.0102388, 1.4445, 0.2558594, 1.4445, -0.7456055, 1.4445, -0.3071289, 0.0555577, 0.0097353, 1.4445, 0.2143555, 1.4445, -0.7719727, 1.4445, 0.1005859, , , , , , , , , , , , , , , , , , , , , , 
0.0560769, 0.0223239, 1.458, -0.0102539, 1.458, -0.9033203, 1.458, 0.059082, 0.0560769, -0.0065461, 1.458, 0.1206055, 1.458, -0.8125, 1.458, -0.2841797, 0.0560769, -0.0105745, 1.458, 0.2631836, 1.458, -0.7421875, 1.458, -0.3198242, 0.0560769, 0.0105745, 1.458, 0.2524414, 1.458, -0.7475586, 1.458, 0.0849609, , , , , , , , , , , , , , , , , , , , , , 
0.0565962, 0.0293736, 1.4715, -0.0219727, 1.4715, -0.8789062, 1.4715, 0.0610352, 0.0565962, -0.0052033, 1.4715, 0.1166992, 1.4715, -0.8354492, 1.4715, -0.2661133, 0.0565962, -0.0075532, 1.4715, 0.2548828, 1.4715, -0.7529297, 1.4715, -0.3291016, 0.0565962, 0.008896, 1.4715, 0.2895508, 1.4715, -0.7480469, 1.4715, 0.097168, , , , , , , , , , , , , , , , , , , , , , 
0.0571154, 0.033402, 1.485, -0.0429688, 1.485, -0.8432617, 1.485, 0.0654297, 0.0571154, -0.0052033, 1.485, 0.0922852, 1.485, -0.8120117, 1.485, -0.2631836, 0.0571154, -0.0058747, 1.485, 0.2446289, 1.485, -0.7612305, 1.485, -0.3325195, 0.0571154, 0.0075532, 1.485, 0.2875977, 1.485, -0.7705078, 1.485, 0.1064453, , , , , , , , , , , , , , , , , , , , , , 
0.0576346, 0.0360876, 1.4985, -0.0180664, 1.4985, -0.8569336, 1.4985, 0.0673828, 0.0576346, -0.0068818, 1.4985, 0.0859375, 1.4985, -0.7827148, 1.4985, -0.2924805, 0.0576346, -0.0082246, 1.4985, 0.2724609, 1.4985, -0.7519531, 1.4985, -0.3496094, 0.0576346, 0.0058747, 1.4985, 0.3129883, 1.4985, -0.7851562, 1.4985, 0.0859375, , , , , , , , , , , , , , , , , , , , , , 
0.0581538, 0.0394446, 1.512, 0.0166016, 1.512, -0.9003906, 1.512, 0.0893555, 0.0581538, -0.008896, 1.512, 0.1206055, 1.512, -0.7880859, 1.512, -0.3051758, 0.0581538, -0.0109102, 1.512, 0.2700195, 1.512, -0.7583008, 1.512, -0.3696289, 0.0581538, 0.0038605, 1.512, 0.3359375, 1.512, -0.7880859, 1.512, 0.0878906, , , , , , , , , , , , , , , , , , , , , , 
0.0586731, 0.0374304, 1.5255, -0.0073242, 1.5255, -0.925293, 1.5255, 0.0869141, 0.0586731, -0.0095674, 1.5255, 0.1699219, 1.5255, -0.831543, 1.5255, -0.2739258, 0.0586731, -0.0117494, 1.5255, 0.2485352, 1.5255, -0.7875977, 1.5255, -0.3974609, 0.0586731, 0.002182, 1.5255, 0.3535156, 1.5255, -0.8081055, 1.5255, 0.0756836, , , , , , , , , , , , , , , , , , , , , , 
0.0591923, 0.0313878, 1.539, -0.0625, 1.539, -0.9379883, 1.539, 0.0703125, 0.0591923, -0.0072175, 1.539, 0.1782227, 1.539, -0.8891602, 1.539, -0.2460938, 0.0591923, -0.0125887, 1.539, 0.2265625, 1.539, -0.8505859, 1.539, -0.3969727, 0.0591923, 0.002182, 1.539, 0.3867188, 1.539, -0.8232422, 1.539, 0.0620117, , , , , , , , , , , , , , , , , , , , , , 
0.0597115, 0.0298772, 1.5525, -0.1025391, 1.5525, -0.9702148, 1.5525, 0.0708008, 0.0597115, -0.0082246, 1.5525, 0.1591797, 1.5525, -0.9267578, 1.5525, -0.2397461, 0.0597115, -0.0135958, 1.5525, 0.2158203, 1.5525, -0.8803711, 1.5525, -0.4189453, 0.0597115, 0.0025177, 1.5525, 0.4116211, 1.5525, -0.862793, 1.5525, 0.0751953, , , , , , , , , , , , , , , , , , , , , , 
0.0602308, 0.026688, 1.566, -0.0581055, 1.566, -1.0092773, 1.566, 0.074707, 0.0602308, -0.0109102, 1.566, 0.1538086, 1.566, -0.9350586, 1.566, -0.2548828, 0.0602308, -0.0125887, 1.566, 0.2490234, 1.566, -0.9008789, 1.566, -0.4233398, 0.0602308, 0.0045319, 1.566, 0.4145508, 1.566, -0.9018555, 1.566, 0.0844727, , , , , , , , , , , , , , , , , , , , , , 
0.06075, 0.0172885, 1.5795, 0.0014648, 1.5795, -1.0429688, 1.5795, 0.1064453, 0.06075, -0.0129244, 1.5795, 0.168457, 1.5795, -0.9384766, 1.5795, -0.2661133, 0.06075, -0.0119173, 1.5795, 0.2626953, 1.5795, -0.9003906, 1.5795, -0.4458008, 0.06075, 0.0082246, 1.5795, 0.4174805, 1.5795, -0.90625, 1.5795, 0.0766602, , , , , , , , , , , , , , , , , , , , , , 
0.0612692, 0.0142672, 1.593, -0.019043, 1.593, -1.0307617, 1.593, 0.1132812, 0.0612692, -0.0115816, 1.593, 0.2094727, 1.593, -0.9550781, 1.593, -0.2666016, 0.0612692, -0.0129244, 1.593, 0.2509766, 1.593, -0.8979492, 1.593, -0.4667969, 0.0612692, 0.0132601, 1.593, 0.418457, 1.593, -0.9038086, 1.593, 0.0844727, , , , , , , , , , , , , , , , , , , , , , 
0.0617885, 0.0139315, 1.6065, -0.0805664, 1.6065, -1.0092773, 1.6065, 0.1069336, 0.0617885, -0.0092317, 1.6065, 0.2236328, 1.6065, -0.9667969, 1.6065, -0.2529297, 0.0617885, -0.0117494, 1.6065, 0.2060547, 1.6065, -0.8945312, 1.6065, -0.4707031, 0.0617885, 0.0152743, 1.6065, 0.3901367, 1.6065, -0.8935547, 1.6065, 0.1123047, , , , , , , , , , , , , , , , , , , , , , 
0.0623077, 0.0038605, 1.62, -0.105957, 1.62, -1.0258789, 1.62, 0.1333008, 0.0623077, -0.0078889, 1.62, 0.1713867, 1.62, -0.9672852, 1.62, -0.2895508, 0.0623077, -0.010071, 1.62, 0.2529297, 1.62, -0.9047852, 1.62, -0.4575195, 0.0623077, 0.0182956, 1.62, 0.3759766, 1.62, -0.8984375, 1.62, 0.1547852, , , , , , , , , , , , , , , , , , , , , , 
0.0628269, -0.0070497, 1.6335, -0.0957031, 1.6335, -1.043457, 1.6335, 0.1352539, 0.0628269, -0.0085603, 1.6335, 0.1298828, 1.6335, -0.9868164, 1.6335, -0.3344727, 0.0628269, -0.0105745, 1.6335, 0.3212891, 1.6335, -0.921875, 1.6335, -0.4506836, 0.0628269, 0.0236667, 1.6335, 0.4033203, 1.6335, -0.9194336, 1.6335, 0.1645508, , , , , , , , , , , , , , , , , , , , , , 
0.0633462, -0.0109102, 1.647, -0.046875, 1.647, -1.081543, 1.647, 0.1347656, 0.0633462, -0.0082246, 1.647, 0.1225586, 1.647, -1.0351562, 1.647, -0.3266602, 0.0633462, -0.012253, 1.647, 0.34375, 1.647, -0.9145508, 1.647, -0.4750977, 0.0633462, 0.0276951, 1.647, 0.4467773, 1.647, -0.9404297, 1.647, 0.159668, , , , , , , , , , , , , , , , , , , , , , 
0.0638654, -0.0102388, 1.6605, -0.0170898, 1.6605, -1.0981445, 1.6605, 0.1401367, 0.0638654, -0.0078889, 1.6605, 0.1806641, 1.6605, -1.0576172, 1.6605, -0.3041992, 0.0638654, -0.012253, 1.6605, 0.3510742, 1.6605, -0.921875, 1.6605, -0.4907227, 0.0638654, 0.0287022, 1.6605, 0.4545898, 1.6605, -0.984375, 1.6605, 0.1601562, , , , , , , , , , , , , , , , , , , , , , 
0.0643846, -0.0137636, 1.674, -0.0390625, 1.674, -1.0878906, 1.674, 0.1337891, 0.0643846, -0.0095674, 1.674, 0.2333984, 1.674, -1.0834961, 1.674, -0.2529297, 0.0643846, -0.011078, 1.674, 0.347168, 1.674, -0.9697266, 1.674, -0.527832, 0.0643846, 0.0293736, 1.674, 0.5107422, 1.674, -0.980957, 1.674, 0.144043, , , , , , , , , , , , , , , , , , , , , , 
0.0649038, -0.0229953, 1.6875, -0.0961914, 1.6875, -1.0942383, 1.6875, 0.1279297, 0.0649038, -0.0092317, 1.6875, 0.2446289, 1.6875, -1.1254883, 1.6875, -0.2099609, 0.0649038, -0.0078889, 1.6875, 0.3291016, 1.6875, -0.9824219, 1.6875, -0.5527344, 0.0649038, 0.0317235, 1.6875, 0.515625, 1.6875, -1.0004883, 1.6875, 0.1787109, , , , , , , , , , , , , , , , , , , , , , 
0.0654231, -0.0263523, 1.701, -0.1186523, 1.701, -1.1323242, 1.701, 0.1254883, 0.0654231, -0.0068818, 1.701, 0.2353516, 1.701, -1.1386719, 1.701, -0.2158203, 0.0654231, -0.0057069, 1.701, 0.3139648, 1.701, -0.9838867, 1.701, -0.5336914, 0.0654231, 0.0327306, 1.701, 0.453125, 1.701, -1.0175781, 1.701, 0.1723633, , , , , , , , , , , , , , , , , , , , , , 
0.0659423, -0.0216526, 1.7145, -0.0947266, 1.7145, -1.1723633, 1.7145, 0.1245117, 0.0659423, -0.0063783, 1.7145, 0.2099609, 1.7145, -1.1352539, 1.7145, -0.2568359, 0.0659423, -0.0041962, 1.7145, 0.3022461, 1.7145, -0.9951172, 1.7145, -0.5053711, 0.0659423, 0.0330663, 1.7145, 0.4360352, 1.7145, -1.0058594, 1.7145, 0.1630859, , , , , , , , , , , , , , , , , , , , , , 
0.0664615, -0.0164492, 1.728, -0.0673828, 1.728, -1.1801758, 1.728, 0.1206055, 0.0664615, -0.0070497, 1.728, 0.2182617, 1.728, -1.1206055, 1.728, -0.253418, 0.0664615, -0.0035248, 1.728, 0.2944336, 1.728, -0.9897461, 1.728, -0.5107422, 0.0664615, 0.0303807, 1.728, 0.472168, 1.728, -1.0029297, 1.728, 0.1557617, , , , , , , , , , , , , , , , , , , , , , 
0.0669808, -0.0102388, 1.7415, -0.0859375, 1.7415, -1.1777344, 1.7415, 0.1503906, 0.0669808, -0.008896, 1.7415, 0.2207031, 1.7415, -1.1259766, 1.7415, -0.2456055, 0.0669808, -0.0038605, 1.7415, 0.2719727, 1.7415, -0.9936523, 1.7415, -0.5517578, 0.0669808, 0.0263523, 1.7415, 0.4853516, 1.7415, -1.0014648, 1.7415, 0.1430664, , , , , , , , , , , , , , , , , , , , , , 
0.0675, -0.0008392, 1.755, -0.1303711, 1.755, -1.184082, 1.755, 0.1694336, 0.0675, -0.0105745, 1.755, 0.2646484, 1.755, -1.1523438, 1.755, -0.2285156, 0.0675, -0.003357, 1.755, 0.3105469, 1.755, -1.0361328, 1.755, -0.5541992, 0.0675, 0.024506, 1.755, 0.5107422, 1.755, -1.0219727, 1.755, 0.1186523, , , , , , , , , , , , , , , , , , , , , , 
0.0680192, 0.0082246, 1.7685, -0.1542969, 1.7685, -1.1977539, 1.7685, 0.1435547, 0.0680192, -0.0085603, 1.7685, 0.3334961, 1.7685, -1.1865234, 1.7685, -0.1748047, 0.0680192, -0.0048676, 1.7685, 0.3754883, 1.7685, -1.0800781, 1.7685, -0.5180664, 0.0680192, 0.0199741, 1.7685, 0.5595703, 1.7685, -1.0664062, 1.7685, 0.1279297, , , , , , , , , , , , , , , , , , , , , , 
0.0685385, 0.0139315, 1.782, -0.1181641, 1.782, -1.2021484, 1.782, 0.1469727, 0.0685385, -0.0068818, 1.782, 0.3540039, 1.782, -1.1811523, 1.782, -0.1821289, 0.0685385, -0.0082246, 1.782, 0.4204102, 1.782, -1.0532227, 1.782, -0.5258789, 0.0685385, 0.0172885, 1.782, 0.6044922, 1.782, -1.0507812, 1.782, 0.1352539, , , , , , , , , , , , , , , , , , , , , , 
0.0690577, 0.0159457, 1.7955, -0.0883789, 1.7955, -1.2011719, 1.7955, 0.1992188, 0.0690577, -0.0075532, 1.7955, 0.347168, 1.7955, -1.1459961, 1.7955, -0.2050781, 0.0690577, -0.0105745, 1.7955, 0.3691406, 1.7955, -1.0024414, 1.7955, -0.5585938, 0.0690577, 0.0172885, 1.7955, 0.6098633, 1.7955, -1.0039062, 1.7955, 0.1337891, , , , , , , , , , , , , , , , , , , , , , 
0.0695769, 0.0186313, 1.809, -0.1103516, 1.809, -1.1850586, 1.809, 0.2138672, 0.0695769, -0.0104067, 1.809, 0.3447266, 1.809, -1.1318359, 1.809, -0.2026367, 0.0695769, -0.0109102, 1.809, 0.3354492, 1.809, -1.0205078, 1.809, -0.5615234, 0.0695769, 0.0161135, 1.809, 0.5810547, 1.809, -1.0141602, 1.809, 0.152832, , , , , , , , , , , , , , , , , , , , , , 
0.0700962, 0.0223239, 1.8225, -0.1806641, 1.8225, -1.1445312, 1.8225, 0.2182617, 0.0700962, -0.0115816, 1.8225, 0.3442383, 1.8225, -1.1235352, 1.8225, -0.2001953, 0.0700962, -0.0095674, 1.8225, 0.3295898, 1.8225, -1.0336914, 1.8225, -0.5385742, 0.0700962, 0.01561, 1.8225, 0.5170898, 1.8225, -1.0454102, 1.8225, 0.1489258, , , , , , , , , , , , , , , , , , , , , , 
0.0706154, 0.0213169, 1.836, -0.1918945, 1.836, -1.1362305, 1.836, 0.1743164, 0.0706154, -0.0092317, 1.836, 0.3579102, 1.836, -1.0966797, 1.836, -0.2104492, 0.0706154, -0.0095674, 1.836, 0.34375, 1.836, -1.0322266, 1.836, -0.496582, 0.0706154, 0.0172885, 1.836, 0.4541016, 1.836, -1.0493164, 1.836, 0.1499023, , , , , , , , , , , , , , , , , , , , , , 
0.0711346, 0.0223239, 1.8495, -0.1923828, 1.8495, -1.168457, 1.8495, 0.2299805, 0.0711346, -0.0082246, 1.8495, 0.3828125, 1.8495, -1.0854492, 1.8495, -0.1938477, 0.0711346, -0.0095674, 1.8495, 0.371582, 1.8495, -1.0483398, 1.8495, -0.4814453, 0.0711346, 0.0169528, 1.8495, 0.4174805, 1.8495, -1.0532227, 1.8495, 0.1811523, , , , , , , , , , , , , , , , , , , , , , 
0.0716538, 0.0246738, 1.863, -0.2167969, 1.863, -1.1621094, 1.863, 0.2480469, 0.0716538, -0.0085603, 1.863, 0.3989258, 1.863, -1.1000977, 1.863, -0.1635742, 0.0716538, -0.0085603, 1.863, 0.3691406, 1.863, -1.0605469, 1.863, -0.4790039, 0.0716538, 0.0164492, 1.863, 0.4179688, 1.863, -1.0463867, 1.863, 0.2016602, , , , , , , , , , , , , , , , , , , , , , 
0.0721731, 0.0260166, 1.8765, -0.2246094, 1.8765, -1.1206055, 1.8765, 0.2392578, 0.0721731, -0.0083925, 1.8765, 0.4287109, 1.8765, -1.0942383, 1.8765, -0.1733398, 0.0721731, -0.0105745, 1.8765, 0.3486328, 1.8765, -1.0537109, 1.8765, -0.4990234, 0.0721731, 0.01561, 1.8765, 0.4277344, 1.8765, -1.0444336, 1.8765, 0.199707, , , , , , , , , , , , , , , , , , , , , , 
0.0726923, 0.0226596, 1.89, -0.230957, 1.89, -1.1142578, 1.89, 0.2402344, 0.0726923, -0.0095674, 1.89, 0.4199219, 1.89, -1.0756836, 1.89, -0.1943359, 0.0726923, -0.0115816, 1.89, 0.3374023, 1.89, -1.0371094, 1.89, -0.5009766, 0.0726923, 0.0119173, 1.89, 0.4311523, 1.89, -1.0532227, 1.89, 0.2016602, , , , , , , , , , , , , , , , , , , , , , 
0.0732115, 0.0186313, 1.9035, -0.2089844, 1.9035, -1.0942383, 1.9035, 0.2480469, 0.0732115, -0.0109102, 1.9035, 0.3925781, 1.9035, -1.0488281, 1.9035, -0.199707, 0.0732115, -0.0109102, 1.9035, 0.371582, 1.9035, -1.0424805, 1.9035, -0.4941406, 0.0732115, 0.0092317, 1.9035, 0.4580078, 1.9035, -1.0629883, 1.9035, 0.2016602, , , , , , , , , , , , , , , , , , , , , , 
0.0737308, 0.0198062, 1.917, -0.1914062, 1.917, -1.0976562, 1.917, 0.2392578, 0.0737308, -0.0102388, 1.917, 0.3974609, 1.917, -1.0214844, 1.917, -0.1899414, 0.0737308, -0.0109102, 1.917, 0.4233398, 1.917, -1.0415039, 1.917, -0.5048828, 0.0737308, 0.0072175, 1.917, 0.4760742, 1.917, -1.0546875, 1.917, 0.2109375, , , , , , , , , , , , , , , , , , , , , , 
0.07425, 0.0243381, 1.9305, -0.2392578, 1.9305, -1.1166992, 1.9305, 0.253418, 0.07425, -0.008896, 1.9305, 0.4223633, 1.9305, -1.0629883, 1.9305, -0.1538086, 0.07425, -0.0124208, 1.9305, 0.4448242, 1.9305, -1.0351562, 1.9305, -0.5073242, 0.07425, 0.0048676, 1.9305, 0.4741211, 1.9305, -1.0478516, 1.9305, 0.2182617, , , , , , , , , , , , , , , , , , , , , , 
0.0747692, 0.0287022, 1.944, -0.2519531, 1.944, -1.1376953, 1.944, 0.2446289, 0.0747692, -0.0075532, 1.944, 0.4389648, 1.944, -1.0883789, 1.944, -0.1318359, 0.0747692, -0.0125887, 1.944, 0.4741211, 1.944, -1.0527344, 1.944, -0.4970703, 0.0747692, 0.0003357, 1.944, 0.4912109, 1.944, -1.0517578, 1.944, 0.2124023, , , , , , , , , , , , , , , , , , , , , , 
0.0752885, 0.0325628, 1.9575, -0.2783203, 1.9575, -1.1455078, 1.9575, 0.2280273, 0.0752885, -0.0072175, 1.9575, 0.472168, 1.9575, -1.1186523, 1.9575, -0.1123047, 0.0752885, -0.0115816, 1.9575, 0.4433594, 1.9575, -1.0712891, 1.9575, -0.5048828, 0.0752885, -0.0035248, 1.9575, 0.5234375, 1.9575, -1.0717773, 1.9575, 0.2050781, , , , , , , , , , , , , , , , , , , , , , 
0.0758077, 0.0320592, 1.971, -0.2719727, 1.971, -1.1513672, 1.971, 0.2246094, 0.0758077, -0.0062104, 1.971, 0.4887695, 1.971, -1.1054688, 1.971, -0.1518555, 0.0758077, -0.008896, 1.971, 0.4321289, 1.971, -1.0600586, 1.971, -0.5395508, 0.0758077, -0.0082246, 1.971, 0.5463867, 1.971, -1.0703125, 1.971, 0.2011719, , , , , , , , , , , , , , , , , , , , , , 
0.0763269, 0.0325628, 1.9845, -0.2070312, 1.9845, -1.1811523, 1.9845, 0.2617188, 0.0763269, -0.0068818, 1.9845, 0.4907227, 1.9845, -1.0961914, 1.9845, -0.1899414, 0.0763269, -0.0082246, 1.9845, 0.4707031, 1.9845, -1.0634766, 1.9845, -0.5585938, 0.0763269, -0.0099031, 1.9845, 0.5693359, 1.9845, -1.0776367, 1.9845, 0.2011719, , , , , , , , , , , , , , , , , , , , , , 
0.0768462, 0.0364233, 1.998, -0.152832, 1.998, -1.2333984, 1.998, 0.3237305, 0.0768462, -0.0082246, 1.998, 0.4853516, 1.998, -1.1196289, 1.998, -0.2016602, 0.0768462, -0.0097353, 1.998, 0.4804688, 1.998, -1.0712891, 1.998, -0.5649414, 0.0768462, -0.0095674, 1.998, 0.5966797, 1.998, -1.0664062, 1.998, 0.2060547, , , , , , , , , , , , , , , , , , , , , , 
0.0773654, 0.0391089, 2.0115, -0.1757812, 2.0115, -1.269043, 2.0115, 0.331543, 0.0773654, -0.0078889, 2.0115, 0.5166016, 2.0115, -1.1376953, 2.0115, -0.1801758, 0.0773654, -0.0102388, 2.0115, 0.4306641, 2.0115, -1.0683594, 2.0115, -0.5893555, 0.0773654, -0.008896, 2.0115, 0.5849609, 2.0115, -1.0600586, 2.0115, 0.2055664, , , , , , , , , , , , , , , , , , , , , , 
0.0778846, 0.0374304, 2.025, -0.2807617, 2.025, -1.2597656, 2.025, 0.3168945, 0.0778846, -0.0082246, 2.025, 0.5800781, 2.025, -1.1376953, 2.025, -0.1743164, 0.0778846, -0.0102388, 2.025, 0.3837891, 2.025, -1.0610352, 2.025, -0.5927734, 0.0778846, -0.0095674, 2.025, 0.5732422, 2.025, -1.0566406, 2.025, 0.2163086, , , , , , , , , , , , , , , , , , , , , , 
0.0784038, 0.0352483, 2.0385, -0.3012695, 2.0385, -1.2138672, 2.0385, 0.3081055, 0.0784038, -0.0075532, 2.0385, 0.6054688, 2.0385, -1.1552734, 2.0385, -0.1542969, 0.0784038, -0.0112459, 2.0385, 0.4179688, 2.0385, -1.0668945, 2.0385, -0.59375, 0.0784038, -0.0092317, 2.0385, 0.5634766, 2.0385, -1.0605469, 2.0385, 0.2324219, , , , , , , , , , , , , , , , , , , , , , 
0.0789231, 0.0313878, 2.052, -0.3413086, 2.052, -1.1977539, 2.052, 0.3383789, 0.0789231, -0.0063783, 2.052, 0.5742188, 2.052, -1.1845703, 2.052, -0.1323242, 0.0789231, -0.0102388, 2.052, 0.4799805, 2.052, -1.0737305, 2.052, -0.5810547, 0.0789231, -0.005539, 2.052, 0.5292969, 2.052, -1.1005859, 2.052, 0.2563477, , , , , , , , , , , , , , , , , , , , , , 
0.0794423, 0.0273594, 2.0655, -0.3222656, 2.0655, -1.1796875, 2.0655, 0.309082, 0.0794423, -0.0058747, 2.0655, 0.5566406, 2.0655, -1.1933594, 2.0655, -0.1386719, 0.0794423, -0.0102388, 2.0655, 0.5141602, 2.0655, -1.0751953, 2.0655, -0.5800781, 0.0794423, 0.0016785, 2.0655, 0.5390625, 2.0655, -1.125, 2.0655, 0.2797852, , , , , , , , , , , , , , , , , , , , , , 
0.0799615, 0.0236667, 2.079, -0.2294922, 2.079, -1.1616211, 2.079, 0.2905273, 0.0799615, -0.0068818, 2.079, 0.5527344, 2.079, -1.1796875, 2.079, -0.1748047, 0.0799615, -0.0099031, 2.079, 0.5048828, 2.079, -1.0478516, 2.079, -0.574707, 0.0799615, 0.0085603, 2.079, 0.4990234, 2.079, -1.112793, 2.079, 0.3129883, , , , , , , , , , , , , , , , , , , , , , 
0.0804808, 0.0171206, 2.0925, -0.1904297, 2.0925, -1.1640625, 2.0925, 0.3369141, 0.0804808, -0.0075532, 2.0925, 0.5351562, 2.0925, -1.1230469, 2.0925, -0.2246094, 0.0804808, -0.008896, 2.0925, 0.480957, 2.0925, -1.0092773, 2.0925, -0.5439453, 0.0804808, 0.0119173, 2.0925, 0.4462891, 2.0925, -1.0932617, 2.0925, 0.3173828, , , , , , , , , , , , , , , , , , , , , , 
0.081, 0.0095674, 2.106, -0.2597656, 2.106, -1.1801758, 2.106, 0.3774414, 0.081, -0.0082246, 2.106, 0.4868164, 2.106, -1.0771484, 2.106, -0.2270508, 0.081, -0.0082246, 2.106, 0.4335938, 2.106, -1.0024414, 2.106, -0.5375977, 0.081, 0.0129244, 2.106, 0.4228516, 2.106, -1.0761719, 2.106, 0.3032227, , , , , , , , , , , , , , , , , , , , , , 
0.0815192, 0.0063783, 2.1195, -0.4086914, 2.1195, -1.1445312, 2.1195, 0.3491211, 0.0815192, -0.0090639, 2.1195, 0.4726562, 2.1195, -1.0576172, 2.1195, -0.2016602, 0.0815192, -0.0082246, 2.1195, 0.4003906, 2.1195, -1.0107422, 2.1195, -0.5449219, 0.0815192, 0.0132601, 2.1195, 0.4033203, 2.1195, -1.0722656, 2.1195, 0.2929688, , , , , , , , , , , , , , , , , , , , , , 
0.0820385, 0.0010071, 2.133, -0.4472656, 2.133, -1.074707, 2.133, 0.3237305, 0.0820385, -0.0109102, 2.133, 0.5371094, 2.133, -1.0673828, 2.133, -0.1518555, 0.0820385, -0.0058747, 2.133, 0.3530273, 2.133, -1.0302734, 2.133, -0.5517578, 0.0820385, 0.0154421, 2.133, 0.4165039, 2.133, -1.0625, 2.133, 0.2944336, , , , , , , , , , , , , , , , , , , , , , 
0.0825577, -0.0102388, 2.1465, -0.4223633, 2.1465, -1.0375977, 2.1465, 0.3198242, 0.0825577, -0.0109102, 2.1465, 0.6376953, 2.1465, -1.0498047, 2.1465, -0.1083984, 0.0825577, -0.0068818, 2.1465, 0.4091797, 2.1465, -1.0249023, 2.1465, -0.5981445, 0.0825577, 0.0186313, 2.1465, 0.4462891, 2.1465, -1.0439453, 2.1465, 0.293457, , , , , , , , , , , , , , , , , , , , , , 
0.0830769, -0.0172885, 2.16, -0.3325195, 2.16, -1.0102539, 2.16, 0.2397461, 0.0830769, -0.0095674, 2.16, 0.597168, 2.16, -1.059082, 2.16, -0.0864258, 0.0830769, -0.008896, 2.16, 0.5244141, 2.16, -1, 2.16, -0.6123047, 0.0830769, 0.0238346, 2.16, 0.4897461, 2.16, -1.0581055, 2.16, 0.3007812, , , , , , , , , , , , , , , , , , , , , , 
0.0835962, -0.0176242, 2.1735, -0.3041992, 2.1735, -1.0751953, 2.1735, 0.2695312, 0.0835962, -0.008896, 2.1735, 0.5083008, 2.1735, -1.0859375, 2.1735, -0.1313477, 0.0835962, -0.0072175, 2.1735, 0.5742188, 2.1735, -0.9628906, 2.1735, -0.5693359, 0.0835962, 0.0307164, 2.1735, 0.519043, 2.1735, -1.0610352, 2.1735, 0.2915039, , , , , , , , , , , , , , , , , , , , , , 
0.0841154, -0.0176242, 2.187, -0.3447266, 2.187, -1.1152344, 2.187, 0.375, 0.0841154, -0.0092317, 2.187, 0.4692383, 2.187, -1.0454102, 2.187, -0.1728516, 0.0841154, -0.0052033, 2.187, 0.496582, 2.187, -0.9423828, 2.187, -0.5517578, 0.0841154, 0.0344091, 2.187, 0.5053711, 2.187, -1.0566406, 2.187, 0.2807617, , , , , , , , , , , , , , , , , , , , , , 
0.0846346, -0.0219883, 2.2005, -0.3623047, 2.2005, -1.0512695, 2.2005, 0.3320312, 0.0846346, -0.0082246, 2.2005, 0.4487305, 2.2005, -0.9584961, 2.2005, -0.1918945, 0.0846346, -0.0038605, 2.2005, 0.375, 2.2005, -0.9633789, 2.2005, -0.5366211, 0.0846346, 0.033402, 2.2005, 0.4619141, 2.2005, -1.0405273, 2.2005, 0.2768555, , , , , , , , , , , , , , , , , , , , , , 
0.0851538, -0.0261845, 2.214, -0.394043, 2.214, -1.0166016, 2.214, 0.2993164, 0.0851538, -0.0068818, 2.214, 0.5180664, 2.214, -0.9516602, 2.214, -0.1396484, 0.0851538, -0.0018463, 2.214, 0.3310547, 2.214, -1, 2.214, -0.5078125, 0.0851538, 0.0332341, 2.214, 0.4267578, 2.214, -1.0092773, 2.214, 0.2612305, , , , , , , , , , , , , , , , , , , , , , 
0.0856731, -0.0273594, 2.2275, -0.3764648, 2.2275, -1.0571289, 2.2275, 0.2260742, 0.0856731, -0.0068818, 2.2275, 0.5986328, 2.2275, -1.0385742, 2.2275, -0.0395508, 0.0856731, -0.0001678, 2.2275, 0.3803711, 2.2275, -0.9819336, 2.2275, -0.4941406, 0.0856731, 0.033402, 2.2275, 0.409668, 2.2275, -0.9951172, 2.2275, 0.2426758, , , , , , , , , , , , , , , , , , , , , , 
0.0861923, -0.0213169, 2.241, -0.3427734, 2.241, -1.0698242, 2.241, 0.2001953, 0.0861923, -0.0065461, 2.241, 0.6201172, 2.241, -1.0776367, 2.241, 0.0205078, 0.0861923, -0.0005035, 2.241, 0.4296875, 2.241, -0.9316406, 2.241, -0.5102539, 0.0861923, 0.0313878, 2.241, 0.4111328, 2.241, -0.9794922, 2.241, 0.2382812, , , , , , , , , , , , , , , , , , , , , , 
0.0867115, -0.0095674, 2.2545, -0.2822266, 2.2545, -1.0234375, 2.2545, 0.1757812, 0.0867115, -0.0043641, 2.2545, 0.543457, 2.2545, -0.987793, 2.2545, -0.0141602, 0.0867115, -0.0028534, 2.2545, 0.4238281, 2.2545, -0.9052734, 2.2545, -0.5205078, 0.0867115, 0.0280308, 2.2545, 0.4238281, 2.2545, -0.9477539, 2.2545, 0.21875, , , , , , , , , , , , , , , , , , , , , , 
0.0872308, -0.0001678, 2.268, -0.2646484, 2.268, -1, 2.268, 0.1855469, 0.0872308, -0.0041962, 2.268, 0.4667969, 2.268, -0.9023438, 2.268, -0.0234375, 0.0872308, -0.0018463, 2.268, 0.3505859, 2.268, -0.8881836, 2.268, -0.5131836, 0.0872308, 0.0240024, 2.268, 0.4521484, 2.268, -0.9267578, 2.268, 0.1899414, , , , , , , , , , , , , , , , , , , , , , 
0.08775, 0.0045319, 2.2815, -0.3310547, 2.2815, -0.9672852, 2.2815, 0.1054688, 0.08775, -0.005539, 2.2815, 0.3969727, 2.2815, -0.9003906, 2.2815, 0.0126953, 0.08775, -0.0001678, 2.2815, 0.2871094, 2.2815, -0.9130859, 2.2815, -0.4970703, 0.08775, 0.0219883, 2.2815, 0.4663086, 2.2815, -0.9228516, 2.2815, 0.1425781, , , , , , , , , , , , , , , , , , , , , , 
0.0882692, 0.0070497, 2.295, -0.3496094, 2.295, -0.9291992, 2.295, 0.1030273, 0.0882692, -0.0068818, 2.295, 0.4726562, 2.295, -0.8798828, 2.295, 0.1025391, 0.0882692, 0.0003357, 2.295, 0.2807617, 2.295, -0.9589844, 2.295, -0.4633789, 0.0882692, 0.0209812, 2.295, 0.4438477, 2.295, -0.9243164, 2.295, 0.0854492, , , , , , , , , , , , , , , , , , , , , , 
0.0887885, 0.0092317, 2.3085, -0.2875977, 2.3085, -0.9365234, 2.3085, 0.0546875, 0.0887885, -0.0068818, 2.3085, 0.5683594, 2.3085, -0.8505859, 2.3085, 0.0751953, 0.0887885, -0.0008392, 2.3085, 0.309082, 2.3085, -0.9829102, 2.3085, -0.4277344, 0.0887885, 0.0179599, 2.3085, 0.4165039, 2.3085, -0.9140625, 2.3085, 0.0541992, , , , , , , , , , , , , , , , , , , , , , 
0.0893077, 0.0115816, 2.322, -0.1708984, 2.322, -0.9892578, 2.322, 0.0268555, 0.0893077, -0.0063783, 2.322, 0.5439453, 2.322, -0.8452148, 2.322, -0.050293, 0.0893077, -0.0028534, 2.322, 0.3115234, 2.322, -0.9663086, 2.322, -0.4204102, 0.0893077, 0.0149386, 2.322, 0.4208984, 2.322, -0.9067383, 2.322, 0.0419922, , , , , , , , , , , , , , , , , , , , , , 
0.0898269, 0.012253, 2.3355, -0.1435547, 2.3355, -1.0107422, 2.3355, 0.0561523, 0.0898269, -0.0060426, 2.3355, 0.2915039, 2.3355, -0.8710938, 2.3355, -0.0756836, 0.0898269, -0.0050355, 2.3355, 0.3154297, 2.3355, -0.9399414, 2.3355, -0.4306641, 0.0898269, 0.0132601, 2.3355, 0.4506836, 2.3355, -0.9057617, 2.3355, 0.0380859, , , , , , , , , , , , , , , , , , , , , , 
0.0903462, 0.0115816, 2.349, -0.3408203, 2.349, -0.9819336, 2.349, 0.1171875, 0.0903462, -0.0068818, 2.349, 0.0322266, 2.349, -0.9033203, 2.349, -0.0102539, 0.0903462, -0.0072175, 2.349, 0.3251953, 2.349, -0.878418, 2.349, -0.4916992, 0.0903462, 0.0135958, 2.349, 0.4912109, 2.349, -0.9350586, 2.349, 0.0405273, , , , , , , , , , , , , , , , , , , , , , 
0.0908654, 0.0124208, 2.3625, -0.6425781, 2.3625, -0.9257812, 2.3625, 0.1533203, 0.0908654, -0.0075532, 2.3625, 0.0620117, 2.3625, -0.8935547, 2.3625, 0.0356445, 0.0908654, -0.0068818, 2.3625, 0.2700195, 2.3625, -0.8676758, 2.3625, -0.5019531, 0.0908654, 0.0129244, 2.3625, 0.5087891, 2.3625, -0.9663086, 2.3625, 0.0961914, , , , , , , , , , , , , , , , , , , , , , 
0.0913846, 0.012253, 2.376, -0.6914062, 2.376, -0.8383789, 2.376, 0.1728516, 0.0913846, -0.0075532, 2.376, 0.5541992, 2.376, -0.8198242, 2.376, 0.1030273, 0.0913846, -0.005539, 2.376, 0.2617188, 2.376, -0.8686523, 2.376, -0.4658203, 0.0913846, 0.0127565, 2.376, 0.4716797, 2.376, -0.9165039, 2.376, 0.1123047, , , , , , , , , , , , , , , , , , , , , , 
0.0919038, 0.0142672, 2.3895, -0.4780273, 2.3895, -0.8261719, 2.3895, 0.2260742, 0.0919038, -0.0083925, 2.3895, 1.0234375, 2.3895, -0.7773438, 2.3895, 0.1254883, 0.0919038, -0.0048676, 2.3895, 0.315918, 2.3895, -0.8828125, 2.3895, -0.4287109, 0.0919038, 0.0139315, 2.3895, 0.3779297, 2.3895, -0.8911133, 2.3895, 0.1025391, , , , , , , , , , , , , , , , , , , , , , 
0.0924231, 0.0159457, 2.403, -0.2910156, 2.403, -0.8769531, 2.403, 0.2426758, 0.0924231, -0.0092317, 2.403, 1.0551758, 2.403, -0.7666016, 2.403, 0.065918, 0.0924231, -0.005539, 2.403, 0.4106445, 2.403, -0.9404297, 2.403, -0.3544922, 0.0924231, 0.0135958, 2.403, 0.2773438, 2.403, -0.9165039, 2.403, 0.1137695, , , , , , , , , , , , , , , , , , , , , , 
0.0929423, 0.0176242, 2.4165, -0.2495117, 2.4165, -0.934082, 2.4165, 0.1582031, 0.0929423, -0.0099031, 2.4165, 0.715332, 2.4165, -0.824707, 2.4165, 0.1079102, 0.0929423, -0.0075532, 2.4165, 0.3183594, 2.4165, -1.0068359, 2.4165, -0.2915039, 0.0929423, 0.0099031, 2.4165, 0.1757812, 2.4165, -0.9536133, 2.4165, 0.109375, , , , , , , , , , , , , , , , , , , , , , 
0.0934615, 0.0184634, 2.43, -0.3852539, 2.43, -0.9516602, 2.43, 0.109375, 0.0934615, -0.0102388, 2.43, 0.3808594, 2.43, -0.8452148, 2.43, 0.0595703, 0.0934615, -0.0075532, 2.43, 0.2080078, 2.43, -0.9858398, 2.43, -0.2490234, 0.0934615, 0.0075532, 2.43, 0.105957, 2.43, -0.9619141, 2.43, 0.0620117, , , , , , , , , , , , , , , , , , , , , , 
0.0939808, 0.0171206, 2.4435, -0.4912109, 2.4435, -0.8793945, 2.4435, 0.1313477, 0.0939808, -0.0105745, 2.4435, 0.3144531, 2.4435, -0.8378906, 2.4435, 0.0512695, 0.0939808, -0.0065461, 2.4435, 0.1918945, 2.4435, -0.9179688, 2.4435, -0.2910156, 0.0939808, 0.0075532, 2.4435, 0.1176758, 2.4435, -0.9428711, 2.4435, 0.0302734, , , , , , , , , , , , , , , , , , , , , , 
0.0945, 0.0137636, 2.457, -0.5810547, 2.457, -0.7817383, 2.457, 0.1430664, 0.0945, -0.0090639, 2.457, 0.3364258, 2.457, -0.7758789, 2.457, 0.0976562, 0.0945, -0.0050355, 2.457, 0.2412109, 2.457, -0.8608398, 2.457, -0.3842773, 0.0945, 0.0090639, 2.457, 0.1914062, 2.457, -0.9296875, 2.457, 0.0429688, , , , , , , , , , , , , , , , , , , , , , 
0.0950192, 0.0146029, 2.4705, -0.6103516, 2.4705, -0.734375, 2.4705, 0.1689453, 0.0950192, -0.0083925, 2.4705, 0.4697266, 2.4705, -0.6791992, 2.4705, 0.0566406, 0.0950192, -0.0041962, 2.4705, 0.2729492, 2.4705, -0.890625, 2.4705, -0.3325195, 0.0950192, 0.0085603, 2.4705, 0.2617188, 2.4705, -0.9394531, 2.4705, 0.0952148, , , , , , , , , , , , , , , , , , , , , , 
0.0955385, 0.0159457, 2.484, -0.590332, 2.484, -0.7285156, 2.484, 0.2641602, 0.0955385, -0.008896, 2.484, 0.6948242, 2.484, -0.675293, 2.484, -0.0439453, 0.0955385, -0.0045319, 2.484, 0.3125, 2.484, -0.9423828, 2.484, -0.2578125, 0.0955385, 0.0057069, 2.484, 0.2573242, 2.484, -0.9414062, 2.484, 0.1367188, , , , , , , , , , , , , , , , , , , , , , 
0.0960577, 0.0213169, 2.4975, -0.4863281, 2.4975, -0.8017578, 2.4975, 0.3696289, 0.0960577, -0.0065461, 2.4975, 0.7080078, 2.4975, -0.7314453, 2.4975, -0.1298828, 0.0960577, -0.0072175, 2.4975, 0.3520508, 2.4975, -0.9492188, 2.4975, -0.2114258, 0.0960577, 0.0025177, 2.4975, 0.2319336, 2.4975, -0.9370117, 2.4975, 0.1269531, , , , , , , , , , , , , , , , , , , , , , 
0.0965769, 0.0297093, 2.511, -0.4145508, 2.511, -0.7670898, 2.511, 0.4570312, 0.0965769, -0.0046998, 2.511, 0.6088867, 2.511, -0.671875, 2.511, -0.0805664, 0.0965769, -0.0082246, 2.511, 0.3867188, 2.511, -0.9462891, 2.511, -0.1904297, 0.0965769, -0.0016785, 2.511, 0.1762695, 2.511, -0.9394531, 2.511, 0.0844727, , , , , , , , , , , , , , , , , , , , , , 
0.0970962, 0.0360876, 2.5245, -0.4741211, 2.5245, -0.5976562, 2.5245, 0.3974609, 0.0970962, -0.005539, 2.5245, 0.5839844, 2.5245, -0.5229492, 2.5245, 0.0922852, 0.0970962, -0.008896, 2.5245, 0.3823242, 2.5245, -0.9423828, 2.5245, -0.1430664, 0.0970962, -0.0031891, 2.5245, 0.1254883, 2.5245, -0.9428711, 2.5245, 0.0771484, , , , , , , , , , , , , , , , , , , , , , 
0.0976154, 0.0411231, 2.538, -0.6220703, 2.538, -0.46875, 2.538, 0.2177734, 0.0976154, -0.0058747, 2.538, 0.6474609, 2.538, -0.4277344, 2.538, 0.0976562, 0.0976154, -0.0104067, 2.538, 0.3793945, 2.538, -0.9233398, 2.538, -0.0600586, 0.0976154, -0.0015106, 2.538, 0.0292969, 2.538, -0.9018555, 2.538, 0.0996094, , , , , , , , , , , , , , , , , , , , , , 
0.0981346, 0.0459907, 2.5515, -0.6308594, 2.5515, -0.6533203, 2.5515, 0.0805664, 0.0981346, -0.0043641, 2.5515, 0.5966797, 2.5515, -0.5522461, 2.5515, 0.112793, 0.0981346, -0.0119173, 2.5515, 0.3632812, 2.5515, -0.9189453, 2.5515, -0.168457, 0.0981346, -0.0001678, 2.5515, -0.0693359, 2.5515, -0.8613281, 2.5515, 0.1083984, , , , , , , , , , , , , , , , , , , , , , 
0.0986538, 0.0448157, 2.565, -0.5180664, 2.565, -1.0078125, 2.565, 0.0820312, 0.0986538, -0.0035248, 2.565, 0.5791016, 2.565, -0.6958008, 2.565, 0.0800781, 0.0986538, -0.0125887, 2.565, 0.2871094, 2.565, -0.8466797, 2.565, -0.3168945, 0.0986538, 0.0008392, 2.565, 0.0131836, 2.565, -0.8598633, 2.565, 0.1586914, , , , , , , , , , , , , , , , , , , , , , 
0.0991731, 0.0381018, 2.5785, -0.2817383, 2.5785, -1.1977539, 2.5785, 0.1289062, 0.0991731, -0.0028534, 2.5785, 0.543457, 2.5785, -1.0825195, 2.5785, -0.0146484, 0.0991731, -0.0125887, 2.5785, 0.2973633, 2.5785, -0.737793, 2.5785, -0.3652344, 0.0991731, 0.0006714, 2.5785, 0.2915039, 2.5785, -0.8579102, 2.5785, 0.1772461, , , , , , , , , , , , , , , , , , , , , , 
0.0996923, 0.0303807, 2.592, -0.1650391, 2.592, -1.2734375, 2.592, 0.340332, 0.0996923, -0.0045319, 2.592, 0.3696289, 2.592, -1.3901367, 2.592, -0.1206055, 0.0996923, -0.0132601, 2.592, 0.4560547, 2.592, -0.7524414, 2.592, -0.4228516, 0.0996923, -0.0008392, 2.592, 0.5361328, 2.592, -0.8583984, 2.592, -0.0009766, , , , , , , , , , , , , , , , , , , , , , 
0.1002115, 0.0260166, 2.6055, -0.2670898, 2.6055, -0.9804688, 2.6055, 0.2700195, 0.1002115, -0.0068818, 2.6055, 0.262207, 2.6055, -1.3422852, 2.6055, -0.059082, 0.1002115, -0.0135958, 2.6055, 0.5229492, 2.6055, -0.934082, 2.6055, -0.3056641, 0.1002115, 0.0011749, 2.6055, 0.6635742, 2.6055, -0.9897461, 2.6055, -0.184082, , , , , , , , , , , , , , , , , , , , , , 
0.1007308, 0.0240024, 2.619, -0.5478516, 2.619, -0.8842773, 2.619, 0.2211914, 0.1007308, -0.0062104, 2.619, 0.3530273, 2.619, -1.0620117, 2.619, -0.1367188, 0.1007308, -0.012253, 2.619, 0.4379883, 2.619, -1.0585938, 2.619, -0.2353516, 0.1007308, 0.0052033, 2.619, 0.5258789, 2.619, -1.2167969, 2.619, -0.0664062, , , , , , , , , , , , , , , , , , , , , , 
0.10125, 0.0218204, 2.6325, -0.4086914, 2.6325, -1.0419922, 2.6325, 0.4501953, 0.10125, -0.005539, 2.6325, 0.6171875, 2.6325, -0.8378906, 2.6325, -0.2714844, 0.10125, -0.0099031, 2.6325, 0.3613281, 2.6325, -1.034668, 2.6325, -0.1733398, 0.10125, 0.0068818, 2.6325, 0.1870117, 2.6325, -1.2573242, 2.6325, 0.1679688, , , , , , , , , , , , , , , , , , , , , , 
0.1017692, 0.0159457, 2.646, -0.1235352, 2.646, -1.0302734, 2.646, 0.5205078, 0.1017692, -0.0058747, 2.646, 0.7875977, 2.646, -0.7324219, 2.646, -0.2119141, 0.1017692, -0.008896, 2.646, 0.3457031, 2.646, -0.996582, 2.646, -0.1665039, 0.1017692, 0.0092317, 2.646, 0.0395508, 2.646, -1.1787109, 2.646, 0.2519531, , , , , , , , , , , , , , , , , , , , , , 
0.1022885, 0.0077211, 2.6595, -0.0610352, 2.6595, -0.8720703, 2.6595, 0.4135742, 0.1022885, -0.0068818, 2.6595, 0.6938477, 2.6595, -0.8334961, 2.6595, -0.0400391, 0.1022885, -0.008896, 2.6595, 0.4350586, 2.6595, -0.9130859, 2.6595, -0.1005859, 0.1022885, 0.0132601, 2.6595, -0.1401367, 2.6595, -0.9785156, 2.6595, 0.3779297, , , , , , , , , , , , , , , , , , , , , , 
0.1028077, -0.0025177, 2.673, -0.6313477, 2.673, -0.7636719, 2.673, 0.2041016, 0.1028077, -0.0078889, 2.673, 0.5581055, 2.673, -0.9311523, 2.673, -0.0307617, 0.1028077, -0.0077211, 2.673, 0.527832, 2.673, -0.8544922, 2.673, -0.1445312, 0.1028077, 0.0179599, 2.673, -0.2441406, 2.673, -0.8964844, 2.673, 0.4008789, , , , , , , , , , , , , , , , , , , , , , 
0.1033269, -0.0068818, 2.6865, -0.8251953, 2.6865, -0.800293, 2.6865, 0.2207031, 0.1033269, -0.0095674, 2.6865, 0.4677734, 2.6865, -0.9243164, 2.6865, -0.0234375, 0.1033269, -0.0043641, 2.6865, 0.315918, 2.6865, -0.8994141, 2.6865, -0.0732422, 0.1033269, 0.0206455, 2.6865, -0.2421875, 2.6865, -0.9604492, 2.6865, 0.1948242, , , , , , , , , , , , , , , , , , , , , , 
0.1038462, -0.0075532, 2.7, -0.5532227, 2.7, -0.8564453, 2.7, 0.2607422, 0.1038462, -0.0097353, 2.7, 0.3725586, 2.7, -0.8242188, 2.7, -0.0180664, 0.1038462, -0.0011749, 2.7, 0.0981445, 2.7, -0.9345703, 2.7, -0.019043, 0.1038462, 0.0238346, 2.7, -0.1938477, 2.7, -1.0986328, 2.7, 0.0180664, , , , , , , , , , , , , , , , , , , , , , 
0.1043654, -0.0129244, 2.7135, -0.3598633, 2.7135, -0.8549805, 2.7135, 0.2548828, 0.1043654, -0.0095674, 2.7135, 0.484375, 2.7135, -0.7524414, 2.7135, -0.0019531, 0.1043654, -0.0005035, 2.7135, 0.1674805, 2.7135, -0.9321289, 2.7135, 0.0205078, 0.1043654, 0.0243381, 2.7135, -0.1225586, 2.7135, -1.1191406, 2.7135, 0.0332031, , , , , , , , , , , , , , , , , , , , , , 
0.1048846, -0.0162814, 2.727, -0.4467773, 2.727, -0.8344727, 2.727, 0.2563477, 0.1048846, -0.0099031, 2.727, 0.6450195, 2.727, -0.8183594, 2.727, 0.0395508, 0.1048846, -0.0035248, 2.727, 0.3808594, 2.727, -0.894043, 2.727, -0.0439453, 0.1048846, 0.0260166, 2.727, 0.0473633, 2.727, -0.9614258, 2.727, 0.03125, , , , , , , , , , , , , , , , , , , , , , 
0.1054038, -0.0132601, 2.7405, -0.5234375, 2.7405, -0.8569336, 2.7405, 0.2822266, 0.1054038, -0.0095674, 2.7405, 0.6845703, 2.7405, -0.8798828, 2.7405, 0.0341797, 0.1054038, -0.0058747, 2.7405, 0.4516602, 2.7405, -0.9423828, 2.7405, -0.0029297, 0.1054038, 0.0280308, 2.7405, 0.2333984, 2.7405, -0.9101562, 2.7405, -0.0263672, , , , , , , , , , , , , , , , , , , , , , 
0.1059231, -0.0085603, 2.754, -0.4584961, 2.754, -0.8710938, 2.754, 0.3081055, 0.1059231, -0.0099031, 2.754, 0.6137695, 2.754, -0.8481445, 2.754, 0.0200195, 0.1059231, -0.0048676, 2.754, 0.40625, 2.754, -0.953125, 2.754, -0.0117188, 0.1059231, 0.0287022, 2.754, 0.2451172, 2.754, -1.0126953, 2.754, -0.034668, , , , , , , , , , , , , , , , , , , , , , 
0.1064423, -0.0038605, 2.7675, -0.3457031, 2.7675, -0.7958984, 2.7675, 0.2480469, 0.1064423, -0.0099031, 2.7675, 0.5644531, 2.7675, -0.7089844, 2.7675, 0.0449219, 0.1064423, -0.0035248, 2.7675, 0.3481445, 2.7675, -0.9306641, 2.7675, 0.0097656, 0.1064423, 0.0310521, 2.7675, 0.1391602, 2.7675, -1.0209961, 2.7675, -0.0961914, , , , , , , , , , , , , , , , , , , , , , 
0.1069615, 0.0045319, 2.781, -0.4467773, 2.781, -0.75, 2.781, 0.1333008, 0.1069615, -0.008896, 2.781, 0.5205078, 2.781, -0.6918945, 2.781, 0.1342773, 0.1069615, -0.0048676, 2.781, 0.3027344, 2.781, -0.9243164, 2.781, -0.0102539, 0.1069615, 0.0290379, 2.781, 0.0380859, 2.781, -0.9282227, 2.781, -0.1499023, , , , , , , , , , , , , , , , , , , , , , 
0.1074808, 0.0119173, 2.7945, -0.6259766, 2.7945, -0.7143555, 2.7945, 0.0351562, 0.1074808, -0.0090639, 2.7945, 0.5107422, 2.7945, -0.7519531, 2.7945, 0.1606445, 0.1074808, -0.0078889, 2.7945, 0.2617188, 2.7945, -0.8999023, 2.7945, -0.0371094, 0.1074808, 0.0246738, 2.7945, 0.0126953, 2.7945, -0.8999023, 2.7945, -0.1254883, , , , , , , , , , , , , , , , , , , , , , 
0.108, 0.0159457, 2.808, -0.65625, 2.808, -0.703125, 2.808, 0.0385742, 0.108, -0.0092317, 2.808, 0.4902344, 2.808, -0.7749023, 2.808, 0.1958008, 0.108, -0.0085603, 2.808, -0.1948242, 2.808, -0.8964844, 2.808, 0.0859375, 0.108, 0.0206455, 2.808, 0.0083008, 2.808, -0.9111328, 2.808, -0.0512695, , , , , , , , , , , , , , , , , , , , , , 
0.1085192, 0.0191348, 2.8215, -0.5146484, 2.8215, -0.8789062, 2.8215, 0.0507812, 0.1085192, -0.0072175, 2.8215, 0.4306641, 2.8215, -0.8393555, 2.8215, 0.1782227, 0.1085192, -0.0075532, 2.8215, 0.2368164, 2.8215, -0.9003906, 2.8215, -0.0317383, 0.1085192, 0.0181277, 2.8215, -0.0268555, 2.8215, -0.9160156, 2.8215, -0.0288086, , , , , , , , , , , , , , , , , , , , , , 
0.1090385, 0.0203098, 2.835, -0.3935547, 2.835, -0.9677734, 2.835, 0.0722656, 0.1090385, -0.0048676, 2.835, 0.5268555, 2.835, -0.9628906, 2.835, 0.1074219, 0.1090385, -0.0075532, 2.835, 0.4311523, 2.835, -1.0527344, 2.835, -0.081543, 0.1090385, 0.0179599, 2.835, 0.0083008, 2.835, -0.9946289, 2.835, -0.0273438, , , , , , , , , , , , , , , , , , , , , , 
0.1095577, 0.0209812, 2.8485, -0.3920898, 2.8485, -0.940918, 2.8485, 0.0922852, 0.1095577, -0.0041962, 2.8485, 0.4604492, 2.8485, -0.9584961, 2.8485, 0.0673828, 0.1095577, -0.0072175, 2.8485, 0.2919922, 2.8485, -0.9257812, 2.8485, -0.0825195, 0.1095577, 0.0206455, 2.8485, 0.1386719, 2.8485, -1.0805664, 2.8485, 0.0117188, , , , , , , , , , , , , , , , , , , , , , 
0.1100769, 0.0224918, 2.862, -0.4223633, 2.862, -0.9443359, 2.862, 0.1503906, 0.1100769, -0.0031891, 2.862, 0.4526367, 2.862, -0.9472656, 2.862, -0.0209961, 0.1100769, -0.0057069, 2.862, 0.3476562, 2.862, -0.9189453, 2.862, -0.0561523, 0.1100769, 0.0223239, 2.862, 0.1992188, 2.862, -1.0683594, 2.862, 0.0698242, , , , , , , , , , , , , , , , , , , , , , 
0.1105962, 0.0236667, 2.8755, -0.4804688, 2.8755, -1.0073242, 2.8755, 0.1728516, 0.1105962, -0.003357, 2.8755, 0.5253906, 2.8755, -1.0112305, 2.8755, 0.0229492, 0.1105962, -0.0057069, 2.8755, 0.409668, 2.8755, -0.9799805, 2.8755, -0.0722656, 0.1105962, 0.0204776, 2.8755, 0.1474609, 2.8755, -1.0239258, 2.8755, 0.1142578, , , , , , , , , , , , , , , , , , , , , , 
0.1111154, 0.0253452, 2.889, -0.5166016, 2.889, -1.0185547, 2.889, 0.2480469, 0.1111154, -0.0048676, 2.889, 0.609375, 2.889, -1.0512695, 2.889, -0.0209961, 0.1111154, -0.0065461, 2.889, 0.5595703, 2.889, -1.0166016, 2.889, -0.059082, 0.1111154, 0.0179599, 2.889, 0.1542969, 2.889, -1.1181641, 2.889, 0.1518555, , , , , , , , , , , , , , , , , , , , , , 
0.1116346, 0.024506, 2.9025, -0.5087891, 2.9025, -0.8901367, 2.9025, 0.2265625, 0.1116346, -0.0041962, 2.9025, 0.6259766, 2.9025, -0.9013672, 2.9025, 0.059082, 0.1116346, -0.0095674, 2.9025, 0.7036133, 2.9025, -1.0566406, 2.9025, -0.0654297, 0.1116346, 0.0159457, 2.9025, 0.1015625, 2.9025, -1.206543, 2.9025, 0.2119141, , , , , , , , , , , , , , , , , , , , , , 
0.1121538, 0.0240024, 2.916, -0.5668945, 2.916, -0.8071289, 2.916, 0.0927734, 0.1121538, -0.003357, 2.916, 0.6459961, 2.916, -0.7832031, 2.916, 0.0458984, 0.1121538, -0.0092317, 2.916, 0.6665039, 2.916, -1.0097656, 2.916, -0.0488281, 0.1121538, 0.0164492, 2.916, -0.0200195, 2.916, -1.0864258, 2.916, 0.2084961, , , , , , , , , , , , , , , , , , , , , , 
0.1126731, 0.0280308, 2.9295, -0.7109375, 2.9295, -0.909668, 2.9295, 0.4375, 0.1126731, -0.0045319, 2.9295, 0.6132812, 2.9295, -0.7192383, 2.9295, -0.2788086, 0.1126731, -0.0070497, 2.9295, 0.4516602, 2.9295, -0.8574219, 2.9295, -0.0341797, 0.1126731, 0.018967, 2.9295, -0.0332031, 2.9295, -0.9389648, 2.9295, 0.0361328, , , , , , , , , , , , , , , , , , , , , , 
0.1131923, 0.0271916, 2.943, -0.5351562, 2.943, -0.987793, 2.943, 0.2363281, 0.1131923, -0.005539, 2.943, 0.5273438, 2.943, -0.6772461, 2.943, 0.1005859, 0.1131923, -0.0077211, 2.943, 0.3525391, 2.943, -0.8618164, 2.943, 0.0576172, 0.1131923, 0.0206455, 2.943, -0.0024414, 2.943, -0.925293, 2.943, -0.012207, , , , , , , , , , , , , , , , , , , , , , 
0.1137115, 0.023331, 2.9565, -0.4726562, 2.9565, -0.8276367, 2.9565, 0.3203125, 0.1137115, -0.0046998, 2.9565, 0.6416016, 2.9565, -0.9765625, 2.9565, -0.1494141, 0.1137115, -0.0099031, 2.9565, 0.5981445, 2.9565, -0.8920898, 2.9565, 0.105957, 0.1137115, 0.0193027, 2.9565, 0.0844727, 2.9565, -0.9868164, 2.9565, -0.03125, , , , , , , , , , , , , , , , , , , , , , 
0.1142308, 0.0226596, 2.97, -0.456543, 2.97, -0.9135742, 2.97, 0.2358398, 0.1142308, -0.005539, 2.97, 0.6171875, 2.97, -0.9448242, 2.97, 0.1367188, 0.1142308, -0.0092317, 2.97, 0.5883789, 2.97, -0.9335938, 2.97, 0.1245117, 0.1142308, 0.0171206, 2.97, 0.2358398, 2.97, -1.0966797, 2.97, -0.050293, , , , , , , , , , , , , , , , , , , , , , 
0.11475, 0.023331, 2.9835, -0.5170898, 2.9835, -0.7827148, 2.9835, 0.1650391, 0.11475, -0.0077211, 2.9835, 0.7250977, 2.9835, -0.7412109, 2.9835, 0.1879883, 0.11475, -0.0078889, 2.9835, 0.3891602, 2.9835, -1.0449219, 2.9835, 0.2143555, 0.11475, 0.0146029, 2.9835, 0.2075195, 2.9835, -1.1049805, 2.9835, -0.0024414, , , , , , , , , , , , , , , , , , , , , , 
0.1152692, 0.0213169, 2.997, -0.7744141, 2.997, -0.6445312, 2.997, 0.0893555, 0.1152692, -0.0092317, 2.997, 0.7016602, 2.997, -0.534668, 2.997, 0.21875, 0.1152692, -0.0085603, 2.997, 0.0742188, 2.997, -1.1083984, 2.997, 0.137207, 0.1152692, 0.0115816, 2.997, -0.0571289, 2.997, -0.9467773, 2.997, 0.0136719, , , , , , , , , , , , , , , , , , , , , , 
0.1157885, 0.0224918, 3.0105, -0.9150391, 3.0105, -0.7304688, 3.0105, 0.0576172, 0.1157885, -0.0095674, 3.0105, 0.6938477, 3.0105, -0.6484375, 3.0105, 0.1762695, 0.1157885, -0.0082246, 3.0105, -0.1469727, 3.0105, -1.0625, 3.0105, 0.0566406, 0.1157885, 0.0063783, 3.0105, -0.2856445, 3.0105, -0.8398438, 3.0105, -0.0664062, , , , , , , , , , , , , , , , , , , , , , 
0.1163077, 0.0317235, 3.024, -0.6484375, 3.024, -1.0415039, 3.024, 0.2724609, 0.1163077, -0.008896, 3.024, 0.4711914, 3.024, -1.0478516, 3.024, -0.1572266, 0.1163077, -0.0072175, 3.024, 0.112793, 3.024, -1.0410156, 3.024, 0.0405273, 0.1163077, -0.002182, 3.024, -0.2011719, 3.024, -1.0874023, 3.024, -0.0639648, , , , , , , , , , , , , , , , , , , , , , 
0.1168269, 0.0433051, 3.0375, -0.3764648, 3.0375, -1.0981445, 3.0375, 0.28125, 0.1168269, -0.0082246, 3.0375, 0.5185547, 3.0375, -1.1782227, 3.0375, 0.1884766, 0.1168269, -0.008896, 3.0375, 0.5361328, 3.0375, -1.0546875, 3.0375, -0.0014648, 0.1168269, -0.012253, 3.0375, 0.1503906, 3.0375, -1.3417969, 3.0375, 0.012207, , , , , , , , , , , , , , , , , , , , , , 
0.1173462, 0.0468299, 3.051, -0.6767578, 3.051, -0.949707, 3.051, 0.2641602, 0.1173462, -0.0085603, 3.051, 0.7050781, 3.051, -1.125, 3.051, 0.0791016, 0.1173462, -0.0129244, 3.051, 0.6806641, 3.051, -1.1186523, 3.051, 0.0229492, 0.1173462, -0.0224918, 3.051, 0.2329102, 3.051, -1.3095703, 3.051, 0.0922852, , , , , , , , , , , , , , , , , , , , , , 
0.1178654, 0.0441444, 3.0645, -0.8173828, 3.0645, -0.8891602, 3.0645, 0.2250977, 0.1178654, -0.0092317, 3.0645, 0.9648438, 3.0645, -0.8955078, 3.0645, 0.09375, 0.1178654, -0.0157778, 3.0645, 0.6713867, 3.0645, -1.1479492, 3.0645, 0.0126953, 0.1178654, -0.0256809, 3.0645, 0.0336914, 3.0645, -1.2666016, 3.0645, 0.1958008, , , , , , , , , , , , , , , , , , , , , , 
0.1183846, 0.0414588, 3.078, -0.7329102, 3.078, -0.8911133, 3.078, 0.3046875, 0.1183846, -0.0095674, 3.078, 0.7875977, 3.078, -0.8857422, 3.078, 0.043457, 0.1183846, -0.0166171, 3.078, 0.5917969, 3.078, -1.1347656, 3.078, 0.1347656, 0.1183846, -0.0223239, 3.078, -0.2348633, 3.078, -1.2358398, 3.078, 0.1850586, , , , , , , , , , , , , , , , , , , , , , 
0.1189038, 0.040116, 3.0915, -0.5761719, 3.0915, -0.9199219, 3.0915, 0.2802734, 0.1189038, -0.0082246, 3.0915, 0.5678711, 3.0915, -0.96875, 3.0915, 0.0170898, 0.1189038, -0.0162814, 3.0915, 0.4082031, 3.0915, -1.1132812, 3.0915, 0.0727539, 0.1189038, -0.0149386, 3.0915, -0.3271484, 3.0915, -1.2202148, 3.0915, 0.1079102, , , , , , , , , , , , , , , , , , , , , , 
0.1194231, 0.0347448, 3.105, -0.5952148, 3.105, -0.9741211, 3.105, 0.1972656, 0.1194231, -0.0062104, 3.105, 0.5610352, 3.105, -0.9643555, 3.105, 0.0859375, 0.1194231, -0.0169528, 3.105, 0.2929688, 3.105, -1.0898438, 3.105, 0.0683594, 0.1194231, -0.0085603, 3.105, -0.234375, 3.105, -1.25, 3.105, 0.1225586, , , , , , , , , , , , , , , , , , , , , , 
0.1199423, 0.0240024, 3.1185, -0.5981445, 3.1185, -1.0507812, 3.1185, 0.1230469, 0.1199423, -0.0065461, 3.1185, 0.6655273, 3.1185, -1.027832, 3.1185, 0.1337891, 0.1199423, -0.0166171, 3.1185, 0.3173828, 3.1185, -1.0610352, 3.1185, -0.012207, 0.1199423, -0.0041962, 3.1185, -0.0209961, 3.1185, -1.2915039, 3.1185, 0.190918, , , , , , , , , , , , , , , , , , , , , , 
0.1204615, 0.0139315, 3.132, -0.5444336, 3.132, -1.0649414, 3.132, 0.2089844, 0.1204615, -0.0099031, 3.132, 0.6582031, 3.132, -1.0693359, 3.132, 0.140625, 0.1204615, -0.0149386, 3.132, 0.5209961, 3.132, -1.0849609, 3.132, -0.0649414, 0.1204615, -0.0011749, 3.132, 0.0991211, 3.132, -1.2109375, 3.132, 0.1328125, , , , , , , , , , , , , , , , , , , , , , 
0.1209808, 0.0075532, 3.1455, -0.5605469, 3.1455, -1.0415039, 3.1455, 0.1943359, 0.1209808, -0.0125887, 3.1455, 0.6586914, 3.1455, -0.9702148, 3.1455, 0.0068359, 0.1209808, -0.0135958, 3.1455, 0.5883789, 3.1455, -1.059082, 3.1455, -0.0830078, 0.1209808, 0.0018463, 3.1455, 0.2114258, 3.1455, -1.1352539, 3.1455, 0.0546875, , , , , , , , , , , , , , , , , , , , , , 
0.1215, 0.0045319, 3.159, -0.5454102, 3.159, -0.9848633, 3.159, 0.1699219, 0.1215, -0.0119173, 3.159, 0.5229492, 3.159, -0.9833984, 3.159, 0.0834961, 0.1215, -0.0129244, 3.159, 0.5507812, 3.159, -1.0600586, 3.159, -0.1020508, 0.1215, 0.0045319, 3.159, 0.2827148, 3.159, -1.1367188, 3.159, 0.0600586, , , , , , , , , , , , , , , , , , , , , , 
0.1220192, 0.0025177, 3.1725, -0.5244141, 3.1725, -1.1166992, 3.1725, 0.2094727, 0.1220192, -0.008896, 3.1725, 0.5390625, 3.1725, -1.0444336, 3.1725, 0.0771484, 0.1220192, -0.012253, 3.1725, 0.4926758, 3.1725, -1.0385742, 3.1725, -0.0688477, 0.1220192, 0.0072175, 3.1725, 0.3242188, 3.1725, -1.15625, 3.1725, 0.003418, , , , , , , , , , , , , , , , , , , , , , 
0.1225385, -0.0041962, 3.186, -0.581543, 3.186, -1.0771484, 3.186, 0.2006836, 0.1225385, -0.0078889, 3.186, 0.6503906, 3.186, -1.0961914, 3.186, 0.1328125, 0.1225385, -0.0109102, 3.186, 0.4575195, 3.186, -1.0639648, 3.186, -0.0947266, 0.1225385, 0.0109102, 3.186, 0.3422852, 3.186, -1.1704102, 3.186, 0.0170898, , , , , , , , , , , , , , , , , , , , , , 
0.1230577, -0.0102388, 3.1995, -0.6352539, 3.1995, -1.0063477, 3.1995, 0.2270508, 0.1230577, -0.0085603, 3.1995, 0.7456055, 3.1995, -0.9936523, 3.1995, 0.137207, 0.1230577, -0.0085603, 3.1995, 0.5307617, 3.1995, -1.1176758, 3.1995, -0.0249023, 0.1230577, 0.0171206, 3.1995, 0.2773438, 3.1995, -1.1914062, 3.1995, 0.0551758, , , , , , , , , , , , , , , , , , , , , , 
0.1235769, -0.0159457, 3.213, -0.6391602, 3.213, -0.9428711, 3.213, 0.215332, 0.1235769, -0.0085603, 3.213, 0.7490234, 3.213, -0.8647461, 3.213, 0.1318359, 0.1235769, -0.0068818, 3.213, 0.534668, 3.213, -1.1459961, 3.213, -0.0375977, 0.1235769, 0.0229953, 3.213, 0.1044922, 3.213, -1.1582031, 3.213, 0.1030273, , , , , , , , , , , , , , , , , , , , , , 
0.1240962, -0.0206455, 3.2265, -0.5698242, 3.2265, -0.9453125, 3.2265, 0.1621094, 0.1240962, -0.0085603, 3.2265, 0.6713867, 3.2265, -0.8662109, 3.2265, 0.1376953, 0.1240962, -0.005539, 3.2265, 0.4819336, 3.2265, -1.1132812, 3.2265, -0.0463867, 0.1240962, 0.0258488, 3.2265, 0.0073242, 3.2265, -1.0766602, 3.2265, 0.1123047, , , , , , , , , , , , , , , , , , , , , , 
0.1246154, -0.0209812, 3.24, -0.5673828, 3.24, -0.9384766, 3.24, 0.2641602, 0.1246154, -0.0085603, 3.24, 0.6176758, 3.24, -0.9575195, 3.24, 0.0581055, 0.1246154, -0.0060426, 3.24, 0.4243164, 3.24, -1.1445312, 3.24, -0.0170898, 0.1246154, 0.0265202, 3.24, 0.0405273, 3.24, -1.0546875, 3.24, 0.1166992, , , , , , , , , , , , , , , , , , , , , , 
0.1251346, -0.0196384, 3.2535, -0.7329102, 3.2535, -0.8266602, 3.2535, 0.5200195, 0.1251346, -0.0068818, 3.2535, 0.6313477, 3.2535, -0.9287109, 3.2535, -0.0810547, 0.1251346, -0.0072175, 3.2535, 0.5058594, 3.2535, -1.0922852, 3.2535, 0.0332031, 0.1251346, 0.0290379, 3.2535, 0.0703125, 3.2535, -1.0810547, 3.2535, 0.1386719, , , , , , , , , , , , , , , , , , , , , , 
0.1256538, -0.0199741, 3.267, -0.7866211, 3.267, -0.8422852, 3.267, 0.4448242, 0.1256538, -0.0075532, 3.267, 0.809082, 3.267, -0.8310547, 3.267, -0.0830078, 0.1256538, -0.0072175, 3.267, 0.6459961, 3.267, -1.1015625, 3.267, 0.0966797, 0.1256538, 0.0303807, 3.267, 0.0673828, 3.267, -1.171875, 3.267, 0.2036133, , , , , , , , , , , , , , , , , , , , , , 
0.1261731, -0.0176242, 3.2805, -0.6616211, 3.2805, -0.8691406, 3.2805, 0.4179688, 0.1261731, -0.0093996, 3.2805, 0.8764648, 3.2805, -0.8510742, 3.2805, 0.0107422, 0.1261731, -0.0062104, 3.2805, 0.6630859, 3.2805, -1.1616211, 3.2805, 0.1240234, 0.1261731, 0.0273594, 3.2805, 0.0014648, 3.2805, -1.25, 3.2805, 0.2412109, , , , , , , , , , , , , , , , , , , , , , 
0.1266923, -0.0085603, 3.294, -0.5668945, 3.294, -0.8925781, 3.294, 0.28125, 0.1266923, -0.0085603, 3.294, 0.7915039, 3.294, -0.8808594, 3.294, 0.0629883, 0.1266923, -0.0038605, 3.294, 0.546875, 3.294, -1.1601562, 3.294, 0.0576172, 0.1266923, 0.0223239, 3.294, -0.0317383, 3.294, -1.2905273, 3.294, 0.2802734, , , , , , , , , , , , , , , , , , , , , , 
0.1272115, 0.0006714, 3.3075, -0.5556641, 3.3075, -0.9902344, 3.3075, 0.2568359, 0.1272115, -0.0068818, 3.3075, 0.7392578, 3.3075, -0.8994141, 3.3075, 0.1108398, 0.1272115, -0.0028534, 3.3075, 0.4848633, 3.3075, -1.1533203, 3.3075, 0.0556641, 0.1272115, 0.0193027, 3.3075, -0.0561523, 3.3075, -1.2314453, 3.3075, 0.3120117, , , , , , , , , , , , , , , , , , , , , , 
0.1277308, 0.0052033, 3.321, -0.5786133, 3.321, -0.9868164, 3.321, 0.1884766, 0.1277308, -0.0073854, 3.321, 0.65625, 3.321, -0.9423828, 3.321, 0.1660156, 0.1277308, -0.0052033, 3.321, 0.4013672, 3.321, -1.1479492, 3.321, -0.019043, 0.1277308, 0.0182956, 3.321, -0.0751953, 3.321, -1.1035156, 3.321, 0.2036133, , , , , , , , , , , , , , , , , , , , , , 
0.12825, 0.008896, 3.3345, -0.6733398, 3.3345, -0.9282227, 3.3345, 0.2001953, 0.12825, -0.0083925, 3.3345, 0.6147461, 3.3345, -0.9516602, 3.3345, 0.1005859, 0.12825, -0.0068818, 3.3345, 0.3696289, 3.3345, -1.0869141, 3.3345, -0.0737305, 0.12825, 0.0193027, 3.3345, -0.0336914, 3.3345, -1.0512695, 3.3345, 0.081543, , , , , , , , , , , , , , , , , , , , , , 
0.1287692, 0.0146029, 3.348, -0.6723633, 3.348, -0.9638672, 3.348, 0.2382812, 0.1287692, -0.0083925, 3.348, 0.5698242, 3.348, -0.9648438, 3.348, 0.0292969, 0.1287692, -0.0077211, 3.348, 0.4555664, 3.348, -0.9775391, 3.348, -0.0952148, 0.1287692, 0.0209812, 3.348, 0.0854492, 3.348, -1.0859375, 3.348, 0.074707, , , , , , , , , , , , , , , , , , , , , , 
0.1292885, 0.0193027, 3.3615, -0.4975586, 3.3615, -1.0332031, 3.3615, 0.2661133, 0.1292885, -0.0082246, 3.3615, 0.5976562, 3.3615, -0.9990234, 3.3615, 0.0317383, 0.1292885, -0.011078, 3.3615, 0.5722656, 3.3615, -0.9321289, 3.3615, -0.1616211, 0.1292885, 0.0179599, 3.3615, 0.2641602, 3.3615, -1.1547852, 3.3615, 0.1132812, , , , , , , , , , , , , , , , , , , , , , 
0.1298077, 0.0166171, 3.375, -0.4106445, 3.375, -1.0546875, 3.375, 0.2133789, 0.1298077, -0.0092317, 3.375, 0.6357422, 3.375, -1.0302734, 3.375, 0.0869141, 0.1298077, -0.0115816, 3.375, 0.6210938, 3.375, -0.9780273, 3.375, -0.1728516, 0.1298077, 0.01561, 3.375, 0.4262695, 3.375, -1.1557617, 3.375, 0.1088867, , , , , , , , , , , , , , , , , , , , , , 
0.1303269, 0.0169528, 3.3885, -0.4975586, 3.3885, -1.0654297, 3.3885, 0.1621094, 0.1303269, -0.0115816, 3.3885, 0.6430664, 3.3885, -1.0439453, 3.3885, 0.2158203, 0.1303269, -0.0104067, 3.3885, 0.5224609, 3.3885, -1.0522461, 3.3885, -0.1748047, 0.1303269, 0.0172885, 3.3885, 0.4467773, 3.3885, -1.1186523, 3.3885, 0.0800781, , , , , , , , , , , , , , , , , , , , , , 
0.1308462, 0.0219883, 3.402, -0.6635742, 3.402, -1.0043945, 3.402, 0.0791016, 0.1308462, -0.0109102, 3.402, 0.6367188, 3.402, -1.0004883, 3.402, 0.1904297, 0.1308462, -0.008896, 3.402, 0.4160156, 3.402, -1.0712891, 3.402, -0.159668, 0.1308462, 0.0193027, 3.402, 0.3935547, 3.402, -1.1098633, 3.402, 0.0693359, , , , , , , , , , , , , , , , , , , , , , 
0.1313654, 0.0226596, 3.4155, -0.637207, 3.4155, -0.9907227, 3.4155, 0.1103516, 0.1313654, -0.0109102, 3.4155, 0.5400391, 3.4155, -0.9702148, 3.4155, 0.128418, 0.1313654, -0.0083925, 3.4155, 0.402832, 3.4155, -1.0097656, 3.4155, -0.1621094, 0.1313654, 0.0213169, 3.4155, 0.2368164, 3.4155, -1.1079102, 3.4155, 0.0668945, , , , , , , , , , , , , , , , , , , , , , 
0.1318846, 0.0186313, 3.429, -0.5126953, 3.429, -0.9868164, 3.429, 0.2426758, 0.1318846, -0.0109102, 3.429, 0.496582, 3.429, -0.9697266, 3.429, 0.0991211, 0.1318846, -0.0068818, 3.429, 0.4682617, 3.429, -0.9643555, 3.429, -0.1459961, 0.1318846, 0.0213169, 3.429, 0.1245117, 3.429, -1.1054688, 3.429, 0.0893555, , , , , , , , , , , , , , , , , , , , , , 
0.1324038, 0.0169528, 3.4425, -0.5390625, 3.4425, -0.9321289, 3.4425, 0.3144531, 0.1324038, -0.0090639, 3.4425, 0.546875, 3.4425, -0.9697266, 3.4425, 0.0683594, 0.1324038, -0.0058747, 3.4425, 0.5009766, 3.4425, -0.9746094, 3.4425, -0.1108398, 0.1324038, 0.0196384, 3.4425, 0.1040039, 3.4425, -1.0869141, 3.4425, 0.1245117, , , , , , , , , , , , , , , , , , , , , , 
0.1329231, 0.0193027, 3.456, -0.7197266, 3.456, -0.8657227, 3.456, 0.3325195, 0.1329231, -0.0072175, 3.456, 0.7211914, 3.456, -0.9438477, 3.456, 0.0898438, 0.1329231, -0.0057069, 3.456, 0.5395508, 3.456, -1.0380859, 3.456, -0.0708008, 0.1329231, 0.0176242, 3.456, 0.0908203, 3.456, -1.1362305, 3.456, 0.144043, , , , , , , , , , , , , , , , , , , , , , 
0.1334423, 0.023331, 3.4695, -0.7543945, 3.4695, -0.8320312, 3.4695, 0.2182617, 0.1334423, -0.0075532, 3.4695, 0.8149414, 3.4695, -0.8837891, 3.4695, 0.1347656, 0.1334423, -0.0041962, 3.4695, 0.5141602, 3.4695, -1.1074219, 3.4695, 0.0087891, 0.1334423, 0.0164492, 3.4695, 0.050293, 3.4695, -1.1845703, 3.4695, 0.1865234, , , , , , , , , , , , , , , , , , , , , , 
0.1339615, 0.024506, 3.483, -0.6933594, 3.483, -0.8339844, 3.483, 0.1899414, 0.1339615, -0.0083925, 3.483, 0.6767578, 3.483, -0.8481445, 3.483, 0.1826172, 0.1339615, -0.0028534, 3.483, 0.4277344, 3.483, -1.1279297, 3.483, 0.0151367, 0.1339615, 0.0151064, 3.483, 0.0078125, 3.483, -1.1694336, 3.483, 0.2143555, , , , , , , , , , , , , , , , , , , , , , 
0.1344808, 0.023331, 3.4965, -0.6069336, 3.4965, -0.8447266, 3.4965, 0.2285156, 0.1344808, -0.0082246, 3.4965, 0.5625, 3.4965, -0.8466797, 3.4965, 0.1044922, 0.1344808, -0.0038605, 3.4965, 0.34375, 3.4965, -1.1040039, 3.4965, -0.0263672, 0.1344808, 0.0139315, 3.4965, 0.0043945, 3.4965, -1.105957, 3.4965, 0.2099609, , , , , , , , , , , , , , , , , , , , , , 
0.135, 0.0226596, 3.51, -0.6069336, 3.51, -0.8764648, 3.51, 0.2255859, 0.135, -0.0077211, 3.51, 0.5258789, 3.51, -0.878418, 3.51, 0.0771484, 0.135, -0.0063783, 3.51, 0.3662109, 3.51, -1.0581055, 3.51, -0.0288086, 0.135, 0.0135958, 3.51, 0.0380859, 3.51, -1.0717773, 3.51, 0.1586914, , , , , , , , , , , , , , , , , , , , , , 
0.1355192, 0.0240024, 3.5235, -0.6533203, 3.5235, -0.9155273, 3.5235, 0.2973633, 0.1355192, -0.0078889, 3.5235, 0.6113281, 3.5235, -0.9267578, 3.5235, 0.1020508, 0.1355192, -0.0085603, 3.5235, 0.4472656, 3.5235, -1.0576172, 3.5235, -0.0180664, 0.1355192, 0.0124208, 3.5235, 0.0463867, 3.5235, -1.0898438, 3.5235, 0.0869141, , , , , , , , , , , , , , , , , , , , , , 
0.1360385, 0.0293736, 3.537, -0.6958008, 3.537, -0.8818359, 3.537, 0.2592773, 0.1360385, -0.0083925, 3.537, 0.7524414, 3.537, -0.9003906, 3.537, 0.1147461, 0.1360385, -0.0087282, 3.537, 0.487793, 3.537, -1.0454102, 3.537, -0.03125, 0.1360385, 0.0092317, 3.537, 0.0195312, 3.537, -1.1069336, 3.537, 0.0771484, , , , , , , , , , , , , , , , , , , , , , 
0.1365577, 0.036759, 3.5505, -0.6445312, 3.5505, -0.8256836, 3.5505, 0.2036133, 0.1365577, -0.0095674, 3.5505, 0.7587891, 3.5505, -0.8574219, 3.5505, 0.0981445, 0.1365577, -0.0097353, 3.5505, 0.4287109, 3.5505, -1.0024414, 3.5505, -0.059082, 0.1365577, 0.0052033, 3.5505, 0.0107422, 3.5505, -1.0952148, 3.5505, 0.1083984, , , , , , , , , , , , , , , , , , , , , , 
0.1370769, 0.0421302, 3.564, -0.5112305, 3.564, -0.8730469, 3.564, 0.1655273, 0.1370769, -0.0090639, 3.564, 0.597168, 3.564, -0.8164062, 3.564, 0.105957, 0.1370769, -0.0109102, 3.564, 0.3613281, 3.564, -0.9916992, 3.564, -0.0839844, 0.1370769, 0.0035248, 3.564, 0.0224609, 3.564, -1.0351562, 3.564, 0.1606445, , , , , , , , , , , , , , , , , , , , , , 
0.1375962, 0.043473, 3.5775, -0.4438477, 3.5775, -0.8979492, 3.5775, 0.1518555, 0.1375962, -0.0070497, 3.5775, 0.4326172, 3.5775, -0.8662109, 3.5775, 0.1420898, 0.1375962, -0.0112459, 3.5775, 0.3383789, 3.5775, -0.9985352, 3.5775, -0.1118164, 0.1375962, 0.002182, 3.5775, 0.0864258, 3.5775, -0.9956055, 3.5775, 0.1381836, , , , , , , , , , , , , , , , , , , , , , 
0.1381154, 0.0424659, 3.591, -0.5927734, 3.591, -0.8881836, 3.591, 0.0581055, 0.1381154, -0.0082246, 3.591, 0.4912109, 3.591, -0.8632812, 3.591, 0.1621094, 0.1381154, -0.012253, 3.591, 0.3139648, 3.591, -1.0180664, 3.591, -0.1586914, 0.1381154, 0.0018463, 3.591, 0.1787109, 3.591, -1.0170898, 3.591, 0.0859375, , , , , , , , , , , , , , , , , , , , , , 
0.1386346, 0.0414588, 3.6045, -0.6464844, 3.6045, -0.9150391, 3.6045, 0.0336914, 0.1386346, -0.0104067, 3.6045, 0.5380859, 3.6045, -0.8764648, 3.6045, 0.1899414, 0.1386346, -0.0129244, 3.6045, 0.3237305, 3.6045, -1.0283203, 3.6045, -0.1865234, 0.1386346, 0.0018463, 3.6045, 0.2651367, 3.6045, -1.0415039, 3.6045, 0.0073242, , , , , , , , , , , , , , , , , , , , , , 
0.1391538, 0.0387732, 3.618, -0.5712891, 3.618, -0.9301758, 3.618, 0.034668, 0.1391538, -0.0082246, 3.618, 0.5146484, 3.618, -0.9233398, 3.618, 0.1811523, 0.1391538, -0.0129244, 3.618, 0.3305664, 3.618, -0.9838867, 3.618, -0.2114258, 0.1391538, 0.0015106, 3.618, 0.300293, 3.618, -1.0395508, 3.618, -0.0527344, , , , , , , , , , , , , , , , , , , , , , 
0.1396731, 0.0318914, 3.6315, -0.4223633, 3.6315, -0.9033203, 3.6315, 0.0947266, 0.1396731, -0.0062104, 3.6315, 0.4360352, 3.6315, -0.9189453, 3.6315, 0.1005859, 0.1396731, -0.0127565, 3.6315, 0.3857422, 3.6315, -0.8911133, 3.6315, -0.1772461, 0.1396731, 0.0038605, 3.6315, 0.277832, 3.6315, -0.980957, 3.6315, -0.0332031, , , , , , , , , , , , , , , , , , , , , , 
0.1401923, 0.0226596, 3.645, -0.4555664, 3.645, -0.8793945, 3.645, 0.2314453, 0.1401923, -0.0065461, 3.645, 0.4296875, 3.645, -0.8720703, 3.645, -0.0048828, 0.1401923, -0.0102388, 3.645, 0.4575195, 3.645, -0.8242188, 3.645, -0.2192383, 0.1401923, 0.0072175, 3.645, 0.2392578, 3.645, -0.8994141, 3.645, 0.0405273, , , , , , , , , , , , , , , , , , , , , , 
0.1407115, 0.0137636, 3.6585, -0.4897461, 3.6585, -0.8876953, 3.6585, 0.2119141, 0.1407115, -0.0077211, 3.6585, 0.5166016, 3.6585, -0.8671875, 3.6585, 0.0224609, 0.1407115, -0.0085603, 3.6585, 0.515625, 3.6585, -0.8764648, 3.6585, -0.2001953, 0.1407115, 0.008896, 3.6585, 0.2592773, 3.6585, -0.9082031, 3.6585, 0.1049805, , , , , , , , , , , , , , , , , , , , , , 
0.1412308, 0.0052033, 3.672, -0.527832, 3.672, -0.9169922, 3.672, 0.1757812, 0.1412308, -0.008896, 3.672, 0.5585938, 3.672, -0.8930664, 3.672, 0.0576172, 0.1412308, -0.0085603, 3.672, 0.4658203, 3.672, -0.9160156, 3.672, -0.1894531, 0.1412308, 0.0105745, 3.672, 0.2729492, 3.672, -1.012207, 3.672, 0.1235352, , , , , , , , , , , , , , , , , , , , , , 
0.14175, -0.0023499, 3.6855, -0.5161133, 3.6855, -0.8789062, 3.6855, 0.1020508, 0.14175, -0.0095674, 3.6855, 0.5620117, 3.6855, -0.9077148, 3.6855, 0.0986328, 0.14175, -0.0082246, 3.6855, 0.3251953, 3.6855, -0.9379883, 3.6855, -0.1821289, 0.14175, 0.0119173, 3.6855, 0.1953125, 3.6855, -1.0488281, 3.6855, 0.1367188, , , , , , , , , , , , , , , , , , , , , , 
0.1422692, -0.0045319, 3.699, -0.4599609, 3.699, -0.8789062, 3.699, 0.0444336, 0.1422692, -0.0083925, 3.699, 0.4506836, 3.699, -0.8544922, 3.699, 0.1230469, 0.1422692, -0.0063783, 3.699, 0.2578125, 3.699, -0.9082031, 3.699, -0.1948242, 0.1422692, 0.0132601, 3.699, 0.0869141, 3.699, -0.9765625, 3.699, 0.1171875, , , , , , , , , , , , , , , , , , , , , , 
0.1427885, -0.0041962, 3.7125, -0.46875, 3.7125, -0.8989258, 3.7125, 0.0708008, 0.1427885, -0.0063783, 3.7125, 0.3691406, 3.7125, -0.8564453, 3.7125, 0.1020508, 0.1427885, -0.0063783, 3.7125, 0.2685547, 3.7125, -0.871582, 3.7125, -0.199707, 0.1427885, 0.0172885, 3.7125, 0.0644531, 3.7125, -0.940918, 3.7125, 0.1054688, , , , , , , , , , , , , , , , , , , , , , 
0.1433077, -0.012253, 3.726, -0.5209961, 3.726, -0.8974609, 3.726, 0.1186523, 0.1433077, -0.0068818, 3.726, 0.4047852, 3.726, -0.8916016, 3.726, 0.1103516, 0.1433077, -0.008896, 3.726, 0.3168945, 3.726, -0.9086914, 3.726, -0.2363281, 0.1433077, 0.0196384, 3.726, 0.1074219, 3.726, -0.9106445, 3.726, 0.1069336, , , , , , , , , , , , , , , , , , , , , , 
0.1438269, -0.0258488, 3.7395, -0.5610352, 3.7395, -0.8828125, 3.7395, 0.1088867, 0.1438269, -0.0095674, 3.7395, 0.5532227, 3.7395, -0.8847656, 3.7395, 0.1230469, 0.1438269, -0.008896, 3.7395, 0.3969727, 3.7395, -0.9667969, 3.7395, -0.1928711, 0.1438269, 0.021149, 3.7395, 0.1904297, 3.7395, -0.9487305, 3.7395, 0.0883789, , , , , , , , , , , , , , , , , , , , , , 
0.1443462, -0.0327306, 3.753, -0.5454102, 3.753, -0.8383789, 3.753, 0.1118164, 0.1443462, -0.0102388, 3.753, 0.5849609, 3.753, -0.84375, 3.753, 0.1298828, 0.1443462, -0.0062104, 3.753, 0.3637695, 3.753, -0.965332, 3.753, -0.1850586, 0.1443462, 0.0248417, 3.753, 0.237793, 3.753, -1.0141602, 3.753, 0.0493164, , , , , , , , , , , , , , , , , , , , , , 
0.1448654, -0.0297093, 3.7665, -0.5522461, 3.7665, -0.8393555, 3.7665, 0.1142578, 0.1448654, -0.0082246, 3.7665, 0.5141602, 3.7665, -0.8369141, 3.7665, 0.0952148, 0.1448654, -0.0028534, 3.7665, 0.3354492, 3.7665, -0.9682617, 3.7665, -0.1586914, 0.1448654, 0.0263523, 3.7665, 0.1948242, 3.7665, -1.0292969, 3.7665, 0.0527344, , , , , , , , , , , , , , , , , , , , , , 
0.1453846, -0.0256809, 3.78, -0.4951172, 3.78, -0.8344727, 3.78, 0.1210938, 0.1453846, -0.0052033, 3.78, 0.4243164, 3.78, -0.8217773, 3.78, 0.0708008, 0.1453846, -0.0005035, 3.78, 0.3496094, 3.78, -0.9042969, 3.78, -0.1508789, 0.1453846, 0.0246738, 3.78, 0.1459961, 3.78, -0.9692383, 3.78, 0.065918, , , , , , , , , , , , , , , , , , , , , , 
0.1459038, -0.0231632, 3.7935, -0.4848633, 3.7935, -0.8100586, 3.7935, 0.1313477, 0.1459038, -0.0031891, 3.7935, 0.3867188, 3.7935, -0.8129883, 3.7935, 0.0888672, 0.1459038, -0.0001678, 3.7935, 0.3662109, 3.7935, -0.9467773, 3.7935, -0.1748047, 0.1459038, 0.0209812, 3.7935, 0.1787109, 3.7935, -0.8925781, 3.7935, 0.0859375, , , , , , , , , , , , , , , , , , , , , , 
0.1464231, -0.0149386, 3.807, -0.621582, 3.807, -0.8369141, 3.807, 0.0883789, 0.1464231, -0.0016785, 3.807, 0.4599609, 3.807, -0.8198242, 3.807, 0.1748047, 0.1464231, -0.0015106, 3.807, 0.3491211, 3.807, -1.0058594, 3.807, -0.1694336, 0.1464231, 0.0179599, 3.807, 0.1835938, 3.807, -0.9282227, 3.807, 0.0761719, , , , , , , , , , , , , , , , , , , , , , 
0.1469423, -0.0045319, 3.8205, -0.6508789, 3.8205, -0.8603516, 3.8205, 0.0581055, 0.1469423, -0.0023499, 3.8205, 0.6220703, 3.8205, -0.8505859, 3.8205, 0.1245117, 0.1469423, -0.0031891, 3.8205, 0.3105469, 3.8205, -1.0039062, 3.8205, -0.1591797, 0.1469423, 0.0140993, 3.8205, 0.1489258, 3.8205, -1.0463867, 3.8205, 0.0698242, , , , , , , , , , , , , , , , , , , , , , 
0.1474615, 0.0030213, 3.834, -0.543457, 3.834, -0.8828125, 3.834, 0.0673828, 0.1474615, -0.0048676, 3.834, 0.5258789, 3.834, -0.8725586, 3.834, 0.1401367, 0.1474615, -0.0035248, 3.834, 0.3017578, 3.834, -0.9780273, 3.834, -0.1674805, 0.1474615, 0.0125887, 3.834, 0.144043, 3.834, -1.027832, 3.834, 0.0717773, , , , , , , , , , , , , , , , , , , , , , 
0.1479808, 0.0075532, 3.8475, -0.3886719, 3.8475, -0.8730469, 3.8475, 0.0800781, 0.1479808, -0.005539, 3.8475, 0.359375, 3.8475, -0.8500977, 3.8475, 0.0844727, 0.1479808, -0.0025177, 3.8475, 0.3134766, 3.8475, -0.9042969, 3.8475, -0.1875, 0.1479808, 0.0129244, 3.8475, 0.1503906, 3.8475, -0.9111328, 3.8475, 0.0703125, , , , , , , , , , , , , , , , , , , , , , 
0.1485, 0.0105745, 3.861, -0.3818359, 3.861, -0.8598633, 3.861, 0.0761719, 0.1485, -0.0041962, 3.861, 0.3271484, 3.861, -0.8325195, 3.861, 0.0634766, 0.1485, -0.0015106, 3.861, 0.3291016, 3.861, -0.859375, 3.861, -0.2304688, 0.1485, 0.0125887, 3.861, 0.1538086, 3.861, -0.8745117, 3.861, 0.0800781, , , , , , , , , , , , , , , , , , , , , , 
0.1490192, 0.0109102, 3.8745, -0.4882812, 3.8745, -0.8862305, 3.8745, 0.078125, 0.1490192, -0.0058747, 3.8745, 0.4013672, 3.8745, -0.875, 3.8745, 0.1074219, 0.1490192, -0.002182, 3.8745, 0.3276367, 3.8745, -0.8803711, 3.8745, -0.2788086, 0.1490192, 0.0125887, 3.8745, 0.1713867, 3.8745, -0.8657227, 3.8745, 0.1176758, , , , , , , , , , , , , , , , , , , , , , 
0.1495385, 0.0132601, 3.888, -0.5708008, 3.888, -0.8916016, 3.888, 0.0610352, 0.1495385, -0.0052033, 3.888, 0.5200195, 3.888, -0.9013672, 3.888, 0.1640625, 0.1495385, -0.0036927, 3.888, 0.3452148, 3.888, -0.9057617, 3.888, -0.2822266, 0.1495385, 0.0124208, 3.888, 0.1875, 3.888, -0.9501953, 3.888, 0.1030273, , , , , , , , , , , , , , , , , , , , , , 
0.1500577, 0.0159457, 3.9015, -0.5756836, 3.9015, -0.8447266, 3.9015, -0.015625, 0.1500577, -0.0028534, 3.9015, 0.5009766, 3.9015, -0.8486328, 3.9015, 0.1357422, 0.1500577, -0.0063783, 3.9015, 0.3334961, 3.9015, -0.9204102, 3.9015, -0.2729492, 0.1500577, 0.0105745, 3.9015, 0.2202148, 3.9015, -1.0244141, 3.9015, 0.0922852, , , , , , , , , , , , , , , , , , , , , , 
0.1505769, 0.0182956, 3.915, -0.4248047, 3.915, -0.8666992, 3.915, -0.0043945, 0.1505769, -0.0023499, 3.915, 0.418457, 3.915, -0.8232422, 3.915, 0.1279297, 0.1505769, -0.010071, 3.915, 0.3071289, 3.915, -0.8720703, 3.915, -0.28125, 0.1505769, 0.0072175, 3.915, 0.2236328, 3.915, -0.9736328, 3.915, 0.0825195, , , , , , , , , , , , , , , , , , , , , , 
0.1510962, 0.0179599, 3.9285, -0.3164062, 3.9285, -0.9077148, 3.9285, -0.0166016, 0.1510962, -0.0035248, 3.9285, 0.2822266, 3.9285, -0.8271484, 3.9285, 0.1132812, 0.1510962, -0.0119173, 3.9285, 0.3115234, 3.9285, -0.8066406, 3.9285, -0.2714844, 0.1510962, 0.0048676, 3.9285, 0.2475586, 3.9285, -0.8657227, 3.9285, 0.0415039, , , , , , , , , , , , , , , , , , , , , , 
0.1516154, 0.0146029, 3.942, -0.3686523, 3.942, -0.8969727, 3.942, 0.0424805, 0.1516154, -0.0038605, 3.942, 0.2631836, 3.942, -0.8813477, 3.942, 0.1098633, 0.1516154, -0.0109102, 3.942, 0.3100586, 3.942, -0.8251953, 3.942, -0.3051758, 0.1516154, 0.0078889, 3.942, 0.3193359, 3.942, -0.7963867, 3.942, 0.0019531, , , , , , , , , , , , , , , , , , , , , , 
0.1521346, 0.0129244, 3.9555, -0.4897461, 3.9555, -0.8300781, 3.9555, 0.059082, 0.1521346, -0.0035248, 3.9555, 0.390625, 3.9555, -0.855957, 3.9555, 0.1337891, 0.1521346, -0.0082246, 3.9555, 0.3076172, 3.9555, -0.8461914, 3.9555, -0.2905273, 0.1521346, 0.0157778, 3.9555, 0.3393555, 3.9555, -0.8354492, 3.9555, 0.0117188, , , , , , , , , , , , , , , , , , , , , , 
0.1526538, 0.0139315, 3.969, -0.5327148, 3.969, -0.7841797, 3.969, 0.0297852, 0.1526538, -0.0045319, 3.969, 0.5292969, 3.969, -0.7612305, 3.969, 0.1245117, 0.1526538, -0.0065461, 3.969, 0.328125, 3.969, -0.8618164, 3.969, -0.2617188, 0.1526538, 0.0216526, 3.969, 0.3066406, 3.969, -0.9135742, 3.969, 0.0371094, , , , , , , , , , , , , , , , , , , , , , 
0.1531731, 0.0166171, 3.9825, -0.5405273, 3.9825, -0.7905273, 3.9825, 0.0273438, 0.1531731, -0.0075532, 3.9825, 0.4555664, 3.9825, -0.7553711, 3.9825, 0.1811523, 0.1531731, -0.0057069, 3.9825, 0.3134766, 3.9825, -0.887207, 3.9825, -0.2231445, 0.1531731, 0.0219883, 3.9825, 0.2207031, 3.9825, -0.9453125, 3.9825, 0.0571289, , , , , , , , , , , , , , , , , , , , , , 
0.1536923, 0.0196384, 3.996, -0.5390625, 3.996, -0.7905273, 3.996, 0.0234375, 0.1536923, -0.0095674, 3.996, 0.4008789, 3.996, -0.7983398, 3.996, 0.1157227, 0.1536923, -0.0058747, 3.996, 0.2949219, 3.996, -0.9106445, 3.996, -0.1625977, 0.1536923, 0.0191348, 3.996, 0.112793, 3.996, -0.9052734, 3.996, 0.074707, , , , , , , , , , , , , , , , , , , , , , 
0.1542115, 0.0226596, 4.0095, -0.4555664, 4.0095, -0.7817383, 4.0095, 0.0737305, 0.1542115, -0.0099031, 4.0095, 0.371582, 4.0095, -0.7573242, 4.0095, 0.0317383, 0.1542115, -0.008896, 4.0095, 0.3125, 4.0095, -0.8237305, 4.0095, -0.1689453, 0.1542115, 0.0157778, 4.0095, 0.0800781, 4.0095, -0.8662109, 4.0095, 0.0874023, , , , , , , , , , , , , , , , , , , , , , 
0.1547308, 0.0226596, 4.023, -0.3325195, 4.023, -0.7758789, 4.023, 0.1035156, 0.1547308, -0.008896, 4.023, 0.3432617, 4.023, -0.6928711, 4.023, 0.0976562, 0.1547308, -0.0112459, 4.023, 0.3168945, 4.023, -0.7753906, 4.023, -0.1870117, 0.1547308, 0.0139315, 4.023, 0.0727539, 4.023, -0.7915039, 4.023, 0.1264648, , , , , , , , , , , , , , , , , , , , , , 
0.15525, 0.0213169, 4.0365, -0.3969727, 4.0365, -0.7485352, 4.0365, 0.1474609, 0.15525, -0.0085603, 4.0365, 0.3842773, 4.0365, -0.6860352, 4.0365, 0.1464844, 0.15525, -0.0112459, 4.0365, 0.2875977, 4.0365, -0.84375, 4.0365, -0.2021484, 0.15525, 0.0119173, 4.0365, 0.0737305, 4.0365, -0.793457, 4.0365, 0.128418, , , , , , , , , , , , , , , , , , , , , , 
0.1557692, 0.0250095, 4.05, -0.5693359, 4.05, -0.7382812, 4.05, 0.0102539, 0.1557692, -0.0099031, 4.05, 0.5766602, 4.05, -0.7104492, 4.05, 0.1713867, 0.1557692, -0.0095674, 4.05, 0.2460938, 4.05, -0.9023438, 4.05, -0.159668, 0.1557692, 0.0097353, 4.05, 0.0639648, 4.05, -0.8759766, 4.05, 0.1108398, , , , , , , , , , , , , , , , , , , , , , 
0.1562885, 0.0365911, 4.0635, -0.6142578, 4.0635, -0.753418, 4.0635, -0.0219727, 0.1562885, -0.0102388, 4.0635, 0.5522461, 4.0635, -0.7397461, 4.0635, 0.199707, 0.1562885, -0.0095674, 4.0635, 0.1816406, 4.0635, -0.9077148, 4.0635, -0.1728516, 0.1562885, 0.0068818, 4.0635, 0.0507812, 4.0635, -0.9091797, 4.0635, 0.1074219, , , , , , , , , , , , , , , , , , , , , , 
0.1568077, 0.0397803, 4.077, -0.4750977, 4.077, -0.7607422, 4.077, 0.0004883, 0.1568077, -0.0115816, 4.077, 0.3359375, 4.077, -0.7451172, 4.077, 0.1875, 0.1568077, -0.0102388, 4.077, 0.1879883, 4.077, -0.8442383, 4.077, -0.2045898, 0.1568077, 0.0015106, 4.077, 0.0483398, 4.077, -0.8393555, 4.077, 0.0654297, , , , , , , , , , , , , , , , , , , , , , 
0.1573269, 0.0370947, 4.0905, -0.3862305, 4.0905, -0.7841797, 4.0905, 0.0483398, 0.1573269, -0.011078, 4.0905, 0.2919922, 4.0905, -0.737793, 4.0905, 0.1079102, 0.1573269, -0.0102388, 4.0905, 0.2202148, 4.0905, -0.7724609, 4.0905, -0.168457, 0.1573269, -0.0035248, 4.0905, 0.112793, 4.0905, -0.7944336, 4.0905, 0.0488281, , , , , , , , , , , , , , , , , , , , , , 
0.1578462, 0.0391089, 4.104, -0.3833008, 4.104, -0.7802734, 4.104, 0.0805664, 0.1578462, -0.008896, 4.104, 0.371582, 4.104, -0.7382812, 4.104, 0.0996094, 0.1578462, -0.0105745, 4.104, 0.2558594, 4.104, -0.7573242, 4.104, -0.1655273, 0.1578462, -0.0085603, 4.104, 0.1801758, 4.104, -0.8007812, 4.104, 0.1005859, , , , , , , , , , , , , , , , , , , , , , 
0.1583654, 0.0407874, 4.1175, -0.4213867, 4.1175, -0.7753906, 4.1175, 0.1020508, 0.1583654, -0.0082246, 4.1175, 0.4980469, 4.1175, -0.7651367, 4.1175, 0.1083984, 0.1583654, -0.011078, 4.1175, 0.3657227, 4.1175, -0.7553711, 4.1175, -0.1655273, 0.1583654, -0.012253, 4.1175, 0.1835938, 4.1175, -0.8261719, 4.1175, 0.1308594, , , , , , , , , , , , , , , , , , , , , , 
0.1588846, 0.0379339, 4.131, -0.449707, 4.131, -0.7792969, 4.131, 0.1030273, 0.1588846, -0.0075532, 4.131, 0.5537109, 4.131, -0.7519531, 4.131, 0.128418, 0.1588846, -0.0104067, 4.131, 0.4306641, 4.131, -0.7871094, 4.131, -0.1499023, 0.1588846, -0.0129244, 4.131, 0.1474609, 4.131, -0.8520508, 4.131, 0.1259766, , , , , , , , , , , , , , , , , , , , , , 
0.1594038, 0.0350805, 4.1445, -0.4726562, 4.1445, -0.7729492, 4.1445, 0.0537109, 0.1594038, -0.0068818, 4.1445, 0.5078125, 4.1445, -0.7109375, 4.1445, 0.1240234, 0.1594038, -0.0102388, 4.1445, 0.3833008, 4.1445, -0.8408203, 4.1445, -0.1245117, 0.1594038, -0.0124208, 4.1445, 0.0673828, 4.1445, -0.8779297, 4.1445, 0.1469727, , , , , , , , , , , , , , , , , , , , , , 
0.1599231, 0.0320592, 4.158, -0.4619141, 4.158, -0.7695312, 4.158, 0.0419922, 0.1599231, -0.0075532, 4.158, 0.4604492, 4.158, -0.7104492, 4.158, 0.1049805, 0.1599231, -0.0095674, 4.158, 0.28125, 4.158, -0.8432617, 4.158, -0.1323242, 0.1599231, -0.0112459, 4.158, 0.0268555, 4.158, -0.8706055, 4.158, 0.1616211, , , , , , , , , , , , , , , , , , , , , , 
0.1604423, 0.0240024, 4.1715, -0.4082031, 4.1715, -0.7705078, 4.1715, 0.0942383, 0.1604423, -0.0099031, 4.1715, 0.3334961, 4.1715, -0.7133789, 4.1715, 0.0976562, 0.1604423, -0.0092317, 4.1715, 0.2124023, 4.1715, -0.7895508, 4.1715, -0.1577148, 0.1604423, -0.005539, 4.1715, -0.0224609, 4.1715, -0.8081055, 4.1715, 0.1601562, , , , , , , , , , , , , , , , , , , , , , 
0.1609615, 0.0149386, 4.185, -0.4008789, 4.185, -0.7744141, 4.185, 0.0595703, 0.1609615, -0.0097353, 4.185, 0.3857422, 4.185, -0.7050781, 4.185, 0.1225586, 0.1609615, -0.0102388, 4.185, 0.203125, 4.185, -0.7568359, 4.185, -0.1611328, 0.1609615, 0.0031891, 4.185, 0.0107422, 4.185, -0.7646484, 4.185, 0.1318359, , , , , , , , , , , , , , , , , , , , , , 
0.1614808, 0.008896, 4.1985, -0.4389648, 4.1985, -0.7573242, 4.1985, 0.0444336, 0.1614808, -0.008896, 4.1985, 0.46875, 4.1985, -0.7285156, 4.1985, 0.0961914, 0.1614808, -0.0102388, 4.1985, 0.253418, 4.1985, -0.7597656, 4.1985, -0.1577148, 0.1614808, 0.0082246, 4.1985, 0.0668945, 4.1985, -0.7807617, 4.1985, 0.1342773, , , , , , , , , , , , , , , , , , , , , , 
0.162, 0.0041962, 4.212, -0.4179688, 4.212, -0.7709961, 4.212, 0.0644531, 0.162, -0.0082246, 4.212, 0.4501953, 4.212, -0.7504883, 4.212, 0.0893555, 0.162, -0.0090639, 4.212, 0.3115234, 4.212, -0.7504883, 4.212, -0.1513672, 0.162, 0.0112459, 4.212, 0.0952148, 4.212, -0.7988281, 4.212, 0.1420898, , , , , , , , , , , , , , , , , , , , , , 
0.1625192, 0.0031891, 4.2255, -0.3520508, 4.2255, -0.7631836, 4.2255, 0.1074219, 0.1625192, -0.0072175, 4.2255, 0.3911133, 4.2255, -0.7084961, 4.2255, 0.1079102, 0.1625192, -0.0063783, 4.2255, 0.3432617, 4.2255, -0.7709961, 4.2255, -0.1318359, 0.1625192, 0.0164492, 4.2255, 0.1113281, 4.2255, -0.7851562, 4.2255, 0.1381836, , , , , , , , , , , , , , , , , , , , , , 
0.1630385, -0.0001678, 4.239, -0.3984375, 4.239, -0.7265625, 4.239, 0.0874023, 0.1630385, -0.0075532, 4.239, 0.4370117, 4.239, -0.6616211, 4.239, 0.1376953, 0.1630385, -0.0035248, 4.239, 0.3383789, 4.239, -0.7895508, 4.239, -0.1113281, 0.1630385, 0.0221561, 4.239, 0.0932617, 4.239, -0.8076172, 4.239, 0.1401367, , , , , , , , , , , , , , , , , , , , , , 
0.1635577, -0.0068818, 4.2525, -0.5209961, 4.2525, -0.699707, 4.2525, 0.0234375, 0.1635577, -0.0082246, 4.2525, 0.5361328, 4.2525, -0.6640625, 4.2525, 0.1762695, 0.1635577, -0.0016785, 4.2525, 0.3486328, 4.2525, -0.7885742, 4.2525, -0.1020508, 0.1635577, 0.0253452, 4.2525, 0.0561523, 4.2525, -0.8325195, 4.2525, 0.1181641, , , , , , , , , , , , , , , , , , , , , , 
0.1640769, -0.0135958, 4.266, -0.5083008, 4.266, -0.6943359, 4.266, 0.0537109, 0.1640769, -0.0095674, 4.266, 0.4848633, 4.266, -0.690918, 4.266, 0.1870117, 0.1640769, -0.0028534, 4.266, 0.2949219, 4.266, -0.8828125, 4.266, -0.1157227, 0.1640769, 0.0246738, 4.266, -0.0029297, 4.266, -0.855957, 4.266, 0.112793, , , , , , , , , , , , , , , , , , , , , , 
0.1645962, -0.0166171, 4.2795, -0.5234375, 4.2795, -0.7431641, 4.2795, 0.0566406, 0.1645962, -0.0095674, 4.2795, 0.4790039, 4.2795, -0.6923828, 4.2795, 0.1875, 0.1645962, -0.0041962, 4.2795, 0.2553711, 4.2795, -0.8505859, 4.2795, -0.0883789, 0.1645962, 0.0256809, 4.2795, -0.0219727, 4.2795, -0.8540039, 4.2795, 0.1298828, , , , , , , , , , , , , , , , , , , , , , 
0.1651154, -0.0193027, 4.293, -0.5097656, 4.293, -0.7573242, 4.293, 0.0878906, 0.1651154, -0.0072175, 4.293, 0.4804688, 4.293, -0.6679688, 4.293, 0.1782227, 0.1651154, -0.0028534, 4.293, 0.2612305, 4.293, -0.8256836, 4.293, -0.1123047, 0.1651154, 0.0287022, 4.293, -0.0029297, 4.293, -0.8349609, 4.293, 0.1220703, , , , , , , , , , , , , , , , , , , , , , 
0.1656346, -0.023331, 4.3065, -0.4428711, 4.3065, -0.7236328, 4.3065, 0.0341797, 0.1656346, -0.0072175, 4.3065, 0.5722656, 4.3065, -0.6933594, 4.3065, 0.1064453, 0.1656346, -0.0035248, 4.3065, 0.2929688, 4.3065, -0.815918, 4.3065, -0.0708008, 0.1656346, 0.0293736, 4.3065, 0.0390625, 4.3065, -0.8652344, 4.3065, 0.1196289, , , , , , , , , , , , , , , , , , , , , , 
0.1661538, -0.018967, 4.32, -0.4042969, 4.32, -0.7783203, 4.32, 0.1503906, 0.1661538, -0.008896, 4.32, 0.3183594, 4.32, -0.7783203, 4.32, 0.0791016, 0.1661538, -0.0048676, 4.32, 0.3642578, 4.32, -0.8359375, 4.32, -0.0712891, 0.1661538, 0.0243381, 4.32, 0.0629883, 4.32, -0.871582, 4.32, 0.152832, , , , , , , , , , , , , , , , , , , , , , 
0.1666731, -0.0068818, 4.3335, -0.4111328, 4.3335, -0.8022461, 4.3335, 0.1875, 0.1666731, -0.008896, 4.3335, 0.3803711, 4.3335, -0.7822266, 4.3335, 0.0498047, 0.1666731, -0.005539, 4.3335, 0.390625, 4.3335, -0.7915039, 4.3335, -0.0874023, 0.1666731, 0.0193027, 4.3335, 0.050293, 4.3335, -0.8398438, 4.3335, 0.1992188, , , , , , , , , , , , , , , , , , , , , , 
0.1671923, 0.0035248, 4.347, -0.4584961, 4.347, -0.7929688, 4.347, 0.1884766, 0.1671923, -0.0068818, 4.347, 0.534668, 4.347, -0.734375, 4.347, 0.0751953, 0.1671923, -0.0048676, 4.347, 0.4086914, 4.347, -0.8291016, 4.347, -0.0380859, 0.1671923, 0.0182956, 4.347, -0.0170898, 4.347, -0.8486328, 4.347, 0.2231445, , , , , , , , , , , , , , , , , , , , , , 
0.1677115, 0.0083925, 4.3605, -0.5727539, 4.3605, -0.7514648, 4.3605, 0.1899414, 0.1677115, -0.0068818, 4.3605, 0.6708984, 4.3605, -0.7270508, 4.3605, 0.1469727, 0.1677115, -0.0045319, 4.3605, 0.3842773, 4.3605, -0.9228516, 4.3605, -0.0595703, 0.1677115, 0.0186313, 4.3605, -0.0893555, 4.3605, -0.9086914, 4.3605, 0.2431641, , , , , , , , , , , , , , , , , , , , , , 
0.1682308, 0.0109102, 4.374, -0.6713867, 4.374, -0.6601562, 4.374, 0.1191406, 0.1682308, -0.0095674, 4.374, 0.6538086, 4.374, -0.7255859, 4.374, 0.1035156, 0.1682308, -0.0058747, 4.374, 0.2729492, 4.374, -0.9897461, 4.374, -0.0170898, 0.1682308, 0.0179599, 4.374, -0.1669922, 4.374, -0.9414062, 4.374, 0.2416992, , , , , , , , , , , , , , , , , , , , , , 
0.16875, 0.0152743, 4.3875, -0.6503906, 4.3875, -0.6552734, 4.3875, 0.1582031, 0.16875, -0.0109102, 4.3875, 0.5043945, 4.3875, -0.6572266, 4.3875, 0.1425781, 0.16875, -0.0068818, 4.3875, 0.1733398, 4.3875, -0.9575195, 4.3875, 0.0332031, 0.16875, 0.0169528, 4.3875, -0.2216797, 4.3875, -0.8735352, 4.3875, 0.269043, , , , , , , , , , , , , , , , , , , , , , 
0.1692692, 0.0184634, 4.401, -0.4819336, 4.401, -0.7177734, 4.401, 0.215332, 0.1692692, -0.0099031, 4.401, 0.4804688, 4.401, -0.6411133, 4.401, 0.0800781, 0.1692692, -0.0068818, 4.401, 0.1616211, 4.401, -0.815918, 4.401, 0.0117188, 0.1692692, 0.01561, 4.401, -0.2880859, 4.401, -0.8046875, 4.401, 0.2275391, , , , , , , , , , , , , , , , , , , , , , 
0.1697885, 0.0199741, 4.4145, -0.465332, 4.4145, -0.6386719, 4.4145, 0.1376953, 0.1697885, -0.0097353, 4.4145, 0.4936523, 4.4145, -0.6367188, 4.4145, 0.1157227, 0.1697885, -0.0062104, 4.4145, 0.1958008, 4.4145, -0.769043, 4.4145, 0.0058594, 0.1697885, 0.0129244, 4.4145, -0.2543945, 4.4145, -0.7954102, 4.4145, 0.1948242, , , , , , , , , , , , , , , , , , , , , , 
0.1703077, 0.0166171, 4.428, -0.5727539, 4.428, -0.5664062, 4.428, 0.1225586, 0.1703077, -0.0099031, 4.428, 0.5410156, 4.428, -0.5820312, 4.428, 0.1508789, 0.1703077, -0.0068818, 4.428, 0.1958008, 4.428, -0.8046875, 4.428, 0.0517578, 0.1703077, 0.0112459, 4.428, -0.1914062, 4.428, -0.8037109, 4.428, 0.1743164, , , , , , , , , , , , , , , , , , , , , , 
0.1708269, 0.0169528, 4.4415, -0.6015625, 4.4415, -0.5224609, 4.4415, 0.1347656, 0.1708269, -0.008896, 4.4415, 0.5756836, 4.4415, -0.5371094, 4.4415, 0.1103516, 0.1708269, -0.0072175, 4.4415, 0.1870117, 4.4415, -0.824707, 4.4415, 0.0454102, 0.1708269, 0.0125887, 4.4415, -0.2011719, 4.4415, -0.7973633, 4.4415, 0.1459961, , , , , , , , , , , , , , , , , , , , , , 
