Application:, Trigno Discover (2.0.1.2)
Date/Time:, 5/14/2025 1:01:38 PM
Collection Length (seconds):, 33.777
Forearm 2 (83169), , , , , , , , Forearm 1 (82633), , , , , , , , Biceps (83254), , , , , , , , Triceps (83087)
sensor mode: 45, , , , , , , , sensor mode: 45, , , , , , , , sensor mode: 45, , , , , , , , sensor mode: 45
EMG 1 Time Series (s), EMG 1 (mV), ACC X Time Series (s), ACC X (G), ACC Y Time Series (s), ACC Y (G), ACC Z Time Series (s), ACC Z (G), EMG 1 Time Series (s), EMG 1 (mV), ACC X Time Series (s), ACC X (G), ACC Y Time Series (s), ACC Y (G), ACC Z Time Series (s), ACC Z (G), EMG 1 Time Series (s), EMG 1 (mV), ACC X Time Series (s), ACC X (G), ACC Y Time Series (s), ACC Y (G), ACC Z Time Series (s), ACC Z (G), EMG 1 Time Series (s), EMG 1 (mV), ACC X Time Series (s), ACC X (G), ACC Y Time Series (s), ACC Y (G), ACC Z Time Series (s), ACC Z (G)
, 1925.9259 Hz, , 74.0741 Hz, , 74.0741 Hz, , 74.0741 Hz, , 1925.9259 Hz, , 74.0741 Hz, , 74.0741 Hz, , 74.0741 Hz, , 1925.9259 Hz, , 74.0741 Hz, , 74.0741 Hz, , 74.0741 Hz, , 1925.9259 Hz, , 74.0741 Hz, , 74.0741 Hz, , 74.0741 Hz
, 0.0005192307692307692 s, , 0.0135 s, , 0.0135 s, , 0.0135 s, , 0.0005192307692307692 s, , 0.0135 s, , 0.0135 s, , 0.0135 s, , 0.0005192307692307692 s, , 0.0135 s, , 0.0135 s, , 0.0135 s, , 0.0005192307692307692 s, , 0.0135 s, , 0.0135 s, , 0.0135 s, , Type, Name, Label, Time (s), , Pair, E1, E2, T1, T2, V1, V2, Sensor, Channel, Units, Delta T, RMS, PKPK, Peak Value, TPK, Integral
0, 0.0090639, 0, -0.3154297, 0, -0.7626953, 0, -0.0576172, 0, -0.0152743, 0, 0.1357422, 0, -0.7241211, 0, -0.0751953, 0, -0.0078889, 0, -0.0405273, 0, -0.8476562, 0, -0.0795898, 0, 0.008896, 0, -0.1894531, 0, -0.7592773, 0, -0.1015625, , , , , , , , , , , , , , , , , , , , , , 
0.0005192, 0.0001678, 0.0135, -0.4594727, 0.0135, -0.9472656, 0.0135, -0.0878906, 0.0005192, -0.0146029, 0.0135, 0.1713867, 0.0135, -0.9135742, 0.0135, -0.0317383, 0.0005192, -0.0099031, 0.0135, -0.081543, 0.0135, -0.9580078, 0.0135, -0.0825195, 0.0005192, 0.0045319, 0.0135, -0.2631836, 0.0135, -0.996582, 0.0135, -0.1601562, , , , , , , , , , , , , , , , , , , , , , 
0.0010385, -0.0058747, 0.027, -0.59375, 0.027, -1.2553711, 0.027, -0.1313477, 0.0010385, -0.0142672, 0.027, 0.2172852, 0.027, -1.0512695, 0.027, -0.0073242, 0.0010385, -0.0095674, 0.027, -0.1625977, 0.027, -1.3139648, 0.027, -0.1054688, 0.0010385, -0.0011749, 0.027, -0.2885742, 0.027, -1.3789062, 0.027, -0.2475586, , , , , , , , , , , , , , , , , , , , , , 
0.0015577, -0.0092317, 0.0405, -0.65625, 0.0405, -1.4350586, 0.0405, -0.137207, 0.0015577, -0.0070497, 0.0405, 0.3623047, 0.0405, -1.4301758, 0.0405, 0.0654297, 0.0015577, -0.0105745, 0.0405, -0.2412109, 0.0405, -1.7143555, 0.0405, -0.1411133, 0.0015577, -0.0018463, 0.0405, -0.1245117, 0.0405, -1.6225586, 0.0405, -0.2236328, , , , , , , , , , , , , , , , , , , , , , 
0.0020769, -0.0132601, 0.054, -0.7001953, 0.054, -1.6542969, 0.054, -0.1054688, 0.0020769, 0.0005035, 0.054, 0.5004883, 0.054, -1.7446289, 0.054, 0.140625, 0.0020769, -0.0127565, 0.054, -0.2280273, 0.054, -1.734375, 0.054, -0.2172852, 0.0020769, -0.0001678, 0.054, 0.0224609, 0.054, -1.527832, 0.054, -0.1767578, , , , , , , , , , , , , , , , , , , , , , 
0.0025962, -0.0135958, 0.0675, -0.4926758, 0.0675, -1.5986328, 0.0675, -0.0395508, 0.0025962, 0.0008392, 0.0675, 0.5415039, 0.0675, -1.6796875, 0.0675, 0.0644531, 0.0025962, -0.0125887, 0.0675, 0, 0.0675, -1.519043, 0.0675, -0.2163086, 0.0025962, -0.0015106, 0.0675, -0.0200195, 0.0675, -1.3374023, 0.0675, -0.0952148, , , , , , , , , , , , , , , , , , , , , , 
0.0031154, -0.0062104, 0.081, -0.1337891, 0.081, -1.3691406, 0.081, 0.0410156, 0.0031154, -0.0018463, 0.081, 0.5097656, 0.081, -1.3378906, 0.081, -0.109375, 0.0031154, -0.0112459, 0.081, 0.3081055, 0.081, -1.2358398, 0.081, -0.140625, 0.0031154, -0.0005035, 0.081, -0.1030273, 0.081, -1.1987305, 0.081, 0.078125, , , , , , , , , , , , , , , , , , , , , , 
0.0036346, -0.0001678, 0.0945, 0.0849609, 0.0945, -1.1347656, 0.0945, 0.1049805, 0.0036346, -0.0062104, 0.0945, 0.3950195, 0.0945, -1.0249023, 0.0945, -0.2729492, 0.0036346, -0.0099031, 0.0945, 0.5185547, 0.0945, -0.9848633, 0.0945, -0.0458984, 0.0036346, 0.0041962, 0.0945, -0.15625, 0.0945, -1.0625, 0.0945, 0.2304688, , , , , , , , , , , , , , , , , , , , , , 
0.0041538, 0.0008392, 0.108, 0.0878906, 0.108, -0.9248047, 0.108, 0.1298828, 0.0041538, -0.0099031, 0.108, 0.2592773, 0.108, -0.8588867, 0.108, -0.3330078, 0.0041538, -0.010071, 0.108, 0.5161133, 0.108, -0.8027344, 0.108, -0.0205078, 0.0041538, 0.0082246, 0.108, -0.1689453, 0.108, -0.9174805, 0.108, 0.3144531, , , , , , , , , , , , , , , , , , , , , , 
0.0046731, -0.0005035, 0.1215, -0.0053711, 0.1215, -0.7651367, 0.1215, 0.1196289, 0.0046731, -0.0109102, 0.1215, 0.1230469, 0.1215, -0.7685547, 0.1215, -0.3632812, 0.0046731, -0.0102388, 0.1215, 0.3759766, 0.1215, -0.7177734, 0.1215, -0.0610352, 0.0046731, 0.0135958, 0.1215, -0.1728516, 0.1215, -0.8613281, 0.1215, 0.3212891, , , , , , , , , , , , , , , , , , , , , , 
0.0051923, -0.0001678, 0.135, -0.1166992, 0.135, -0.7329102, 0.135, 0.1269531, 0.0051923, -0.012253, 0.135, -0.0039062, 0.135, -0.7216797, 0.135, -0.3876953, 0.0051923, -0.0075532, 0.135, 0.1743164, 0.135, -0.6943359, 0.135, -0.1264648, 0.0051923, 0.0203098, 0.135, -0.1821289, 0.135, -0.784668, 0.135, 0.2553711, , , , , , , , , , , , , , , , , , , , , , 
0.0057115, 0.0011749, 0.1485, -0.2299805, 0.1485, -0.7807617, 0.1485, 0.1289062, 0.0057115, -0.0129244, 0.1485, -0.0375977, 0.1485, -0.7148438, 0.1485, -0.390625, 0.0057115, -0.005539, 0.1485, 0.0693359, 0.1485, -0.7026367, 0.1485, -0.1494141, 0.0057115, 0.0240024, 0.1485, -0.2006836, 0.1485, -0.7700195, 0.1485, 0.1503906, , , , , , , , , , , , , , , , , , , , , , 
0.0062308, 0.0062104, 0.162, -0.3129883, 0.162, -0.8364258, 0.162, 0.1079102, 0.0062308, -0.0115816, 0.162, -0.043457, 0.162, -0.7431641, 0.162, -0.3671875, 0.0062308, -0.0035248, 0.162, -0.0795898, 0.162, -0.7734375, 0.162, -0.1376953, 0.0062308, 0.027863, 0.162, -0.1865234, 0.162, -0.7978516, 0.162, 0.0522461, , , , , , , , , , , , , , , , , , , , , , 
0.00675, 0.0139315, 0.1755, -0.3188477, 0.1755, -0.8857422, 0.1755, 0.0839844, 0.00675, -0.0109102, 0.1755, 0.0131836, 0.1755, -0.7998047, 0.1755, -0.3208008, 0.00675, -0.0031891, 0.1755, -0.0957031, 0.1755, -0.8745117, 0.1755, -0.0947266, 0.00675, 0.0330663, 0.1755, -0.1748047, 0.1755, -0.8618164, 0.1755, -0.0273438, , , , , , , , , , , , , , , , , , , , , , 
0.0072692, 0.0229953, 0.189, -0.2802734, 0.189, -0.9433594, 0.189, 0.0864258, 0.0072692, -0.0099031, 0.189, 0.1523438, 0.189, -0.8427734, 0.189, -0.2592773, 0.0072692, -0.0052033, 0.189, -0.015625, 0.189, -0.9594727, 0.189, -0.0708008, 0.0072692, 0.0391089, 0.189, -0.175293, 0.189, -0.9399414, 0.189, -0.0737305, , , , , , , , , , , , , , , , , , , , , , 
0.0077885, 0.0293736, 0.2025, -0.2739258, 0.2025, -0.9731445, 0.2025, 0.0859375, 0.0077885, -0.0075532, 0.2025, 0.3383789, 0.2025, -0.8925781, 0.2025, -0.1674805, 0.0077885, -0.0082246, 0.2025, 0.0561523, 0.2025, -1.043457, 0.2025, -0.0625, 0.0077885, 0.043473, 0.2025, -0.1757812, 0.2025, -1.0112305, 0.2025, -0.0810547, , , , , , , , , , , , , , , , , , , , , , 
0.0083077, 0.0265202, 0.216, -0.2802734, 0.216, -1.0366211, 0.216, 0.0708008, 0.0083077, -0.0063783, 0.216, 0.4902344, 0.216, -0.9780273, 0.216, -0.0908203, 0.0083077, -0.0085603, 0.216, 0.0766602, 0.216, -1.1342773, 0.216, -0.0546875, 0.0083077, 0.0454871, 0.216, -0.152832, 0.216, -1.0732422, 0.216, -0.0742188, , , , , , , , , , , , , , , , , , , , , , 
0.0088269, 0.026688, 0.2295, -0.2900391, 0.2295, -1.1035156, 0.2295, 0.065918, 0.0088269, -0.0082246, 0.2295, 0.5532227, 0.2295, -1.0639648, 0.2295, -0.046875, 0.0088269, -0.008896, 0.2295, 0.0751953, 0.2295, -1.1923828, 0.2295, -0.0756836, 0.0088269, 0.0468299, 0.2295, -0.1025391, 0.2295, -1.1225586, 0.2295, -0.0727539, , , , , , , , , , , , , , , , , , , , , , 
0.0093462, 0.0327306, 0.243, -0.2763672, 0.243, -1.1430664, 0.243, 0.0722656, 0.0093462, -0.0102388, 0.243, 0.5268555, 0.243, -1.0966797, 0.243, -0.0395508, 0.0093462, -0.0083925, 0.243, 0.0839844, 0.243, -1.1865234, 0.243, -0.1098633, 0.0093462, 0.0508583, 0.243, -0.0439453, 0.243, -1.125, 0.243, -0.0620117, , , , , , , , , , , , , , , , , , , , , , 
0.0098654, 0.0394446, 0.2565, -0.21875, 0.2565, -1.1416016, 0.2565, 0.0600586, 0.0098654, -0.0109102, 0.2565, 0.4790039, 0.2565, -1.0429688, 0.2565, -0.1040039, 0.0098654, -0.0072175, 0.2565, 0.1010742, 0.2565, -1.1166992, 0.2565, -0.1342773, 0.0098654, 0.0528725, 0.2565, 0.0004883, 0.2565, -1.0712891, 0.2565, -0.0571289, , , , , , , , , , , , , , , , , , , , , , 
0.0103846, 0.0424659, 0.27, -0.1621094, 0.27, -1.0986328, 0.27, 0.0791016, 0.0103846, -0.0092317, 0.27, 0.4580078, 0.27, -1.0063477, 0.27, -0.1411133, 0.0103846, -0.0082246, 0.27, 0.1337891, 0.27, -1.0400391, 0.27, -0.1518555, 0.0103846, 0.0468299, 0.27, 0.0087891, 0.27, -1.0463867, 0.27, -0.050293, , , , , , , , , , , , , , , , , , , , , , 
0.0109038, 0.0433051, 0.2835, -0.2026367, 0.2835, -1.0239258, 0.2835, 0.0820312, 0.0109038, -0.0062104, 0.2835, 0.3486328, 0.2835, -0.9594727, 0.2835, -0.1860352, 0.0109038, -0.0092317, 0.2835, 0.1547852, 0.2835, -1.0097656, 0.2835, -0.1513672, 0.0109038, 0.0381018, 0.2835, 0.0112305, 0.2835, -1.0102539, 0.2835, -0.0151367, , , , , , , , , , , , , , , , , , , , , , 
0.0114231, 0.0448157, 0.297, -0.2719727, 0.297, -0.9609375, 0.297, 0.0424805, 0.0114231, -0.005539, 0.297, 0.2138672, 0.297, -0.9462891, 0.297, -0.1806641, 0.0114231, -0.008896, 0.297, 0.1987305, 0.297, -0.9707031, 0.297, -0.1308594, 0.0114231, 0.0317235, 0.297, -0.0102539, 0.297, -0.9868164, 0.297, 0.0395508, , , , , , , , , , , , , , , , , , , , , , 
0.0119423, 0.0501869, 0.3105, -0.265625, 0.3105, -0.9350586, 0.3105, 0.0253906, 0.0119423, -0.0077211, 0.3105, 0.1591797, 0.3105, -0.9165039, 0.3105, -0.1953125, 0.0119423, -0.010071, 0.3105, 0.2060547, 0.3105, -0.9423828, 0.3105, -0.0898438, 0.0119423, 0.0273594, 0.3105, -0.0742188, 0.3105, -0.9604492, 0.3105, 0.0737305, , , , , , , , , , , , , , , , , , , , , , 
0.0124615, 0.0553902, 0.324, -0.2211914, 0.324, -0.9516602, 0.324, 0.0561523, 0.0124615, -0.0102388, 0.324, 0.1557617, 0.324, -0.909668, 0.324, -0.2260742, 0.0124615, -0.0095674, 0.324, 0.1674805, 0.324, -0.9418945, 0.324, -0.0712891, 0.0124615, 0.0236667, 0.324, -0.1748047, 0.324, -0.9487305, 0.324, 0.0854492, , , , , , , , , , , , , , , , , , , , , , 
0.0129808, 0.0505226, 0.3375, -0.2172852, 0.3375, -0.9936523, 0.3375, 0.0742188, 0.0129808, -0.0082246, 0.3375, 0.1645508, 0.3375, -0.9443359, 0.3375, -0.2495117, 0.0129808, -0.0078889, 0.3375, 0.0888672, 0.3375, -0.9765625, 0.3375, -0.0839844, 0.0129808, 0.0219883, 0.3375, -0.2436523, 0.3375, -0.9711914, 0.3375, 0.0776367, , , , , , , , , , , , , , , , , , , , , , 
0.0135, 0.0433051, 0.351, -0.2436523, 0.351, -1.0283203, 0.351, 0.0551758, 0.0135, -0.0068818, 0.351, 0.1992188, 0.351, -0.9975586, 0.351, -0.2329102, 0.0135, -0.0075532, 0.351, 0.0092773, 0.351, -1.03125, 0.351, -0.1005859, 0.0135, 0.0223239, 0.351, -0.2348633, 0.351, -1.0136719, 0.351, 0.0698242, , , , , , , , , , , , , , , , , , , , , , 
0.0140192, 0.0354162, 0.3645, -0.2626953, 0.3645, -1.0595703, 0.3645, 0.043457, 0.0140192, -0.0075532, 0.3645, 0.234375, 0.3645, -1.027832, 0.3645, -0.1879883, 0.0140192, -0.0082246, 0.3645, -0.0126953, 0.3645, -1.0678711, 0.3645, -0.1201172, 0.0140192, 0.0193027, 0.3645, -0.1918945, 0.3645, -1.0415039, 0.3645, 0.0537109, , , , , , , , , , , , , , , , , , , , , , 
0.0145385, 0.0287022, 0.378, -0.2700195, 0.378, -1.0732422, 0.378, 0.0458984, 0.0145385, -0.0082246, 0.378, 0.2783203, 0.378, -1.0458984, 0.378, -0.1445312, 0.0145385, -0.0068818, 0.378, 0.0297852, 0.378, -1.078125, 0.378, -0.1225586, 0.0145385, 0.0132601, 0.378, -0.1660156, 0.378, -1.0546875, 0.378, 0.0385742, , , , , , , , , , , , , , , , , , , , , , 
0.0150577, 0.0253452, 0.3915, -0.2866211, 0.3915, -1.0742188, 0.3915, 0.0527344, 0.0150577, -0.0065461, 0.3915, 0.2915039, 0.3915, -1.0498047, 0.3915, -0.1362305, 0.0150577, -0.0068818, 0.3915, 0.0898438, 0.3915, -1.0605469, 0.3915, -0.1000977, 0.0150577, 0.0095674, 0.3915, -0.1411133, 0.3915, -1.0410156, 0.3915, 0.0366211, , , , , , , , , , , , , , , , , , , , , , 
0.0155769, 0.021149, 0.405, -0.2788086, 0.405, -1.0366211, 0.405, 0.0546875, 0.0155769, -0.0052033, 0.405, 0.2993164, 0.405, -1.0244141, 0.405, -0.1479492, 0.0155769, -0.0072175, 0.405, 0.1132812, 0.405, -1.0410156, 0.405, -0.0854492, 0.0155769, 0.0102388, 0.405, -0.1347656, 0.405, -1.0092773, 0.405, 0.0498047, , , , , , , , , , , , , , , , , , , , , , 
0.0160962, 0.0179599, 0.4185, -0.2363281, 0.4185, -0.9848633, 0.4185, 0.0625, 0.0160962, -0.0050355, 0.4185, 0.2841797, 0.4185, -0.9633789, 0.4185, -0.1757812, 0.0160962, -0.005539, 0.4185, 0.1435547, 0.4185, -0.9882812, 0.4185, -0.0595703, 0.0160962, 0.0115816, 0.4185, -0.137207, 0.4185, -0.9897461, 0.4185, 0.0561523, , , , , , , , , , , , , , , , , , , , , , 
0.0166154, 0.0142672, 0.432, -0.2041016, 0.432, -0.9296875, 0.432, 0.0717773, 0.0166154, -0.0062104, 0.432, 0.2695312, 0.432, -0.9033203, 0.432, -0.1757812, 0.0166154, -0.0048676, 0.432, 0.1533203, 0.432, -0.9316406, 0.432, -0.0463867, 0.0166154, 0.0102388, 0.432, -0.1474609, 0.432, -0.9404297, 0.432, 0.0595703, , , , , , , , , , , , , , , , , , , , , , 
0.0171346, 0.0050355, 0.4455, -0.2109375, 0.4455, -0.8867188, 0.4455, 0.0732422, 0.0171346, -0.0075532, 0.4455, 0.2470703, 0.4455, -0.8588867, 0.4455, -0.1723633, 0.0171346, -0.0058747, 0.4455, 0.1450195, 0.4455, -0.8989258, 0.4455, -0.0424805, 0.0171346, 0.0082246, 0.4455, -0.1508789, 0.4455, -0.9013672, 0.4455, 0.0561523, , , , , , , , , , , , , , , , , , , , , , 
0.0176538, -0.0035248, 0.459, -0.2329102, 0.459, -0.8588867, 0.459, 0.0644531, 0.0176538, -0.0082246, 0.459, 0.2202148, 0.459, -0.828125, 0.459, -0.1806641, 0.0176538, -0.0085603, 0.459, 0.1147461, 0.459, -0.8842773, 0.459, -0.0473633, 0.0176538, 0.0097353, 0.459, -0.1464844, 0.459, -0.8803711, 0.459, 0.0478516, , , , , , , , , , , , , , , , , , , , , , 
0.0181731, -0.0105745, 0.4725, -0.2490234, 0.4725, -0.8486328, 0.4725, 0.0551758, 0.0181731, -0.0072175, 0.4725, 0.2084961, 0.4725, -0.8110352, 0.4725, -0.1850586, 0.0181731, -0.0092317, 0.4725, 0.0834961, 0.4725, -0.8764648, 0.4725, -0.0493164, 0.0181731, 0.0109102, 0.4725, -0.1464844, 0.4725, -0.8613281, 0.4725, 0.0473633, , , , , , , , , , , , , , , , , , , , , , 
0.0186923, -0.0119173, 0.486, -0.2495117, 0.486, -0.8461914, 0.486, 0.0551758, 0.0186923, -0.0052033, 0.486, 0.2094727, 0.486, -0.8046875, 0.486, -0.1708984, 0.0186923, -0.0082246, 0.486, 0.0717773, 0.486, -0.8696289, 0.486, -0.0507812, 0.0186923, 0.0095674, 0.486, -0.1484375, 0.486, -0.8491211, 0.486, 0.0537109, , , , , , , , , , , , , , , , , , , , , , 
0.0192115, -0.008896, 0.4995, -0.2407227, 0.4995, -0.847168, 0.4995, 0.0585938, 0.0192115, -0.0063783, 0.4995, 0.2202148, 0.4995, -0.8071289, 0.4995, -0.1655273, 0.0192115, -0.0075532, 0.4995, 0.0878906, 0.4995, -0.8652344, 0.4995, -0.0546875, 0.0192115, 0.008896, 0.4995, -0.1611328, 0.4995, -0.8461914, 0.4995, 0.0620117, , , , , , , , , , , , , , , , , , , , , , 
0.0197308, -0.0092317, 0.513, -0.2338867, 0.513, -0.8686523, 0.513, 0.0668945, 0.0197308, -0.0095674, 0.513, 0.2421875, 0.513, -0.8286133, 0.513, -0.1845703, 0.0197308, -0.0058747, 0.513, 0.1113281, 0.513, -0.8774414, 0.513, -0.0561523, 0.0197308, 0.0082246, 0.513, -0.1787109, 0.513, -0.8574219, 0.513, 0.0732422, , , , , , , , , , , , , , , , , , , , , , 
0.02025, -0.0162814, 0.5265, -0.2402344, 0.5265, -0.9013672, 0.5265, 0.0844727, 0.02025, -0.0109102, 0.5265, 0.2597656, 0.5265, -0.8491211, 0.5265, -0.1865234, 0.02025, -0.005539, 0.5265, 0.1318359, 0.5265, -0.9233398, 0.5265, -0.0405273, 0.02025, 0.0028534, 0.5265, -0.1982422, 0.5265, -0.8994141, 0.5265, 0.0854492, , , , , , , , , , , , , , , , , , , , , , 
0.0207692, -0.0251774, 0.54, -0.2509766, 0.54, -0.9228516, 0.54, 0.0888672, 0.0207692, -0.0087282, 0.54, 0.2822266, 0.54, -0.9033203, 0.54, -0.1689453, 0.0207692, -0.0082246, 0.54, 0.1386719, 0.54, -0.9580078, 0.54, -0.0322266, 0.0207692, -0.0072175, 0.54, -0.2045898, 0.54, -0.9560547, 0.54, 0.0932617, , , , , , , , , , , , , , , , , , , , , , 
0.0212885, -0.0273594, 0.5535, -0.2915039, 0.5535, -0.9746094, 0.5535, 0.0878906, 0.0212885, -0.0082246, 0.5535, 0.2993164, 0.5535, -0.9584961, 0.5535, -0.1650391, 0.0212885, -0.0109102, 0.5535, 0.1289062, 0.5535, -1.0375977, 0.5535, -0.0410156, 0.0212885, -0.0139315, 0.5535, -0.1977539, 0.5535, -1.0180664, 0.5535, 0.0898438, , , , , , , , , , , , , , , , , , , , , , 
0.0218077, -0.0297093, 0.567, -0.3266602, 0.567, -1.0429688, 0.567, 0.0878906, 0.0218077, -0.0070497, 0.567, 0.3208008, 0.567, -1.0136719, 0.567, -0.1762695, 0.0218077, -0.0112459, 0.567, 0.1040039, 0.567, -1.1171875, 0.567, -0.0737305, 0.0218077, -0.0162814, 0.567, -0.1860352, 0.567, -1.0556641, 0.567, 0.081543, , , , , , , , , , , , , , , , , , , , , , 
0.0223269, -0.0354162, 0.5805, -0.3354492, 0.5805, -1.121582, 0.5805, 0.0913086, 0.0223269, -0.0068818, 0.5805, 0.3393555, 0.5805, -1.0844727, 0.5805, -0.1845703, 0.0223269, -0.0112459, 0.5805, 0.0927734, 0.5805, -1.1918945, 0.5805, -0.1088867, 0.0223269, -0.0179599, 0.5805, -0.1523438, 0.5805, -1.1269531, 0.5805, 0.0717773, , , , , , , , , , , , , , , , , , , , , , 
0.0228462, -0.0391089, 0.594, -0.3300781, 0.594, -1.1816406, 0.594, 0.0981445, 0.0228462, -0.0057069, 0.594, 0.3466797, 0.594, -1.1401367, 0.594, -0.1816406, 0.0228462, -0.0104067, 0.594, 0.0966797, 0.594, -1.2182617, 0.594, -0.1352539, 0.0228462, -0.0182956, 0.594, -0.0839844, 0.594, -1.1630859, 0.594, 0.0605469, , , , , , , , , , , , , , , , , , , , , , 
0.0233654, -0.0364233, 0.6075, -0.2890625, 0.6075, -1.1899414, 0.6075, 0.0874023, 0.0233654, -0.0046998, 0.6075, 0.3476562, 0.6075, -1.1357422, 0.6075, -0.1787109, 0.0233654, -0.0092317, 0.6075, 0.1308594, 0.6075, -1.1782227, 0.6075, -0.1420898, 0.0233654, -0.0164492, 0.6075, -0.0263672, 0.6075, -1.1518555, 0.6075, 0.0551758, , , , , , , , , , , , , , , , , , , , , , 
0.0238846, -0.0310521, 0.621, -0.2133789, 0.621, -1.1396484, 0.621, 0.0825195, 0.0238846, -0.0058747, 0.621, 0.3413086, 0.621, -1.0761719, 0.621, -0.1914062, 0.0238846, -0.0085603, 0.621, 0.1967773, 0.621, -1.0952148, 0.621, -0.1289062, 0.0238846, -0.0119173, 0.621, -0.0053711, 0.621, -1.1030273, 0.621, 0.0610352, , , , , , , , , , , , , , , , , , , , , , 
0.0244038, -0.0263523, 0.6345, -0.1347656, 0.6345, -1.0795898, 0.6345, 0.0991211, 0.0244038, -0.0085603, 0.6345, 0.3222656, 0.6345, -1.0068359, 0.6345, -0.2265625, 0.0244038, -0.0082246, 0.6345, 0.2631836, 0.6345, -1.0102539, 0.6345, -0.1030273, 0.0244038, -0.0068818, 0.6345, -0.0234375, 0.6345, -1.0439453, 0.6345, 0.0766602, , , , , , , , , , , , , , , , , , , , , , 
0.0249231, -0.0240024, 0.648, -0.0986328, 0.648, -1.0205078, 0.648, 0.1132812, 0.0249231, -0.0102388, 0.648, 0.3032227, 0.648, -0.9780273, 0.648, -0.2436523, 0.0249231, -0.008896, 0.648, 0.28125, 0.648, -0.9487305, 0.648, -0.0717773, 0.0249231, -0.002182, 0.648, -0.0639648, 0.648, -0.9916992, 0.648, 0.0913086, , , , , , , , , , , , , , , , , , , , , , 
0.0254423, -0.0194705, 0.6615, -0.1079102, 0.6615, -0.972168, 0.6615, 0.1079102, 0.0254423, -0.0104067, 0.6615, 0.2607422, 0.6615, -0.9296875, 0.6615, -0.2695312, 0.0254423, -0.0083925, 0.6615, 0.2441406, 0.6615, -0.9194336, 0.6615, -0.0507812, 0.0254423, 0.0048676, 0.6615, -0.1064453, 0.6615, -0.9536133, 0.6615, 0.1054688, , , , , , , , , , , , , , , , , , , , , , 
0.0259615, -0.0129244, 0.675, -0.1494141, 0.675, -0.9506836, 0.675, 0.1035156, 0.0259615, -0.0102388, 0.675, 0.2211914, 0.675, -0.887207, 0.675, -0.2822266, 0.0259615, -0.0077211, 0.675, 0.2138672, 0.675, -0.9179688, 0.675, -0.050293, 0.0259615, 0.0095674, 0.675, -0.1425781, 0.675, -0.9370117, 0.675, 0.1079102, , , , , , , , , , , , , , , , , , , , , , 
0.0264808, -0.0052033, 0.6885, -0.2045898, 0.6885, -0.956543, 0.6885, 0.1035156, 0.0264808, -0.0092317, 0.6885, 0.2216797, 0.6885, -0.8833008, 0.6885, -0.269043, 0.0264808, -0.0082246, 0.6885, 0.1494141, 0.6885, -0.9433594, 0.6885, -0.0522461, 0.0264808, 0.0162814, 0.6885, -0.168457, 0.6885, -0.9399414, 0.6885, 0.1025391, , , , , , , , , , , , , , , , , , , , , , 
0.027, 0.0038605, 0.702, -0.2324219, 0.702, -0.9614258, 0.702, 0.1044922, 0.027, -0.0082246, 0.702, 0.2373047, 0.702, -0.9038086, 0.702, -0.2368164, 0.027, -0.0082246, 0.702, 0.1064453, 0.702, -0.9775391, 0.702, -0.0463867, 0.027, 0.0246738, 0.702, -0.1816406, 0.702, -0.9487305, 0.702, 0.097168, , , , , , , , , , , , , , , , , , , , , , 
0.0275192, 0.011078, 0.7155, -0.2626953, 0.7155, -0.9643555, 0.7155, 0.1015625, 0.0275192, -0.0072175, 0.7155, 0.269043, 0.7155, -0.9248047, 0.7155, -0.2099609, 0.0275192, -0.0062104, 0.7155, 0.0976562, 0.7155, -0.9912109, 0.7155, -0.0419922, 0.0275192, 0.0310521, 0.7155, -0.184082, 0.7155, -0.9545898, 0.7155, 0.0957031, , , , , , , , , , , , , , , , , , , , , , 
0.0280385, 0.0169528, 0.729, -0.2607422, 0.729, -0.9750977, 0.729, 0.1040039, 0.0280385, -0.0041962, 0.729, 0.3032227, 0.729, -0.9404297, 0.729, -0.2001953, 0.0280385, -0.0028534, 0.729, 0.1152344, 0.729, -0.9990234, 0.729, -0.0341797, 0.0280385, 0.0352483, 0.729, -0.1923828, 0.729, -0.9672852, 0.729, 0.0996094, , , , , , , , , , , , , , , , , , , , , , 
0.0285577, 0.0221561, 0.7425, -0.237793, 0.7425, -0.9931641, 0.7425, 0.1201172, 0.0285577, -0.0025177, 0.7425, 0.3349609, 0.7425, -0.956543, 0.7425, -0.2026367, 0.0285577, -0.0005035, 0.7425, 0.1425781, 0.7425, -1.0107422, 0.7425, -0.0185547, 0.0285577, 0.0384375, 0.7425, -0.2041016, 0.7425, -0.9863281, 0.7425, 0.1020508, , , , , , , , , , , , , , , , , , , , , , 
0.0290769, 0.0285344, 0.756, -0.2172852, 0.756, -1.0048828, 0.756, 0.1328125, 0.0290769, -0.0035248, 0.756, 0.3525391, 0.756, -0.9667969, 0.756, -0.2084961, 0.0290769, -0.0018463, 0.756, 0.1679688, 0.756, -1.015625, 0.756, 0.0019531, 0.0290769, 0.040116, 0.756, -0.2119141, 0.756, -0.9941406, 0.756, 0.0981445, , , , , , , , , , , , , , , , , , , , , , 
0.0295962, 0.0313878, 0.7695, -0.2045898, 0.7695, -1.0107422, 0.7695, 0.137207, 0.0295962, -0.0045319, 0.7695, 0.3564453, 0.7695, -0.9682617, 0.7695, -0.2114258, 0.0295962, -0.0031891, 0.7695, 0.1704102, 0.7695, -1.0180664, 0.7695, 0.0185547, 0.0295962, 0.040116, 0.7695, -0.2128906, 0.7695, -1, 0.7695, 0.0908203, , , , , , , , , , , , , , , , , , , , , , 
0.0301154, 0.0293736, 0.783, -0.2080078, 0.783, -1.0112305, 0.783, 0.1401367, 0.0301154, -0.0028534, 0.783, 0.3574219, 0.783, -0.9599609, 0.783, -0.2207031, 0.0301154, -0.0031891, 0.783, 0.159668, 0.783, -1.0214844, 0.783, 0.0166016, 0.0301154, 0.0384375, 0.783, -0.2119141, 0.783, -1.0043945, 0.783, 0.0888672, , , , , , , , , , , , , , , , , , , , , , 
0.0306346, 0.0287022, 0.7965, -0.2270508, 0.7965, -1.0024414, 0.7965, 0.1416016, 0.0306346, -0.0005035, 0.7965, 0.3349609, 0.7965, -0.949707, 0.7965, -0.2338867, 0.0306346, -0.0016785, 0.7965, 0.1499023, 0.7965, -1.0229492, 0.7965, 0.0102539, 0.0306346, 0.0330663, 0.7965, -0.2124023, 0.7965, -0.9975586, 0.7965, 0.0913086, , , , , , , , , , , , , , , , , , , , , , 
0.0311538, 0.0327306, 0.81, -0.2495117, 0.81, -0.987793, 0.81, 0.1391602, 0.0311538, 0.0003357, 0.81, 0.3012695, 0.81, -0.9414062, 0.81, -0.2441406, 0.0311538, -0.0028534, 0.81, 0.1357422, 0.81, -1.0185547, 0.81, -0.0053711, 0.0311538, 0.0240024, 0.81, -0.2041016, 0.81, -0.987793, 0.81, 0.09375, , , , , , , , , , , , , , , , , , , , , , 
0.0316731, 0.0315557, 0.8235, -0.2558594, 0.8235, -0.9755859, 0.8235, 0.1411133, 0.0316731, -0.0003357, 0.8235, 0.277832, 0.8235, -0.9306641, 0.8235, -0.2490234, 0.0316731, -0.0045319, 0.8235, 0.1337891, 0.8235, -1.0048828, 0.8235, -0.0097656, 0.0316731, 0.0152743, 0.8235, -0.1923828, 0.8235, -0.9790039, 0.8235, 0.0913086, , , , , , , , , , , , , , , , , , , , , , 
0.0321923, 0.0260166, 0.837, -0.2387695, 0.837, -0.9677734, 0.837, 0.1420898, 0.0321923, -0.002182, 0.837, 0.2763672, 0.837, -0.918457, 0.837, -0.2495117, 0.0321923, -0.005539, 0.837, 0.1450195, 0.837, -0.987793, 0.837, -0.0004883, 0.0321923, 0.0078889, 0.837, -0.1938477, 0.837, -0.9726562, 0.837, 0.0927734, , , , , , , , , , , , , , , , , , , , , , 
0.0327115, 0.0229953, 0.8505, -0.2177734, 0.8505, -0.9619141, 0.8505, 0.1391602, 0.0327115, -0.0028534, 0.8505, 0.2895508, 0.8505, -0.9082031, 0.8505, -0.2509766, 0.0327115, -0.0063783, 0.8505, 0.1591797, 0.8505, -0.9726562, 0.8505, 0.0087891, 0.0327115, 0.0038605, 0.8505, -0.2060547, 0.8505, -0.9624023, 0.8505, 0.0996094, , , , , , , , , , , , , , , , , , , , , , 
0.0332308, 0.0219883, 0.864, -0.2055664, 0.864, -0.9609375, 0.864, 0.1352539, 0.0332308, -0.002182, 0.864, 0.3100586, 0.864, -0.9106445, 0.864, -0.2358398, 0.0332308, -0.0072175, 0.864, 0.1699219, 0.864, -0.9702148, 0.864, 0.015625, 0.0332308, 0.0028534, 0.864, -0.2167969, 0.864, -0.9594727, 0.864, 0.1020508, , , , , , , , , , , , , , , , , , , , , , 
0.03375, 0.0218204, 0.8775, -0.2041016, 0.8775, -0.9599609, 0.8775, 0.1352539, 0.03375, -0.0028534, 0.8775, 0.3139648, 0.8775, -0.918457, 0.8775, -0.2241211, 0.03375, -0.0082246, 0.8775, 0.168457, 0.8775, -0.9672852, 0.8775, 0.0224609, 0.03375, -0.0001678, 0.8775, -0.2304688, 0.8775, -0.9589844, 0.8775, 0.1049805, , , , , , , , , , , , , , , , , , , , , , 
0.0342692, 0.0263523, 0.891, -0.2114258, 0.891, -0.9624023, 0.891, 0.1313477, 0.0342692, -0.0028534, 0.891, 0.3129883, 0.891, -0.9223633, 0.891, -0.2216797, 0.0342692, -0.0095674, 0.891, 0.1586914, 0.891, -0.9711914, 0.891, 0.0253906, 0.0342692, -0.0035248, 0.891, -0.2387695, 0.891, -0.9619141, 0.891, 0.1074219, , , , , , , , , , , , , , , , , , , , , , 
0.0347885, 0.0320592, 0.9045, -0.2285156, 0.9045, -0.9648438, 0.9045, 0.1342773, 0.0347885, -0.0006714, 0.9045, 0.3037109, 0.9045, -0.9296875, 0.9045, -0.2250977, 0.0347885, -0.0077211, 0.9045, 0.1469727, 0.9045, -0.9814453, 0.9045, 0.0258789, 0.0347885, -0.0062104, 0.9045, -0.2436523, 0.9045, -0.9672852, 0.9045, 0.1030273, , , , , , , , , , , , , , , , , , , , , , 
0.0353077, 0.0287022, 0.918, -0.25, 0.918, -0.9677734, 0.918, 0.1362305, 0.0353077, -0.0001678, 0.918, 0.2875977, 0.918, -0.9301758, 0.918, -0.2304688, 0.0353077, -0.0068818, 0.918, 0.1367188, 0.918, -0.9897461, 0.918, 0.019043, 0.0353077, -0.008896, 0.918, -0.2363281, 0.918, -0.9663086, 0.918, 0.0961914, , , , , , , , , , , , , , , , , , , , , , 
0.0358269, 0.0219883, 0.9315, -0.2607422, 0.9315, -0.9697266, 0.9315, 0.1357422, 0.0358269, -0.0031891, 0.9315, 0.2866211, 0.9315, -0.9282227, 0.9315, -0.234375, 0.0358269, -0.0095674, 0.9315, 0.1337891, 0.9315, -0.9912109, 0.9315, 0.0180664, 0.0358269, -0.0095674, 0.9315, -0.2285156, 0.9315, -0.9692383, 0.9315, 0.0996094, , , , , , , , , , , , , , , , , , , , , , 
0.0363462, 0.0193027, 0.945, -0.2661133, 0.945, -0.9672852, 0.945, 0.140625, 0.0363462, -0.0052033, 0.945, 0.2939453, 0.945, -0.9272461, 0.945, -0.2314453, 0.0363462, -0.0109102, 0.945, 0.1323242, 0.945, -0.9936523, 0.945, 0.0117188, 0.0363462, -0.0102388, 0.945, -0.2304688, 0.945, -0.9741211, 0.945, 0.1015625, , , , , , , , , , , , , , , , , , , , , , 
0.0368654, 0.0213169, 0.9585, -0.25, 0.9585, -0.9619141, 0.9585, 0.1391602, 0.0368654, -0.0062104, 0.9585, 0.3081055, 0.9585, -0.925293, 0.9585, -0.2260742, 0.0368654, -0.0102388, 0.9585, 0.1386719, 0.9585, -0.9926758, 0.9585, 0.012207, 0.0368654, -0.0109102, 0.9585, -0.2250977, 0.9585, -0.9707031, 0.9585, 0.1000977, , , , , , , , , , , , , , , , , , , , , , 
0.0373846, 0.0223239, 0.972, -0.2319336, 0.972, -0.9575195, 0.972, 0.1455078, 0.0373846, -0.0073854, 0.972, 0.3251953, 0.972, -0.9165039, 0.972, -0.222168, 0.0373846, -0.0075532, 0.972, 0.1450195, 0.972, -0.9794922, 0.972, 0.019043, 0.0373846, -0.0109102, 0.972, -0.2226562, 0.972, -0.9594727, 0.972, 0.1025391, , , , , , , , , , , , , , , , , , , , , , 
0.0379038, 0.0226596, 0.9855, -0.2163086, 0.9855, -0.949707, 0.9855, 0.1469727, 0.0379038, -0.0083925, 0.9855, 0.3320312, 0.9855, -0.9072266, 0.9855, -0.2192383, 0.0379038, -0.0075532, 0.9855, 0.1577148, 0.9855, -0.9614258, 0.9855, 0.0209961, 0.0379038, -0.012253, 0.9855, -0.2133789, 0.9855, -0.9453125, 0.9855, 0.097168, , , , , , , , , , , , , , , , , , , , , , 
0.0384231, 0.0226596, 0.999, -0.2114258, 0.999, -0.9423828, 0.999, 0.1381836, 0.0384231, -0.0095674, 0.999, 0.3256836, 0.999, -0.8935547, 0.999, -0.2207031, 0.0384231, -0.0085603, 0.999, 0.168457, 0.999, -0.9467773, 0.999, 0.0166016, 0.0384231, -0.0115816, 0.999, -0.2011719, 0.999, -0.9345703, 0.999, 0.090332, , , , , , , , , , , , , , , , , , , , , , 
0.0389423, 0.0204776, 1.0125, -0.2099609, 1.0125, -0.9272461, 1.0125, 0.1308594, 0.0389423, -0.0097353, 1.0125, 0.3222656, 1.0125, -0.8891602, 1.0125, -0.2197266, 0.0389423, -0.0109102, 1.0125, 0.1699219, 1.0125, -0.9384766, 1.0125, 0.0126953, 0.0389423, -0.0099031, 1.0125, -0.1879883, 1.0125, -0.9233398, 1.0125, 0.0869141, , , , , , , , , , , , , , , , , , , , , , 
0.0394615, 0.0149386, 1.026, -0.2231445, 1.026, -0.9155273, 1.026, 0.1274414, 0.0394615, -0.008896, 1.026, 0.3085938, 1.026, -0.8754883, 1.026, -0.2163086, 0.0394615, -0.0109102, 1.026, 0.1645508, 1.026, -0.9282227, 1.026, 0.0048828, 0.0394615, -0.0090639, 1.026, -0.1806641, 1.026, -0.9174805, 1.026, 0.0844727, , , , , , , , , , , , , , , , , , , , , , 
0.0399808, 0.0092317, 1.0395, -0.2338867, 1.0395, -0.9135742, 1.0395, 0.1225586, 0.0399808, -0.0070497, 1.0395, 0.2915039, 1.0395, -0.8662109, 1.0395, -0.2104492, 0.0399808, -0.0109102, 1.0395, 0.1557617, 1.0395, -0.9262695, 1.0395, 0.0029297, 0.0399808, -0.0109102, 1.0395, -0.1699219, 1.0395, -0.9125977, 1.0395, 0.0766602, , , , , , , , , , , , , , , , , , , , , , 
0.0405, 0.0025177, 1.053, -0.2353516, 1.053, -0.9086914, 1.053, 0.1088867, 0.0405, -0.0077211, 1.053, 0.284668, 1.053, -0.8603516, 1.053, -0.2060547, 0.0405, -0.0095674, 1.053, 0.1484375, 1.053, -0.9213867, 1.053, 0.0009766, 0.0405, -0.01561, 1.053, -0.1625977, 1.053, -0.90625, 1.053, 0.0703125, , , , , , , , , , , , , , , , , , , , , , 
0.0410192, -0.0048676, 1.0665, -0.2211914, 1.0665, -0.9047852, 1.0665, 0.1083984, 0.0410192, -0.0095674, 1.0665, 0.2861328, 1.0665, -0.8632812, 1.0665, -0.2011719, 0.0410192, -0.0082246, 1.0665, 0.1445312, 1.0665, -0.9194336, 1.0665, -0.0039062, 0.0410192, -0.0216526, 1.0665, -0.1533203, 1.0665, -0.8989258, 1.0665, 0.0634766, , , , , , , , , , , , , , , , , , , , , , 
0.0415385, -0.0070497, 1.08, -0.2075195, 1.08, -0.8916016, 1.08, 0.1074219, 0.0415385, -0.0109102, 1.08, 0.2880859, 1.08, -0.855957, 1.08, -0.1865234, 0.0415385, -0.0077211, 1.08, 0.1459961, 1.08, -0.8984375, 1.08, -0.0097656, 0.0415385, -0.0243381, 1.08, -0.1420898, 1.08, -0.8862305, 1.08, 0.0678711, , , , , , , , , , , , , , , , , , , , , , 
0.0420577, -0.0062104, 1.0935, -0.1967773, 1.0935, -0.8808594, 1.0935, 0.1005859, 0.0420577, -0.0102388, 1.0935, 0.293457, 1.0935, -0.8378906, 1.0935, -0.1845703, 0.0420577, -0.010071, 1.0935, 0.1601562, 1.0935, -0.878418, 1.0935, -0.0097656, 0.0420577, -0.0243381, 1.0935, -0.1333008, 1.0935, -0.8720703, 1.0935, 0.0673828, , , , , , , , , , , , , , , , , , , , , , 
0.0425769, -0.0099031, 1.107, -0.1743164, 1.107, -0.8686523, 1.107, 0.0942383, 0.0425769, -0.011078, 1.107, 0.2988281, 1.107, -0.8154297, 1.107, -0.1845703, 0.0425769, -0.0125887, 1.107, 0.1674805, 1.107, -0.855957, 1.107, -0.0087891, 0.0425769, -0.0223239, 1.107, -0.1352539, 1.107, -0.8461914, 1.107, 0.0688477, , , , , , , , , , , , , , , , , , , , , , 
0.0430962, -0.012253, 1.1205, -0.1450195, 1.1205, -0.84375, 1.1205, 0.0878906, 0.0430962, -0.0115816, 1.1205, 0.2910156, 1.1205, -0.7880859, 1.1205, -0.1875, 0.0430962, -0.0117494, 1.1205, 0.1655273, 1.1205, -0.8266602, 1.1205, -0.0166016, 0.0430962, -0.0191348, 1.1205, -0.1347656, 1.1205, -0.8154297, 1.1205, 0.0717773, , , , , , , , , , , , , , , , , , , , , , 
0.0436154, -0.0095674, 1.134, -0.144043, 1.134, -0.8198242, 1.134, 0.0981445, 0.0436154, -0.0095674, 1.134, 0.2788086, 1.134, -0.762207, 1.134, -0.1884766, 0.0436154, -0.0095674, 1.134, 0.1591797, 1.134, -0.7998047, 1.134, -0.0244141, 0.0436154, -0.0139315, 1.134, -0.125, 1.134, -0.7915039, 1.134, 0.0683594, , , , , , , , , , , , , , , , , , , , , , 
0.0441346, -0.0031891, 1.1475, -0.152832, 1.1475, -0.7875977, 1.1475, 0.090332, 0.0441346, -0.0083925, 1.1475, 0.2641602, 1.1475, -0.7490234, 1.1475, -0.1889648, 0.0441346, -0.008896, 1.1475, 0.1494141, 1.1475, -0.7783203, 1.1475, -0.0244141, 0.0441346, -0.0062104, 1.1475, -0.1049805, 1.1475, -0.7680664, 1.1475, 0.0708008, , , , , , , , , , , , , , , , , , , , , , 
0.0446538, 0.0031891, 1.161, -0.1547852, 1.161, -0.7587891, 1.161, 0.0825195, 0.0446538, -0.0078889, 1.161, 0.2412109, 1.161, -0.7226562, 1.161, -0.1923828, 0.0446538, -0.0065461, 1.161, 0.1450195, 1.161, -0.753418, 1.161, -0.0307617, 0.0446538, 0.0011749, 1.161, -0.0947266, 1.161, -0.7441406, 1.161, 0.0678711, , , , , , , , , , , , , , , , , , , , , , 
0.0451731, 0.008896, 1.1745, -0.1611328, 1.1745, -0.737793, 1.1745, 0.0708008, 0.0451731, -0.0082246, 1.1745, 0.2158203, 1.1745, -0.7045898, 1.1745, -0.1860352, 0.0451731, -0.0063783, 1.1745, 0.1464844, 1.1745, -0.7280273, 1.1745, -0.0351562, 0.0451731, 0.0065461, 1.1745, -0.0932617, 1.1745, -0.7329102, 1.1745, 0.0717773, , , , , , , , , , , , , , , , , , , , , , 
0.0456923, 0.0142672, 1.188, -0.1518555, 1.188, -0.7119141, 1.188, 0.0517578, 0.0456923, -0.0082246, 1.188, 0.1870117, 1.188, -0.6782227, 1.188, -0.1787109, 0.0456923, -0.0068818, 1.188, 0.1484375, 1.188, -0.7158203, 1.188, -0.0390625, 0.0456923, 0.0114137, 1.188, -0.0800781, 1.188, -0.7231445, 1.188, 0.0800781, , , , , , , , , , , , , , , , , , , , , , 
0.0462115, 0.0187991, 1.2015, -0.1313477, 1.2015, -0.6835938, 1.2015, 0.043457, 0.0462115, -0.0075532, 1.2015, 0.1713867, 1.2015, -0.6489258, 1.2015, -0.1762695, 0.0462115, -0.0065461, 1.2015, 0.1489258, 1.2015, -0.6757812, 1.2015, -0.0366211, 0.0462115, 0.0186313, 1.2015, -0.0893555, 1.2015, -0.6767578, 1.2015, 0.0644531, , , , , , , , , , , , , , , , , , , , , , 
0.0467308, 0.0224918, 1.215, -0.128418, 1.215, -0.6699219, 1.215, 0.046875, 0.0467308, -0.0072175, 1.215, 0.1567383, 1.215, -0.6201172, 1.215, -0.1738281, 0.0467308, -0.005539, 1.215, 0.144043, 1.215, -0.6347656, 1.215, -0.0483398, 0.0467308, 0.0276951, 1.215, -0.0922852, 1.215, -0.6342773, 1.215, 0.0668945, , , , , , , , , , , , , , , , , , , , , , 
0.04725, 0.0287022, 1.2285, -0.1254883, 1.2285, -0.6347656, 1.2285, 0.0498047, 0.04725, -0.005539, 1.2285, 0.1606445, 1.2285, -0.5874023, 1.2285, -0.1723633, 0.04725, -0.005539, 1.2285, 0.1337891, 1.2285, -0.605957, 1.2285, -0.0585938, 0.04725, 0.0360876, 1.2285, -0.0864258, 1.2285, -0.6054688, 1.2285, 0.0488281, , , , , , , , , , , , , , , , , , , , , , 
0.0477692, 0.0381018, 1.242, -0.1347656, 1.242, -0.6088867, 1.242, 0.0410156, 0.0477692, -0.0036927, 1.242, 0.1650391, 1.242, -0.5708008, 1.242, -0.1601562, 0.0477692, -0.0072175, 1.242, 0.1201172, 1.242, -0.5922852, 1.242, -0.0703125, 0.0477692, 0.0431373, 1.242, -0.0410156, 1.242, -0.6069336, 1.242, 0.0556641, , , , , , , , , , , , , , , , , , , , , , 
0.0482885, 0.0481727, 1.2555, -0.1557617, 1.2555, -0.6015625, 1.2555, 0.0288086, 0.0482885, -0.0058747, 1.2555, 0.1523438, 1.2555, -0.5732422, 1.2555, -0.1459961, 0.0482885, -0.008896, 1.2555, 0.1083984, 1.2555, -0.6069336, 1.2555, -0.0766602, 0.0482885, 0.0475013, 1.2555, -0.0136719, 1.2555, -0.6230469, 1.2555, 0.0449219, , , , , , , , , , , , , , , , , , , , , , 
0.0488077, 0.0508583, 1.269, -0.1728516, 1.269, -0.6098633, 1.269, 0.019043, 0.0488077, -0.0109102, 1.269, 0.1416016, 1.269, -0.5742188, 1.269, -0.144043, 0.0488077, -0.0072175, 1.269, 0.0820312, 1.269, -0.6245117, 1.269, -0.0805664, 0.0488077, 0.0525368, 1.269, -0.0859375, 1.269, -0.597168, 1.269, 0.0141602, , , , , , , , , , , , , , , , , , , , , , 
0.0493269, 0.0518654, 1.2825, -0.1645508, 1.2825, -0.6176758, 1.2825, 0.0151367, 0.0493269, -0.012253, 1.2825, 0.1318359, 1.2825, -0.5737305, 1.2825, -0.137207, 0.0493269, -0.005539, 1.2825, 0.059082, 1.2825, -0.6220703, 1.2825, -0.0952148, 0.0493269, 0.0569009, 1.2825, -0.0629883, 1.2825, -0.581543, 1.2825, 0.0068359, , , , , , , , , , , , , , , , , , , , , , 
0.0498462, 0.0528725, 1.296, -0.1328125, 1.296, -0.6264648, 1.296, 0.0029297, 0.0498462, -0.012253, 1.296, 0.1289062, 1.296, -0.5668945, 1.296, -0.1308594, 0.0498462, -0.0058747, 1.296, 0.0488281, 1.296, -0.6083984, 1.296, -0.1230469, 0.0498462, 0.0569009, 1.296, 0.0058594, 1.296, -0.5961914, 1.296, 0.0073242, , , , , , , , , , , , , , , , , , , , , , 
0.0503654, 0.0535439, 1.3095, -0.1298828, 1.3095, -0.6367188, 1.3095, -0.0043945, 0.0503654, -0.0109102, 1.3095, 0.1342773, 1.3095, -0.5776367, 1.3095, -0.1313477, 0.0503654, -0.0062104, 1.3095, 0.0576172, 1.3095, -0.612793, 1.3095, -0.1557617, 0.0503654, 0.0528725, 1.3095, 0.0756836, 1.3095, -0.6113281, 1.3095, 0, , , , , , , , , , , , , , , , , , , , , , 
0.0508846, 0.0522011, 1.323, -0.1357422, 1.323, -0.6367188, 1.323, -0.0185547, 0.0508846, -0.0095674, 1.323, 0.1503906, 1.323, -0.5986328, 1.323, -0.1088867, 0.0508846, -0.005539, 1.323, 0.0693359, 1.323, -0.6201172, 1.323, -0.1689453, 0.0508846, 0.0454871, 1.323, 0.1005859, 1.323, -0.6054688, 1.323, -0.0131836, , , , , , , , , , , , , , , , , , , , , , 
0.0514038, 0.0488441, 1.3365, -0.1064453, 1.3365, -0.6157227, 1.3365, -0.0424805, 0.0514038, -0.008896, 1.3365, 0.1435547, 1.3365, -0.59375, 1.3365, -0.0893555, 0.0514038, -0.0068818, 1.3365, 0.0786133, 1.3365, -0.6245117, 1.3365, -0.1860352, 0.0514038, 0.0344091, 1.3365, 0.1323242, 1.3365, -0.5981445, 1.3365, -0.0161133, , , , , , , , , , , , , , , , , , , , , , 
0.0519231, 0.0438087, 1.35, -0.0751953, 1.35, -0.6069336, 1.35, -0.0371094, 0.0519231, -0.0075532, 1.35, 0.105957, 1.35, -0.5678711, 1.35, -0.1152344, 0.0519231, -0.0078889, 1.35, 0.1010742, 1.35, -0.5859375, 1.35, -0.2070312, 0.0519231, 0.026688, 1.35, 0.1425781, 1.35, -0.5830078, 1.35, -0.0185547, , , , , , , , , , , , , , , , , , , , , , 
0.0524423, 0.0387732, 1.3635, -0.0756836, 1.3635, -0.6367188, 1.3635, -0.0263672, 0.0524423, -0.0035248, 1.3635, 0.0664062, 1.3635, -0.5615234, 1.3635, -0.1577148, 0.0524423, -0.0087282, 1.3635, 0.1323242, 1.3635, -0.5581055, 1.3635, -0.2207031, 0.0524423, 0.023331, 1.3635, 0.1533203, 1.3635, -0.5717773, 1.3635, -0.019043, , , , , , , , , , , , , , , , , , , , , , 
0.0529615, 0.0381018, 1.377, -0.0791016, 1.377, -0.6606445, 1.377, -0.0249023, 0.0529615, -0.0015106, 1.377, 0.0454102, 1.377, -0.6074219, 1.377, -0.1875, 0.0529615, -0.0102388, 1.377, 0.1347656, 1.377, -0.581543, 1.377, -0.2324219, 0.0529615, 0.0209812, 1.377, 0.1459961, 1.377, -0.5961914, 1.377, -0.0107422, , , , , , , , , , , , , , , , , , , , , , 
0.0534808, 0.0360876, 1.3905, -0.0864258, 1.3905, -0.7280273, 1.3905, -0.0219727, 0.0534808, -0.0052033, 1.3905, 0.0546875, 1.3905, -0.6386719, 1.3905, -0.1958008, 0.0534808, -0.0125887, 1.3905, 0.0952148, 1.3905, -0.659668, 1.3905, -0.2495117, 0.0534808, 0.0199741, 1.3905, 0.1577148, 1.3905, -0.6479492, 1.3905, -0.0151367, , , , , , , , , , , , , , , , , , , , , , 
0.054, 0.0305486, 1.404, -0.0961914, 1.404, -0.7734375, 1.404, -0.0195312, 0.054, -0.0092317, 1.404, 0.0888672, 1.404, -0.7070312, 1.404, -0.1699219, 0.054, -0.012253, 1.404, 0.043457, 1.404, -0.7436523, 1.404, -0.2592773, 0.054, 0.0199741, 1.404, 0.1958008, 1.404, -0.6972656, 1.404, -0.012207, , , , , , , , , , , , , , , , , , , , , , 
0.0545192, 0.0256809, 1.4175, -0.1108398, 1.4175, -0.7666016, 1.4175, -0.0341797, 0.0545192, -0.0092317, 1.4175, 0.1157227, 1.4175, -0.7470703, 1.4175, -0.1274414, 0.0545192, -0.0112459, 1.4175, 0.0454102, 1.4175, -0.7641602, 1.4175, -0.262207, 0.0545192, 0.0186313, 1.4175, 0.2163086, 1.4175, -0.7226562, 1.4175, -0.0019531, , , , , , , , , , , , , , , , , , , , , , 
0.0550385, 0.0238346, 1.431, -0.0888672, 1.431, -0.7416992, 1.431, -0.0249023, 0.0550385, -0.0062104, 1.431, 0.1103516, 1.431, -0.7368164, 1.431, -0.1386719, 0.0550385, -0.0104067, 1.431, 0.1147461, 1.431, -0.7026367, 1.431, -0.2890625, 0.0550385, 0.0172885, 1.431, 0.2211914, 1.431, -0.7197266, 1.431, 0.019043, , , , , , , , , , , , , , , , , , , , , , 
0.0555577, 0.0216526, 1.4445, -0.0375977, 1.4445, -0.7514648, 1.4445, -0.0107422, 0.0555577, -0.0048676, 1.4445, 0.0878906, 1.4445, -0.6992188, 1.4445, -0.1855469, 0.0555577, -0.0109102, 1.4445, 0.1674805, 1.4445, -0.6586914, 1.4445, -0.3115234, 0.0555577, 0.01561, 1.4445, 0.1992188, 1.4445, -0.7104492, 1.4445, 0.0273438, , , , , , , , , , , , , , , , , , , , , , 
0.0560769, 0.0209812, 1.458, -0.0209961, 1.458, -0.793457, 1.458, 0.0004883, 0.0560769, -0.0058747, 1.458, 0.0810547, 1.458, -0.6884766, 1.458, -0.2231445, 0.0560769, -0.0125887, 1.458, 0.1767578, 1.458, -0.652832, 1.458, -0.3154297, 0.0560769, 0.0129244, 1.458, 0.2055664, 1.458, -0.699707, 1.458, 0.0258789, , , , , , , , , , , , , , , , , , , , , , 
0.0565962, 0.0186313, 1.4715, -0.0517578, 1.4715, -0.831543, 1.4715, -0.0068359, 0.0565962, -0.0078889, 1.4715, 0.0742188, 1.4715, -0.7290039, 1.4715, -0.2250977, 0.0565962, -0.011078, 1.4715, 0.1835938, 1.4715, -0.6889648, 1.4715, -0.3081055, 0.0565962, 0.0142672, 1.4715, 0.2138672, 1.4715, -0.7041016, 1.4715, 0.0239258, , , , , , , , , , , , , , , , , , , , , , 
0.0571154, 0.0151064, 1.485, -0.0859375, 1.485, -0.8442383, 1.485, -0.0161133, 0.0571154, -0.008896, 1.485, 0.0629883, 1.485, -0.7875977, 1.485, -0.2089844, 0.0571154, -0.0075532, 1.485, 0.1513672, 1.485, -0.7587891, 1.485, -0.2939453, 0.0571154, 0.0186313, 1.485, 0.2460938, 1.485, -0.722168, 1.485, 0.0224609, , , , , , , , , , , , , , , , , , , , , , 
0.0576346, 0.0186313, 1.4985, -0.1015625, 1.4985, -0.8662109, 1.4985, 0.0029297, 0.0576346, -0.0073854, 1.4985, 0.0908203, 1.4985, -0.8383789, 1.4985, -0.2006836, 0.0576346, -0.0062104, 1.4985, 0.0986328, 1.4985, -0.8178711, 1.4985, -0.3222656, 0.0576346, 0.0224918, 1.4985, 0.2514648, 1.4985, -0.7680664, 1.4985, 0.0205078, , , , , , , , , , , , , , , , , , , , , , 
0.0581538, 0.0236667, 1.512, -0.1147461, 1.512, -0.9130859, 1.512, 0.0224609, 0.0581538, -0.0052033, 1.512, 0.1210938, 1.512, -0.8613281, 1.512, -0.1953125, 0.0581538, -0.0068818, 1.512, 0.121582, 1.512, -0.8510742, 1.512, -0.3432617, 0.0581538, 0.0246738, 1.512, 0.262207, 1.512, -0.8198242, 1.512, 0.0224609, , , , , , , , , , , , , , , , , , , , , , 
0.0586731, 0.0223239, 1.5255, -0.1098633, 1.5255, -0.9663086, 1.5255, 0.019043, 0.0586731, -0.0058747, 1.5255, 0.171875, 1.5255, -0.8842773, 1.5255, -0.1782227, 0.0586731, -0.0075532, 1.5255, 0.2050781, 1.5255, -0.8828125, 1.5255, -0.2949219, 0.0586731, 0.0251774, 1.5255, 0.2333984, 1.5255, -0.8945312, 1.5255, 0.0458984, , , , , , , , , , , , , , , , , , , , , , 
0.0591923, 0.0172885, 1.539, -0.105957, 1.539, -0.9916992, 1.539, 0.0175781, 0.0591923, -0.0099031, 1.539, 0.1845703, 1.539, -0.902832, 1.539, -0.1733398, 0.0591923, -0.005539, 1.539, 0.2470703, 1.539, -0.9204102, 1.539, -0.2915039, 0.0591923, 0.0260166, 1.539, 0.2568359, 1.539, -0.9541016, 1.539, -0.0327148, , , , , , , , , , , , , , , , , , , , , , 
0.0597115, 0.0172885, 1.5525, -0.0991211, 1.5525, -1.0141602, 1.5525, 0.0004883, 0.0597115, -0.012253, 1.5525, 0.1796875, 1.5525, -0.9223633, 1.5525, -0.1953125, 0.0597115, -0.0046998, 1.5525, 0.1479492, 1.5525, -0.9570312, 1.5525, -0.3828125, 0.0597115, 0.026688, 1.5525, 0.3452148, 1.5525, -0.9731445, 1.5525, -0.0249023, , , , , , , , , , , , , , , , , , , , , , 
0.0602308, 0.0146029, 1.566, -0.1010742, 1.566, -1.0302734, 1.566, 0.0131836, 0.0602308, -0.0112459, 1.566, 0.1767578, 1.566, -0.9428711, 1.566, -0.2045898, 0.0602308, -0.0052033, 1.566, 0.0634766, 1.566, -0.9741211, 1.566, -0.4091797, 0.0602308, 0.0213169, 1.566, 0.409668, 1.566, -0.9365234, 1.566, -0.0151367, , , , , , , , , , , , , , , , , , , , , , 
0.06075, 0.0062104, 1.5795, -0.1416016, 1.5795, -1.0473633, 1.5795, 0.0351562, 0.06075, -0.0109102, 1.5795, 0.1650391, 1.5795, -0.987793, 1.5795, -0.1967773, 0.06075, -0.0058747, 1.5795, 0.0844727, 1.5795, -1.0073242, 1.5795, -0.3847656, 0.06075, 0.0112459, 1.5795, 0.387207, 1.5795, -0.9306641, 1.5795, -0.0141602, , , , , , , , , , , , , , , , , , , , , , 
0.0612692, -0.0016785, 1.593, -0.2128906, 1.593, -1.078125, 1.593, 0.0395508, 0.0612692, -0.0132601, 1.593, 0.1401367, 1.593, -1.0517578, 1.593, -0.1923828, 0.0612692, -0.0062104, 1.593, 0.1240234, 1.593, -1.0307617, 1.593, -0.3725586, 0.0612692, 0.0062104, 1.593, 0.3227539, 1.593, -0.9916992, 1.593, -0.0087891, , , , , , , , , , , , , , , , , , , , , , 
0.0617885, -0.0045319, 1.6065, -0.2519531, 1.6065, -1.128418, 1.6065, 0.0131836, 0.0617885, -0.0139315, 1.6065, 0.1606445, 1.6065, -1.0927734, 1.6065, -0.1962891, 0.0617885, -0.0057069, 1.6065, 0.2172852, 1.6065, -1.065918, 1.6065, -0.3588867, 0.0617885, 0.0062104, 1.6065, 0.2827148, 1.6065, -1.1010742, 1.6065, 0.0131836, , , , , , , , , , , , , , , , , , , , , , 
0.0623077, -0.0095674, 1.62, -0.199707, 1.62, -1.2070312, 1.62, 0.0117188, 0.0623077, -0.012253, 1.62, 0.206543, 1.62, -1.1289062, 1.62, -0.1894531, 0.0623077, -0.0057069, 1.62, 0.2539062, 1.62, -1.1088867, 1.62, -0.3603516, 0.0623077, 0.0048676, 1.62, 0.2905273, 1.62, -1.1484375, 1.62, 0.0268555, , , , , , , , , , , , , , , , , , , , , , 
0.0628269, -0.01561, 1.6335, -0.0996094, 1.6335, -1.2700195, 1.6335, 0.0273438, 0.0628269, -0.0112459, 1.6335, 0.2421875, 1.6335, -1.1816406, 1.6335, -0.2124023, 0.0628269, -0.0085603, 1.6335, 0.2329102, 1.6335, -1.1362305, 1.6335, -0.3837891, 0.0628269, 0.0045319, 1.6335, 0.3374023, 1.6335, -1.1669922, 1.6335, 0.0419922, , , , , , , , , , , , , , , , , , , , , , 
0.0633462, -0.0152743, 1.647, -0.0327148, 1.647, -1.2890625, 1.647, 0.0678711, 0.0633462, -0.0112459, 1.647, 0.2568359, 1.647, -1.2080078, 1.647, -0.2290039, 0.0633462, -0.0125887, 1.647, 0.2094727, 1.647, -1.1420898, 1.647, -0.4267578, 0.0633462, 0.0052033, 1.647, 0.3701172, 1.647, -1.1376953, 1.647, 0.0566406, , , , , , , , , , , , , , , , , , , , , , 
0.0638654, -0.0119173, 1.6605, -0.0585938, 1.6605, -1.2631836, 1.6605, 0.1035156, 0.0638654, -0.0124208, 1.6605, 0.2651367, 1.6605, -1.2353516, 1.6605, -0.2416992, 0.0638654, -0.01561, 1.6605, 0.2304688, 1.6605, -1.1318359, 1.6605, -0.4404297, 0.0638654, 0.0102388, 1.6605, 0.3876953, 1.6605, -1.1420898, 1.6605, 0.0786133, , , , , , , , , , , , , , , , , , , , , , 
0.0643846, -0.0097353, 1.674, -0.1157227, 1.674, -1.2407227, 1.674, 0.0786133, 0.0643846, -0.0129244, 1.674, 0.2539062, 1.674, -1.2329102, 1.674, -0.2265625, 0.0643846, -0.0139315, 1.674, 0.2973633, 1.674, -1.1484375, 1.674, -0.3930664, 0.0643846, 0.0162814, 1.674, 0.394043, 1.674, -1.1728516, 1.674, 0.081543, , , , , , , , , , , , , , , , , , , , , , 
0.0649038, -0.0072175, 1.6875, -0.1796875, 1.6875, -1.2573242, 1.6875, 0.0703125, 0.0649038, -0.0115816, 1.6875, 0.2421875, 1.6875, -1.2163086, 1.6875, -0.2138672, 0.0649038, -0.0102388, 1.6875, 0.3041992, 1.6875, -1.1801758, 1.6875, -0.3701172, 0.0649038, 0.0199741, 1.6875, 0.3647461, 1.6875, -1.1918945, 1.6875, 0.0839844, , , , , , , , , , , , , , , , , , , , , , 
0.0654231, -0.0038605, 1.701, -0.1831055, 1.701, -1.2978516, 1.701, 0.065918, 0.0654231, -0.0097353, 1.701, 0.2441406, 1.701, -1.2104492, 1.701, -0.2172852, 0.0654231, -0.0062104, 1.701, 0.2636719, 1.701, -1.2070312, 1.701, -0.3725586, 0.0654231, 0.023331, 1.701, 0.347168, 1.701, -1.1923828, 1.701, 0.0947266, , , , , , , , , , , , , , , , , , , , , , 
0.0659423, -0.0031891, 1.7145, -0.184082, 1.7145, -1.3129883, 1.7145, 0.0854492, 0.0659423, -0.008896, 1.7145, 0.2446289, 1.7145, -1.2319336, 1.7145, -0.2226562, 0.0659423, -0.0062104, 1.7145, 0.2509766, 1.7145, -1.2119141, 1.7145, -0.3798828, 0.0659423, 0.0273594, 1.7145, 0.3647461, 1.7145, -1.1811523, 1.7145, 0.0957031, , , , , , , , , , , , , , , , , , , , , , 
0.0664615, -0.0001678, 1.728, -0.1977539, 1.728, -1.3217773, 1.728, 0.1108398, 0.0664615, -0.0092317, 1.728, 0.2407227, 1.728, -1.2548828, 1.728, -0.2470703, 0.0664615, -0.0073854, 1.728, 0.2304688, 1.728, -1.2138672, 1.728, -0.4057617, 0.0664615, 0.0354162, 1.728, 0.3867188, 1.728, -1.2050781, 1.728, 0.0795898, , , , , , , , , , , , , , , , , , , , , , 
0.0669808, 0.0062104, 1.7415, -0.2016602, 1.7415, -1.3066406, 1.7415, 0.1347656, 0.0669808, -0.0109102, 1.7415, 0.2797852, 1.7415, -1.2685547, 1.7415, -0.265625, 0.0669808, -0.0072175, 1.7415, 0.2587891, 1.7415, -1.2202148, 1.7415, -0.394043, 0.0669808, 0.0426337, 1.7415, 0.390625, 1.7415, -1.2514648, 1.7415, 0.0688477, , , , , , , , , , , , , , , , , , , , , , 
0.0675, 0.0119173, 1.755, -0.1630859, 1.755, -1.3291016, 1.755, 0.1416016, 0.0675, -0.0119173, 1.755, 0.3237305, 1.755, -1.2817383, 1.755, -0.2573242, 0.0675, -0.0082246, 1.755, 0.3549805, 1.755, -1.2407227, 1.755, -0.3583984, 0.0675, 0.0461585, 1.755, 0.3701172, 1.755, -1.2905273, 1.755, 0.0791016, , , , , , , , , , , , , , , , , , , , , , 
0.0680192, 0.0159457, 1.7685, -0.0761719, 1.7685, -1.3447266, 1.7685, 0.1425781, 0.0680192, -0.0119173, 1.7685, 0.3334961, 1.7685, -1.2861328, 1.7685, -0.2583008, 0.0680192, -0.0077211, 1.7685, 0.3730469, 1.7685, -1.2426758, 1.7685, -0.3378906, 0.0680192, 0.0480049, 1.7685, 0.3515625, 1.7685, -1.2915039, 1.7685, 0.0878906, , , , , , , , , , , , , , , , , , , , , , 
0.0685385, 0.0199741, 1.782, 0.0151367, 1.782, -1.3579102, 1.782, 0.1875, 0.0685385, -0.0083925, 1.782, 0.3710938, 1.782, -1.2558594, 1.782, -0.2905273, 0.0685385, -0.0068818, 1.782, 0.3115234, 1.782, -1.206543, 1.782, -0.3544922, 0.0685385, 0.0508583, 1.782, 0.340332, 1.782, -1.2368164, 1.782, 0.1015625, , , , , , , , , , , , , , , , , , , , , , 
0.0690577, 0.0270237, 1.7955, -0.0019531, 1.7955, -1.3574219, 1.7955, 0.2124023, 0.0690577, -0.0070497, 1.7955, 0.4174805, 1.7955, -1.253418, 1.7955, -0.2885742, 0.0690577, -0.0062104, 1.7955, 0.2802734, 1.7955, -1.1591797, 1.7955, -0.3730469, 0.0690577, 0.0552224, 1.7955, 0.3637695, 1.7955, -1.1918945, 1.7955, 0.0942383, , , , , , , , , , , , , , , , , , , , , , 
0.0695769, 0.0323949, 1.809, -0.1328125, 1.809, -1.3583984, 1.809, 0.1430664, 0.0695769, -0.008896, 1.809, 0.3603516, 1.809, -1.3056641, 1.809, -0.2641602, 0.0695769, -0.005539, 1.809, 0.3095703, 1.809, -1.1591797, 1.809, -0.3984375, 0.0695769, 0.0553902, 1.809, 0.3745117, 1.809, -1.1967773, 1.809, 0.0742188, , , , , , , , , , , , , , , , , , , , , , 
0.0700962, 0.0297093, 1.8225, -0.1577148, 1.8225, -1.355957, 1.8225, 0.1459961, 0.0700962, -0.0109102, 1.8225, 0.3134766, 1.8225, -1.3251953, 1.8225, -0.2436523, 0.0700962, -0.0062104, 1.8225, 0.3779297, 1.8225, -1.1865234, 1.8225, -0.3901367, 0.0700962, 0.0515297, 1.8225, 0.3818359, 1.8225, -1.2216797, 1.8225, 0.0947266, , , , , , , , , , , , , , , , , , , , , , 
0.0706154, 0.0240024, 1.836, -0.1962891, 1.836, -1.3530273, 1.836, 0.2172852, 0.0706154, -0.0112459, 1.836, 0.3339844, 1.836, -1.3305664, 1.836, -0.1694336, 0.0706154, -0.0058747, 1.836, 0.4208984, 1.836, -1.2192383, 1.836, -0.3935547, 0.0706154, 0.0438087, 1.836, 0.425293, 1.836, -1.2402344, 1.836, 0.1523438, , , , , , , , , , , , , , , , , , , , , , 
0.0711346, 0.0213169, 1.8495, -0.3334961, 1.8495, -1.2988281, 1.8495, 0.1645508, 0.0711346, -0.0082246, 1.8495, 0.3623047, 1.8495, -1.3144531, 1.8495, -0.1362305, 0.0711346, -0.0043641, 1.8495, 0.3789062, 1.8495, -1.2373047, 1.8495, -0.3881836, 0.0711346, 0.0330663, 1.8495, 0.4521484, 1.8495, -1.2402344, 1.8495, 0.1430664, , , , , , , , , , , , , , , , , , , , , , 
0.0716538, 0.0184634, 1.863, -0.3798828, 1.863, -1.2661133, 1.863, 0.1533203, 0.0716538, -0.0048676, 1.863, 0.409668, 1.863, -1.2910156, 1.863, -0.1240234, 0.0716538, -0.0048676, 1.863, 0.277832, 1.863, -1.2373047, 1.863, -0.387207, 0.0716538, 0.0250095, 1.863, 0.394043, 1.863, -1.2514648, 1.863, 0.1201172, , , , , , , , , , , , , , , , , , , , , , 
0.0721731, 0.0172885, 1.8765, -0.3417969, 1.8765, -1.2768555, 1.8765, 0.1669922, 0.0721731, -0.0048676, 1.8765, 0.4736328, 1.8765, -1.28125, 1.8765, -0.1176758, 0.0721731, -0.0078889, 1.8765, 0.3398438, 1.8765, -1.2431641, 1.8765, -0.4018555, 0.0721731, 0.0209812, 1.8765, 0.3364258, 1.8765, -1.2792969, 1.8765, 0.1450195, , , , , , , , , , , , , , , , , , , , , , 
0.0726923, 0.0169528, 1.89, -0.25, 1.89, -1.3217773, 1.89, 0.2060547, 0.0726923, -0.0065461, 1.89, 0.4995117, 1.89, -1.2841797, 1.89, -0.1079102, 0.0726923, -0.008896, 1.89, 0.4946289, 1.89, -1.3085938, 1.89, -0.3432617, 0.0726923, 0.0191348, 1.89, 0.3496094, 1.89, -1.2900391, 1.89, 0.1816406, , , , , , , , , , , , , , , , , , , , , , 
0.0732115, 0.0152743, 1.9035, -0.2504883, 1.9035, -1.324707, 1.9035, 0.1923828, 0.0732115, -0.0085603, 1.9035, 0.5219727, 1.9035, -1.3251953, 1.9035, -0.065918, 0.0732115, -0.0058747, 1.9035, 0.4375, 1.9035, -1.3164062, 1.9035, -0.3095703, 0.0732115, 0.0186313, 1.9035, 0.3613281, 1.9035, -1.2734375, 1.9035, 0.1884766, , , , , , , , , , , , , , , , , , , , , , 
0.0737308, 0.0119173, 1.917, -0.3632812, 1.917, -1.2885742, 1.917, 0.1518555, 0.0737308, -0.0075532, 1.917, 0.519043, 1.917, -1.3867188, 1.917, -0.0078125, 0.0737308, -0.0035248, 1.917, 0.3481445, 1.917, -1.2666016, 1.917, -0.3325195, 0.0737308, 0.0176242, 1.917, 0.331543, 1.917, -1.2866211, 1.917, 0.1743164, , , , , , , , , , , , , , , , , , , , , , 
0.07425, 0.0099031, 1.9305, -0.5541992, 1.9305, -1.3417969, 1.9305, 0.1342773, 0.07425, -0.0068818, 1.9305, 0.5375977, 1.9305, -1.4345703, 1.9305, 0.0805664, 0.07425, -0.0028534, 1.9305, 0.4702148, 1.9305, -1.2675781, 1.9305, -0.3442383, 0.07425, 0.0151064, 1.9305, 0.3286133, 1.9305, -1.3178711, 1.9305, 0.1689453, , , , , , , , , , , , , , , , , , , , , , 
0.0747692, 0.0085603, 1.944, -0.4912109, 1.944, -1.2460938, 1.944, 0.1835938, 0.0747692, -0.0075532, 1.944, 0.574707, 1.944, -1.3110352, 1.944, -0.1074219, 0.0747692, -0.0038605, 1.944, 0.6538086, 1.944, -1.2822266, 1.944, -0.3535156, 0.0747692, 0.011078, 1.944, 0.3583984, 1.944, -1.3564453, 1.944, 0.1928711, , , , , , , , , , , , , , , , , , , , , , 
0.0752885, 0.0105745, 1.9575, -0.2255859, 1.9575, -1.4829102, 1.9575, 0.1074219, 0.0752885, -0.0092317, 1.9575, 0.4833984, 1.9575, -1.25, 1.9575, -0.7036133, 0.0752885, -0.003357, 1.9575, 0.6391602, 1.9575, -1.3339844, 1.9575, -0.5283203, 0.0752885, 0.0058747, 1.9575, 0.3769531, 1.9575, -1.3950195, 1.9575, 0.2460938, , , , , , , , , , , , , , , , , , , , , , 
0.0758077, 0.0119173, 1.971, 0.1782227, 1.971, -1.9008789, 1.971, 0.7587891, 0.0758077, -0.0075532, 1.971, 0.1225586, 1.971, -1.2822266, 1.971, -0.9331055, 0.0758077, -0.0028534, 1.971, 0.4711914, 1.971, -1.2558594, 1.971, -0.5913086, 0.0758077, 0.0031891, 1.971, 0.5375977, 1.971, -1.4555664, 1.971, 0.1953125, , , , , , , , , , , , , , , , , , , , , , 
0.0763269, 0.0102388, 1.9845, 0.3295898, 1.9845, -1.3886719, 1.9845, 0.8515625, 0.0763269, -0.0038605, 1.9845, 0.3447266, 1.9845, -1.0571289, 1.9845, -0.1943359, 0.0763269, -0.0031891, 1.9845, 0.4536133, 1.9845, -1.1782227, 1.9845, -0.5429688, 0.0763269, 0.0025177, 1.9845, 0.7382812, 1.9845, -1.3066406, 1.9845, 0.1889648, , , , , , , , , , , , , , , , , , , , , , 
0.0768462, 0.0052033, 1.998, -0.2910156, 1.998, -0.4458008, 1.998, 0.3867188, 0.0768462, -0.0008392, 1.998, 1.003418, 1.998, -0.894043, 1.998, 0.2680664, 0.0768462, -0.0045319, 1.998, 0.5932617, 1.998, -1.1582031, 1.998, -0.3198242, 0.0768462, -0.0015106, 1.998, 0.4990234, 1.998, -1.1323242, 1.998, 0.1948242, , , , , , , , , , , , , , , , , , , , , , 
0.0773654, -0.0025177, 2.0115, -0.8974609, 2.0115, -0.1938477, 2.0115, -0.046875, 0.0773654, -0.0015106, 2.0115, 1.0751953, 2.0115, -0.7939453, 2.0115, -0.019043, 0.0773654, -0.005539, 2.0115, 0.7939453, 2.0115, -1.2124023, 2.0115, -0.0341797, 0.0773654, -0.0045319, 2.0115, -0.0341797, 2.0115, -1.1523438, 2.0115, 0.2475586, , , , , , , , , , , , , , , , , , , , , , 
0.0778846, -0.0065461, 2.025, -1.1450195, 2.025, -0.8706055, 2.025, 0.1943359, 0.0778846, -0.0041962, 2.025, 0.8549805, 2.025, -0.6689453, 2.025, -0.2177734, 0.0778846, -0.0075532, 2.025, 0.4550781, 2.025, -1.2133789, 2.025, -0.1391602, 0.0778846, -0.0041962, 2.025, -0.3271484, 2.025, -1.1767578, 2.025, 0.2851562, , , , , , , , , , , , , , , , , , , , , , 
0.0784038, -0.0068818, 2.0385, -1.0429688, 2.0385, -1.2026367, 2.0385, 0.3686523, 0.0784038, -0.0078889, 2.0385, 0.3945312, 2.0385, -0.7416992, 2.0385, 0.1328125, 0.0784038, -0.0099031, 2.0385, -0.0830078, 2.0385, -1.1977539, 2.0385, -0.1469727, 0.0784038, -0.0043641, 2.0385, -0.3725586, 2.0385, -1.1938477, 2.0385, 0.2924805, , , , , , , , , , , , , , , , , , , , , , 
0.0789231, -0.0075532, 2.052, -0.5307617, 2.052, -1.387207, 2.052, 0.3237305, 0.0789231, -0.0095674, 2.052, 0.5561523, 2.052, -1.0664062, 2.052, -0.0043945, 0.0789231, -0.0099031, 2.052, -0.0297852, 2.052, -1.2358398, 2.052, -0.1743164, 0.0789231, -0.0043641, 2.052, -0.2646484, 2.052, -1.2758789, 2.052, 0.2211914, , , , , , , , , , , , , , , , , , , , , , 
0.0794423, -0.0097353, 2.0655, -0.1254883, 2.0655, -1.1640625, 2.0655, 0.4189453, 0.0794423, -0.0077211, 2.0655, 0.9775391, 2.0655, -1.0507812, 2.0655, 0.0996094, 0.0794423, -0.0099031, 2.0655, 0.1533203, 2.0655, -1.1708984, 2.0655, -0.2919922, 0.0794423, -0.0048676, 2.0655, 0.0839844, 2.0655, -1.2202148, 2.0655, 0.1831055, , , , , , , , , , , , , , , , , , , , , , 
0.0799615, -0.012253, 2.079, -0.4052734, 2.079, -0.8500977, 2.079, 0.2275391, 0.0799615, -0.0075532, 2.079, 1.034668, 2.079, -0.9370117, 2.079, -0.0288086, 0.0799615, -0.0092317, 2.079, 0.4174805, 2.079, -1.0053711, 2.079, -0.3500977, 0.0799615, -0.0097353, 2.079, 0.2871094, 2.079, -1.1083984, 2.079, 0.1650391, , , , , , , , , , , , , , , , , , , , , , 
0.0804808, -0.0142672, 2.0925, -0.9257812, 2.0925, -0.8613281, 2.0925, 0.0463867, 0.0804808, -0.0075532, 2.0925, 0.3769531, 2.0925, -1.1289062, 2.0925, -0.0498047, 0.0804808, -0.0078889, 2.0925, 0.7094727, 2.0925, -1.0083008, 2.0925, -0.3334961, 0.0804808, -0.0152743, 2.0925, 0.5566406, 2.0925, -0.9423828, 2.0925, 0.0615234, , , , , , , , , , , , , , , , , , , , , , 
0.081, -0.0182956, 2.106, -0.6650391, 2.106, -1.0825195, 2.106, 0.2177734, 0.081, -0.0083925, 2.106, -0.0385742, 2.106, -1.2670898, 2.106, -0.0683594, 0.081, -0.0078889, 2.106, 0.6884766, 2.106, -1.0073242, 2.106, -0.3476562, 0.081, -0.018967, 2.106, 0.6416016, 2.106, -1.0166016, 2.106, -0.0175781, , , , , , , , , , , , , , , , , , , , , , 
0.0815192, -0.0236667, 2.1195, -0.2416992, 2.1195, -1.1113281, 2.1195, 0.1376953, 0.0815192, -0.0095674, 2.1195, 0.0849609, 2.1195, -1.1025391, 2.1195, -0.2006836, 0.0815192, -0.0093996, 2.1195, 0.4990234, 2.1195, -0.972168, 2.1195, -0.4140625, 0.0815192, -0.0213169, 2.1195, 0.605957, 2.1195, -1.1420898, 2.1195, 0.1098633, , , , , , , , , , , , , , , , , , , , , , 
0.0820385, -0.0250095, 2.133, -0.1469727, 2.133, -1.0517578, 2.133, 0.2651367, 0.0820385, -0.010071, 2.133, 0.2817383, 2.133, -0.9589844, 2.133, -0.3061523, 0.0820385, -0.008896, 2.133, 0.4921875, 2.133, -0.9794922, 2.133, -0.3198242, 0.0820385, -0.0229953, 2.133, 0.3681641, 2.133, -1.1181641, 2.133, 0.2456055, , , , , , , , , , , , , , , , , , , , , , 
0.0825577, -0.0270237, 2.1465, 0.1635742, 2.1465, -1.0537109, 2.1465, 0.4433594, 0.0825577, -0.0077211, 2.1465, 0.7265625, 2.1465, -0.7260742, 2.1465, -0.5581055, 0.0825577, -0.008896, 2.1465, 0.3735352, 2.1465, -0.9287109, 2.1465, -0.3657227, 0.0825577, -0.0236667, 2.1465, 0.1049805, 2.1465, -0.9140625, 2.1465, 0.2954102, , , , , , , , , , , , , , , , , , , , , , 
0.0830769, -0.0297093, 2.16, 0.3823242, 2.16, -1.0566406, 2.16, 0.4946289, 0.0830769, -0.0068818, 2.16, 0.7246094, 2.16, -0.7944336, 2.16, -0.4526367, 0.0830769, -0.0082246, 2.16, 0.3261719, 2.16, -0.7900391, 2.16, -0.3549805, 0.0830769, -0.0206455, 2.16, 0.0371094, 2.16, -0.8374023, 2.16, 0.3735352, , , , , , , , , , , , , , , , , , , , , , 
0.0835962, -0.0297093, 2.1735, -0.2607422, 2.1735, -0.894043, 2.1735, 0.3706055, 0.0835962, -0.0082246, 2.1735, 0.3686523, 2.1735, -1.0634766, 2.1735, -0.2075195, 0.0835962, -0.0077211, 2.1735, 0.4853516, 2.1735, -0.796875, 2.1735, -0.3012695, 0.0835962, -0.0149386, 2.1735, 0.0981445, 2.1735, -0.9267578, 2.1735, 0.4155273, , , , , , , , , , , , , , , , , , , , , , 
0.0841154, -0.0226596, 2.187, -0.9326172, 2.187, -0.8134766, 2.187, 0.293457, 0.0841154, -0.0095674, 2.187, 0.3139648, 2.187, -1.0419922, 2.187, -0.1469727, 0.0841154, -0.0068818, 2.187, 0.5317383, 2.187, -0.940918, 2.187, -0.1704102, 0.0841154, -0.0102388, 2.187, 0.0952148, 2.187, -1.0571289, 2.187, 0.3305664, , , , , , , , , , , , , , , , , , , , , , 
0.0846346, -0.01561, 2.2005, -0.6704102, 2.2005, -0.7851562, 2.2005, 0.3183594, 0.0846346, -0.0099031, 2.2005, 0.6064453, 2.2005, -0.7255859, 2.2005, -0.1704102, 0.0846346, -0.0063783, 2.2005, 0.3408203, 2.2005, -0.9902344, 2.2005, -0.081543, 0.0846346, -0.0058747, 2.2005, 0.015625, 2.2005, -1.0820312, 2.2005, 0.2250977, , , , , , , , , , , , , , , , , , , , , , 
0.0851538, -0.0068818, 2.214, -0.3994141, 2.214, -0.7817383, 2.214, 0.3476562, 0.0851538, -0.0099031, 2.214, 0.7680664, 2.214, -0.6259766, 2.214, -0.1083984, 0.0851538, -0.0062104, 2.214, 0.2431641, 2.214, -0.9121094, 2.214, -0.1274414, 0.0851538, 0.0001678, 2.214, -0.0522461, 2.214, -0.9858398, 2.214, 0.2163086, , , , , , , , , , , , , , , , , , , , , , 
0.0856731, -0.0023499, 2.2275, -0.1508789, 2.2275, -0.8134766, 2.2275, 0.284668, 0.0856731, -0.0109102, 2.2275, 0.6450195, 2.2275, -0.828125, 2.2275, -0.0341797, 0.0856731, -0.0045319, 2.2275, 0.3188477, 2.2275, -0.8847656, 2.2275, -0.1650391, 0.0856731, 0.005539, 2.2275, -0.0473633, 2.2275, -0.9155273, 2.2275, 0.2124023, , , , , , , , , , , , , , , , , , , , , , 
0.0861923, -0.0005035, 2.241, -0.1430664, 2.241, -0.8886719, 2.241, 0.1796875, 0.0861923, -0.0085603, 2.241, 0.4672852, 2.241, -0.9677734, 2.241, -0.0439453, 0.0861923, -0.0050355, 2.241, 0.3398438, 2.241, -0.8950195, 2.241, -0.1855469, 0.0861923, 0.0117494, 2.241, 0.078125, 2.241, -0.8408203, 2.241, 0.1308594, , , , , , , , , , , , , , , , , , , , , , 
0.0867115, 0.0041962, 2.2545, -0.2910156, 2.2545, -0.9458008, 2.2545, 0.0527344, 0.0867115, -0.0070497, 2.2545, 0.3974609, 2.2545, -0.9521484, 2.2545, -0.0209961, 0.0867115, -0.0068818, 2.2545, 0.269043, 2.2545, -0.8955078, 2.2545, -0.2045898, 0.0867115, 0.0172885, 2.2545, 0.2509766, 2.2545, -0.9350586, 2.2545, 0.0131836, , , , , , , , , , , , , , , , , , , , , , 
0.0872308, 0.0119173, 2.268, -0.453125, 2.268, -0.7978516, 2.268, -0.0908203, 0.0872308, -0.0062104, 2.268, 0.2578125, 2.268, -0.8295898, 2.268, 0.0986328, 0.0872308, -0.0057069, 2.268, 0.2641602, 2.268, -0.9174805, 2.268, -0.1972656, 0.0872308, 0.0231632, 2.268, 0.2954102, 2.268, -0.9819336, 2.268, -0.09375, , , , , , , , , , , , , , , , , , , , , , 
0.08775, 0.0213169, 2.2815, -0.5825195, 2.2815, -0.8881836, 2.2815, -0.0395508, 0.08775, -0.0045319, 2.2815, 0.21875, 2.2815, -0.7836914, 2.2815, 0.0825195, 0.08775, -0.0048676, 2.2815, 0.1660156, 2.2815, -0.9326172, 2.2815, -0.2553711, 0.08775, 0.0302129, 2.2815, 0.2905273, 2.2815, -0.8955078, 2.2815, -0.1674805, , , , , , , , , , , , , , , , , , , , , , 
0.0882692, 0.0276951, 2.295, -0.3862305, 2.295, -1.0112305, 2.295, -0.065918, 0.0882692, -0.0045319, 2.295, 0.4106445, 2.295, -0.8310547, 2.295, 0.1567383, 0.0882692, -0.0041962, 2.295, 0.0581055, 2.295, -0.9316406, 2.295, -0.2841797, 0.0882692, 0.0340734, 2.295, 0.3325195, 2.295, -0.8242188, 2.295, -0.1655273, , , , , , , , , , , , , , , , , , , , , , 
0.0887885, 0.0360876, 2.3085, -0.2583008, 2.3085, -1.1083984, 2.3085, 0.0058594, 0.0887885, -0.0048676, 2.3085, 0.5883789, 2.3085, -1.0043945, 2.3085, 0.0874023, 0.0887885, -0.0031891, 2.3085, 0.1542969, 2.3085, -0.9492188, 2.3085, -0.3183594, 0.0887885, 0.0360876, 2.3085, 0.3920898, 2.3085, -0.890625, 2.3085, -0.0751953, , , , , , , , , , , , , , , , , , , , , , 
0.0893077, 0.0417945, 2.322, -0.293457, 2.322, -1.2783203, 2.322, 0.1069336, 0.0893077, -0.0052033, 2.322, 0.5693359, 2.322, -1.0864258, 2.322, -0.0595703, 0.0893077, -0.0015106, 2.322, 0.3427734, 2.322, -1.0288086, 2.322, -0.3676758, 0.0893077, 0.0379339, 2.322, 0.4892578, 2.322, -1.015625, 2.322, -0.1176758, , , , , , , , , , , , , , , , , , , , , , 
0.0898269, 0.0448157, 2.3355, -0.1484375, 2.3355, -1.3085938, 2.3355, 0.1269531, 0.0898269, -0.0062104, 2.3355, 0.5371094, 2.3355, -1.1079102, 2.3355, -0.0751953, 0.0898269, -0.0023499, 2.3355, 0.4233398, 2.3355, -1.1142578, 2.3355, -0.3232422, 0.0898269, 0.0384375, 2.3355, 0.5947266, 2.3355, -1.1289062, 2.3355, -0.0654297, , , , , , , , , , , , , , , , , , , , , , 
0.0903462, 0.0441444, 2.349, -0.3710938, 2.349, -1.1967773, 2.349, 0.1918945, 0.0903462, -0.0072175, 2.349, 0.4472656, 2.349, -1.184082, 2.349, 0.0449219, 0.0903462, -0.0048676, 2.349, 0.5805664, 2.349, -1.2070312, 2.349, -0.2519531, 0.0903462, 0.0323949, 2.349, 0.5083008, 2.349, -1.2202148, 2.349, 0.0410156, , , , , , , , , , , , , , , , , , , , , , 
0.0908654, 0.0404517, 2.3625, -0.7128906, 2.3625, -0.9819336, 2.3625, 0.2475586, 0.0908654, -0.0057069, 2.3625, 0.6342773, 2.3625, -1.0771484, 2.3625, 0.0683594, 0.0908654, -0.0062104, 2.3625, 0.5761719, 2.3625, -1.253418, 2.3625, -0.1396484, 0.0908654, 0.0250095, 2.3625, 0.2861328, 2.3625, -1.2226562, 2.3625, 0.0800781, , , , , , , , , , , , , , , , , , , , , , 
0.0913846, 0.0357519, 2.376, -0.7788086, 2.376, -0.9492188, 2.376, 0.2993164, 0.0913846, -0.0038605, 2.376, 0.8413086, 2.376, -0.8842773, 2.376, -0.0893555, 0.0913846, -0.0062104, 2.376, 0.5048828, 2.376, -1.2373047, 2.376, -0.1015625, 0.0913846, 0.0226596, 2.376, 0.1430664, 2.376, -1.2211914, 2.376, 0.1088867, , , , , , , , , , , , , , , , , , , , , , 
0.0919038, 0.0337377, 2.3895, -0.5561523, 2.3895, -0.9458008, 2.3895, 0.3505859, 0.0919038, -0.0057069, 2.3895, 0.8217773, 2.3895, -0.8530273, 2.3895, -0.1240234, 0.0919038, -0.005539, 2.3895, 0.4365234, 2.3895, -1.1665039, 2.3895, -0.0703125, 0.0919038, 0.0199741, 2.3895, -0.1635742, 2.3895, -1.2680664, 2.3895, 0.2504883, , , , , , , , , , , , , , , , , , , , , , 
0.0924231, 0.0354162, 2.403, -0.3657227, 2.403, -1.065918, 2.403, 0.4589844, 0.0924231, -0.0075532, 2.403, 0.652832, 2.403, -0.9121094, 2.403, -0.1494141, 0.0924231, -0.005539, 2.403, 0.4291992, 2.403, -1.0917969, 2.403, -0.1289062, 0.0924231, 0.0152743, 2.403, -0.2719727, 2.403, -1.2475586, 2.403, 0.40625, , , , , , , , , , , , , , , , , , , , , , 
0.0929423, 0.0370947, 2.4165, -0.3828125, 2.4165, -1.1030273, 2.4165, 0.3139648, 0.0929423, -0.0077211, 2.4165, 0.6279297, 2.4165, -1.0380859, 2.4165, -0.2431641, 0.0929423, -0.0063783, 2.4165, 0.3105469, 2.4165, -1.0947266, 2.4165, -0.2148438, 0.0929423, 0.0112459, 2.4165, -0.2006836, 2.4165, -1.1606445, 2.4165, 0.5102539, , , , , , , , , , , , , , , , , , , , , , 
0.0934615, 0.0377661, 2.43, -0.4365234, 2.43, -1.25, 2.43, 0.4257812, 0.0934615, -0.0075532, 2.43, 0.465332, 2.43, -1.2124023, 2.43, -0.0981445, 0.0934615, -0.0070497, 2.43, 0.4453125, 2.43, -1.1816406, 2.43, -0.2314453, 0.0934615, 0.0112459, 2.43, -0.0532227, 2.43, -1.2485352, 2.43, 0.4291992, , , , , , , , , , , , , , , , , , , , , , 
0.0939808, 0.0360876, 2.4435, -0.5585938, 2.4435, -1.1494141, 2.4435, 0.3359375, 0.0939808, -0.0048676, 2.4435, 0.6479492, 2.4435, -1.2016602, 2.4435, -0.1411133, 0.0939808, -0.0085603, 2.4435, 0.4755859, 2.4435, -1.2670898, 2.4435, -0.2163086, 0.0939808, 0.0102388, 2.4435, 0.1425781, 2.4435, -1.3457031, 2.4435, 0.2773438, , , , , , , , , , , , , , , , , , , , , , 
0.0945, 0.0350805, 2.457, -0.5639648, 2.457, -1.078125, 2.457, 0.300293, 0.0945, -0.0025177, 2.457, 0.6962891, 2.457, -1.0664062, 2.457, -0.0522461, 0.0945, -0.0119173, 2.457, 0.5200195, 2.457, -1.2236328, 2.457, -0.1430664, 0.0945, 0.0078889, 2.457, 0.1796875, 2.457, -1.3754883, 2.457, 0.2138672, , , , , , , , , , , , , , , , , , , , , , 
0.0950192, 0.0347448, 2.4705, -0.5454102, 2.4705, -1.0893555, 2.4705, 0.2133789, 0.0950192, -0.0040284, 2.4705, 0.7060547, 2.4705, -1.0751953, 2.4705, -0.0185547, 0.0950192, -0.0135958, 2.4705, 0.5756836, 2.4705, -1.1621094, 2.4705, -0.1679688, 0.0950192, 0.0082246, 2.4705, 0.1533203, 2.4705, -1.2758789, 2.4705, 0.2055664, , , , , , , , , , , , , , , , , , , , , , 
0.0955385, 0.0345769, 2.484, -0.4047852, 2.484, -1.0634766, 2.484, 0.2192383, 0.0955385, -0.005539, 2.484, 0.5537109, 2.484, -1.0483398, 2.484, 0.0146484, 0.0955385, -0.0129244, 2.484, 0.4262695, 2.484, -1.1352539, 2.484, -0.2177734, 0.0955385, 0.0078889, 2.484, 0.1772461, 2.484, -1.1474609, 2.484, 0.2177734, , , , , , , , , , , , , , , , , , , , , , 
0.0960577, 0.0330663, 2.4975, -0.5195312, 2.4975, -1.1835938, 2.4975, 0.2124023, 0.0960577, -0.0062104, 2.4975, 0.565918, 2.4975, -1.0991211, 2.4975, -0.0561523, 0.0960577, -0.0115816, 2.4975, 0.3203125, 2.4975, -1.1352539, 2.4975, -0.2836914, 0.0960577, 0.0046998, 2.4975, 0.2084961, 2.4975, -1.1235352, 2.4975, 0.2509766, , , , , , , , , , , , , , , , , , , , , , 
0.0965769, 0.0318914, 2.511, -0.5048828, 2.511, -1.3569336, 2.511, 0.2768555, 0.0965769, -0.0068818, 2.511, 0.5991211, 2.511, -1.2226562, 2.511, -0.1323242, 0.0965769, -0.0109102, 2.511, 0.3652344, 2.511, -1.1494141, 2.511, -0.3920898, 0.0965769, 0.0031891, 2.511, 0.2954102, 2.511, -1.2363281, 2.511, 0.2094727, , , , , , , , , , , , , , , , , , , , , , 
0.0970962, 0.0297093, 2.5245, -0.3212891, 2.5245, -1.456543, 2.5245, 0.2915039, 0.0970962, -0.0082246, 2.5245, 0.5727539, 2.5245, -1.4326172, 2.5245, -0.1704102, 0.0970962, -0.0095674, 2.5245, 0.5371094, 2.5245, -1.1582031, 2.5245, -0.440918, 0.0970962, 0.0048676, 2.5245, 0.3769531, 2.5245, -1.293457, 2.5245, 0.1796875, , , , , , , , , , , , , , , , , , , , , , 
0.0976154, 0.0265202, 2.538, -0.2436523, 2.538, -1.4111328, 2.538, 0.3056641, 0.0976154, -0.0070497, 2.538, 0.5620117, 2.538, -1.4306641, 2.538, -0.1503906, 0.0976154, -0.0095674, 2.538, 0.5898438, 2.538, -1.1713867, 2.538, -0.3798828, 0.0976154, 0.0078889, 2.538, 0.5053711, 2.538, -1.3291016, 2.538, 0.1411133, , , , , , , , , , , , , , , , , , , , , , 
0.0981346, 0.0253452, 2.5515, -0.3041992, 2.5515, -1.3359375, 2.5515, 0.262207, 0.0981346, -0.0035248, 2.5515, 0.5771484, 2.5515, -1.2509766, 2.5515, -0.0898438, 0.0981346, -0.0112459, 2.5515, 0.5390625, 2.5515, -1.2016602, 2.5515, -0.3261719, 0.0981346, 0.0072175, 2.5515, 0.4604492, 2.5515, -1.309082, 2.5515, 0.190918, , , , , , , , , , , , , , , , , , , , , , 
0.0986538, 0.0253452, 2.565, -0.472168, 2.565, -1.1821289, 2.565, 0.3261719, 0.0986538, -0.002182, 2.565, 0.6845703, 2.565, -1.0673828, 2.565, -0.0039062, 0.0986538, -0.0125887, 2.565, 0.4921875, 2.565, -1.2265625, 2.565, -0.2319336, 0.0986538, 0.0052033, 2.565, 0.2460938, 2.565, -1.2661133, 2.565, 0.2607422, , , , , , , , , , , , , , , , , , , , , , 
0.0991731, 0.0243381, 2.5785, -0.6791992, 2.5785, -1.0561523, 2.5785, 0.2304688, 0.0991731, -0.0035248, 2.5785, 0.7851562, 2.5785, -1.0014648, 2.5785, 0.0683594, 0.0991731, -0.0125887, 2.5785, 0.4726562, 2.5785, -1.2338867, 2.5785, -0.203125, 0.0991731, 0.0048676, 2.5785, 0.0712891, 2.5785, -1.2094727, 2.5785, 0.2939453, , , , , , , , , , , , , , , , , , , , , , 
0.0996923, 0.023331, 2.592, -0.7080078, 2.592, -1.0649414, 2.592, 0.2470703, 0.0996923, -0.0063783, 2.592, 0.7412109, 2.592, -1.0493164, 2.592, 0.0546875, 0.0996923, -0.0112459, 2.592, 0.4296875, 2.592, -1.246582, 2.592, -0.2470703, 0.0996923, 0.0028534, 2.592, 0.0361328, 2.592, -1.2333984, 2.592, 0.2519531, , , , , , , , , , , , , , , , , , , , , , 
0.1002115, 0.0213169, 2.6055, -0.5400391, 2.6055, -1.1069336, 2.6055, 0.25, 0.1002115, -0.0082246, 2.6055, 0.6586914, 2.6055, -1.0932617, 2.6055, 0.0200195, 0.1002115, -0.0112459, 2.6055, 0.4086914, 2.6055, -1.2094727, 2.6055, -0.1904297, 0.1002115, -0.0005035, 2.6055, 0.09375, 2.6055, -1.2661133, 2.6055, 0.2055664, , , , , , , , , , , , , , , , , , , , , , 
0.1007308, 0.0176242, 2.619, -0.4765625, 2.619, -1.1088867, 2.619, 0.3120117, 0.1007308, -0.0062104, 2.619, 0.621582, 2.619, -1.0615234, 2.619, 0.0625, 0.1007308, -0.0129244, 2.619, 0.402832, 2.619, -1.1918945, 2.619, -0.1699219, 0.1007308, -0.0048676, 2.619, 0.1342773, 2.619, -1.2456055, 2.619, 0.1538086, , , , , , , , , , , , , , , , , , , , , , 
0.10125, 0.0139315, 2.6325, -0.5390625, 2.6325, -1.0073242, 2.6325, 0.3398438, 0.10125, -0.0058747, 2.6325, 0.6767578, 2.6325, -1.0209961, 2.6325, 0.0185547, 0.10125, -0.0149386, 2.6325, 0.3974609, 2.6325, -1.1704102, 2.6325, -0.1801758, 0.10125, -0.0072175, 2.6325, 0.1225586, 2.6325, -1.1767578, 2.6325, 0.1621094, , , , , , , , , , , , , , , , , , , , , , 
0.1017692, 0.0162814, 2.646, -0.6811523, 2.646, -0.887207, 2.646, 0.3266602, 0.1017692, -0.0068818, 2.646, 0.7260742, 2.646, -0.9257812, 2.646, -0.0078125, 0.1017692, -0.0151064, 2.646, 0.3652344, 2.646, -1.1303711, 2.646, -0.1835938, 0.1017692, -0.0083925, 2.646, 0.1005859, 2.646, -1.1147461, 2.646, 0.2045898, , , , , , , , , , , , , , , , , , , , , , 
0.1022885, 0.014435, 2.6595, -0.703125, 2.6595, -0.8681641, 2.6595, 0.3413086, 0.1022885, -0.0065461, 2.6595, 0.6743164, 2.6595, -0.8466797, 2.6595, -0.0454102, 0.1022885, -0.0137636, 2.6595, 0.4321289, 2.6595, -1.1254883, 2.6595, -0.1538086, 0.1022885, -0.0124208, 2.6595, 0.097168, 2.6595, -1.1386719, 2.6595, 0.2734375, , , , , , , , , , , , , , , , , , , , , , 
0.1028077, 0.0048676, 2.673, -0.5859375, 2.673, -0.9638672, 2.673, 0.2592773, 0.1028077, -0.0057069, 2.673, 0.6386719, 2.673, -0.8955078, 2.673, -0.019043, 0.1028077, -0.0125887, 2.673, 0.4931641, 2.673, -1.0864258, 2.673, -0.234375, 0.1028077, -0.0135958, 2.673, 0.1015625, 2.673, -1.1621094, 2.673, 0.3164062, , , , , , , , , , , , , , , , , , , , , , 
0.1033269, 0.0008392, 2.6865, -0.40625, 2.6865, -1.1196289, 2.6865, 0.2128906, 0.1033269, -0.0072175, 2.6865, 0.6040039, 2.6865, -1.0541992, 2.6865, 0.0292969, 0.1033269, -0.0124208, 2.6865, 0.5742188, 2.6865, -1.1079102, 2.6865, -0.2856445, 0.1033269, -0.0102388, 2.6865, 0.1342773, 2.6865, -1.1894531, 2.6865, 0.2944336, , , , , , , , , , , , , , , , , , , , , , 
0.1038462, -0.0001678, 2.7, -0.3774414, 2.7, -1.1479492, 2.7, 0.1245117, 0.1038462, -0.0095674, 2.7, 0.6040039, 2.7, -1.1142578, 2.7, 0.1347656, 0.1038462, -0.0142672, 2.7, 0.3696289, 2.7, -1.0869141, 2.7, -0.2910156, 0.1038462, -0.005539, 2.7, 0.2451172, 2.7, -1.1811523, 2.7, 0.1914062, , , , , , , , , , , , , , , , , , , , , , 
0.1043654, 0.0028534, 2.7135, -0.4321289, 2.7135, -1.0908203, 2.7135, 0.1235352, 0.1043654, -0.0099031, 2.7135, 0.5551758, 2.7135, -1.0136719, 2.7135, 0.1386719, 0.1043654, -0.0164492, 2.7135, 0.1689453, 2.7135, -1.0717773, 2.7135, -0.2539062, 0.1043654, -0.002182, 2.7135, 0.2612305, 2.7135, -1.1132812, 2.7135, 0.0898438, , , , , , , , , , , , , , , , , , , , , , 
0.1048846, 0.0050355, 2.727, -0.6098633, 2.727, -0.9501953, 2.727, 0.1572266, 0.1048846, -0.0085603, 2.727, 0.5893555, 2.727, -0.8891602, 2.727, 0.0366211, 0.1048846, -0.0149386, 2.727, 0.1362305, 2.727, -1.074707, 2.727, -0.2983398, 0.1048846, 0.0008392, 2.727, 0.1635742, 2.727, -1.0205078, 2.727, 0.0390625, , , , , , , , , , , , , , , , , , , , , , 
0.1054038, 0.0072175, 2.7405, -0.6494141, 2.7405, -0.9165039, 2.7405, 0.1953125, 0.1054038, -0.0077211, 2.7405, 0.5800781, 2.7405, -0.862793, 2.7405, 0.0024414, 0.1054038, -0.0115816, 2.7405, 0.2832031, 2.7405, -1.0249023, 2.7405, -0.3291016, 0.1054038, 0.0057069, 2.7405, 0.1552734, 2.7405, -0.9746094, 2.7405, 0.0917969, , , , , , , , , , , , , , , , , , , , , , 
0.1059231, 0.011078, 2.754, -0.5019531, 2.754, -1.0668945, 2.754, 0.215332, 0.1059231, -0.0075532, 2.754, 0.5830078, 2.754, -0.9370117, 2.754, 0.0214844, 0.1059231, -0.0102388, 2.754, 0.4916992, 2.754, -1.0493164, 2.754, -0.3442383, 0.1059231, 0.0129244, 2.754, 0.2832031, 2.754, -1.0117188, 2.754, 0.1147461, , , , , , , , , , , , , , , , , , , , , , 
0.1064423, 0.0159457, 2.7675, -0.4174805, 2.7675, -1.159668, 2.7675, 0.1914062, 0.1064423, -0.0075532, 2.7675, 0.6088867, 2.7675, -1.1196289, 2.7675, 0.1074219, 0.1064423, -0.0132601, 2.7675, 0.5102539, 2.7675, -1.0786133, 2.7675, -0.2895508, 0.1064423, 0.018967, 2.7675, 0.456543, 2.7675, -1.1625977, 2.7675, 0.0927734, , , , , , , , , , , , , , , , , , , , , , 
0.1069615, 0.0206455, 2.781, -0.4882812, 2.781, -1.043457, 2.781, 0.1640625, 0.1069615, -0.0095674, 2.781, 0.6450195, 2.781, -1.0522461, 2.781, 0.1186523, 0.1069615, -0.0130922, 2.781, 0.4013672, 2.781, -1.081543, 2.781, -0.3505859, 0.1069615, 0.0260166, 2.781, 0.4790039, 2.781, -1.2177734, 2.781, 0.0820312, , , , , , , , , , , , , , , , , , , , , , 
0.1074808, 0.0260166, 2.7945, -0.6279297, 2.7945, -0.8857422, 2.7945, 0.3417969, 0.1074808, -0.0099031, 2.7945, 0.5849609, 2.7945, -0.9121094, 2.7945, 0.0014648, 0.1074808, -0.008896, 2.7945, 0.2773438, 2.7945, -1.0571289, 2.7945, -0.3168945, 0.1074808, 0.033402, 2.7945, 0.3583984, 2.7945, -1.0927734, 2.7945, 0.121582, , , , , , , , , , , , , , , , , , , , , , 
0.108, 0.0307164, 2.808, -0.7514648, 2.808, -0.8417969, 2.808, 0.4038086, 0.108, -0.0095674, 2.808, 0.6630859, 2.808, -0.8286133, 2.808, -0.0849609, 0.108, -0.0072175, 2.808, 0.3579102, 2.808, -1.0400391, 2.808, -0.3491211, 0.108, 0.0384375, 2.808, 0.2739258, 2.808, -0.9858398, 2.808, 0.2104492, , , , , , , , , , , , , , , , , , , , , , 
0.1085192, 0.0387732, 2.8215, -0.6875, 2.8215, -1.0219727, 2.8215, 0.4199219, 0.1085192, -0.0085603, 2.8215, 0.769043, 2.8215, -0.9711914, 2.8215, -0.1523438, 0.1085192, -0.0068818, 2.8215, 0.6337891, 2.8215, -1.1162109, 2.8215, -0.2973633, 0.1085192, 0.0411231, 2.8215, 0.296875, 2.8215, -1.1069336, 2.8215, 0.2290039, , , , , , , , , , , , , , , , , , , , , , 
0.1090385, 0.0428016, 2.835, -0.4091797, 2.835, -1.0512695, 2.835, 0.2885742, 0.1090385, -0.0062104, 2.835, 0.6362305, 2.835, -1.0947266, 2.835, -0.0092773, 0.1090385, -0.0048676, 2.835, 0.6459961, 2.835, -1.0952148, 2.835, -0.2895508, 0.1090385, 0.0441444, 2.835, 0.3105469, 2.835, -1.2099609, 2.835, 0.2490234, , , , , , , , , , , , , , , , , , , , , , 
0.1095577, 0.0443122, 2.8485, -0.387207, 2.8485, -0.9423828, 2.8485, 0.2641602, 0.1095577, -0.0035248, 2.8485, 0.5439453, 2.8485, -0.9570312, 2.8485, 0.1523438, 0.1095577, -0.0028534, 2.8485, 0.449707, 2.8485, -1.0063477, 2.8485, -0.2636719, 0.1095577, 0.0468299, 2.8485, 0.2280273, 2.8485, -1.2651367, 2.8485, 0.2929688, , , , , , , , , , , , , , , , , , , , , , 
0.1100769, 0.0428016, 2.862, -0.652832, 2.862, -0.8208008, 2.862, 0.1362305, 0.1100769, -0.0041962, 2.862, 0.6723633, 2.862, -0.7900391, 2.862, 0.1665039, 0.1100769, -0.0028534, 2.862, 0.2143555, 2.862, -1.0234375, 2.862, -0.2993164, 0.1100769, 0.043473, 2.862, 0.0224609, 2.862, -1.097168, 2.862, 0.2885742, , , , , , , , , , , , , , , , , , , , , , 
0.1105962, 0.0357519, 2.8755, -0.7719727, 2.8755, -0.7958984, 2.8755, 0.1572266, 0.1105962, -0.005539, 2.8755, 0.6694336, 2.8755, -0.7680664, 2.8755, 0.1474609, 0.1105962, -0.0030213, 2.8755, 0.1220703, 2.8755, -1.0893555, 2.8755, -0.3359375, 0.1105962, 0.0362554, 2.8755, -0.0786133, 2.8755, -0.9350586, 2.8755, 0.234375, , , , , , , , , , , , , , , , , , , , , , 
0.1111154, 0.030045, 2.889, -0.7568359, 2.889, -0.9106445, 2.889, 0.2060547, 0.1111154, -0.0062104, 2.889, 0.6289062, 2.889, -0.8891602, 2.889, 0.0478516, 0.1111154, -0.0030213, 2.889, 0.1430664, 2.889, -1.0947266, 2.889, -0.3276367, 0.1111154, 0.0280308, 2.889, 0.0664062, 2.889, -0.9428711, 2.889, 0.1435547, , , , , , , , , , , , , , , , , , , , , , 
0.1116346, 0.0290379, 2.9025, -0.5043945, 2.9025, -1.043457, 2.9025, 0.246582, 0.1116346, -0.0075532, 2.9025, 0.5854492, 2.9025, -0.9853516, 2.9025, 0.0302734, 0.1116346, -0.0036927, 2.9025, 0.2753906, 2.9025, -1.0410156, 2.9025, -0.3017578, 0.1116346, 0.0219883, 2.9025, 0.2670898, 2.9025, -1.0551758, 2.9025, 0.0947266, , , , , , , , , , , , , , , , , , , , , , 
0.1121538, 0.0344091, 2.916, -0.3544922, 2.916, -0.9238281, 2.916, 0.2124023, 0.1121538, -0.0070497, 2.916, 0.5239258, 2.916, -0.847168, 2.916, 0.1196289, 0.1121538, -0.0041962, 2.916, 0.3212891, 2.916, -0.9550781, 2.916, -0.2558594, 0.1121538, 0.0172885, 2.916, 0.2788086, 2.916, -1.0810547, 2.916, 0.1469727, , , , , , , , , , , , , , , , , , , , , , 
0.1126731, 0.0372625, 2.9295, -0.4990234, 2.9295, -0.7192383, 2.9295, 0.1333008, 0.1126731, -0.0068818, 2.9295, 0.6040039, 2.9295, -0.7041016, 2.9295, 0.1674805, 0.1126731, -0.0043641, 2.9295, 0.3027344, 2.9295, -0.9208984, 2.9295, -0.2426758, 0.1126731, 0.0146029, 2.9295, 0.1655273, 2.9295, -0.9560547, 2.9295, 0.1455078, , , , , , , , , , , , , , , , , , , , , , 
0.1131923, 0.0360876, 2.943, -0.6762695, 2.943, -0.6879883, 2.943, 0.1601562, 0.1131923, -0.0083925, 2.943, 0.6381836, 2.943, -0.6938477, 2.943, 0.1367188, 0.1131923, -0.0028534, 2.943, 0.3007812, 2.943, -0.9321289, 2.943, -0.2861328, 0.1131923, 0.0132601, 2.943, 0.1806641, 2.943, -0.8354492, 2.943, 0.0478516, , , , , , , , , , , , , , , , , , , , , , 
0.1137115, 0.033402, 2.9565, -0.7050781, 2.9565, -0.7646484, 2.9565, 0.2456055, 0.1137115, -0.0092317, 2.9565, 0.5864258, 2.9565, -0.7749023, 2.9565, 0.0307617, 0.1137115, -0.0001678, 2.9565, 0.2792969, 2.9565, -0.9458008, 2.9565, -0.1977539, 0.1137115, 0.0112459, 2.9565, 0.3295898, 2.9565, -0.8847656, 2.9565, 0.0073242, , , , , , , , , , , , , , , , , , , , , , 
0.1142308, 0.03122, 2.97, -0.5083008, 2.97, -0.8037109, 2.97, 0.2695312, 0.1142308, -0.0092317, 2.97, 0.574707, 2.97, -0.7470703, 2.97, -0.0644531, 0.1142308, 0.0018463, 2.97, 0.4116211, 2.97, -0.9047852, 2.97, -0.2895508, 0.1142308, 0.0105745, 2.97, 0.4121094, 2.97, -0.9619141, 2.97, 0.1020508, , , , , , , , , , , , , , , , , , , , , , 
0.11475, 0.0285344, 2.9835, -0.347168, 2.9835, -0.7583008, 2.9835, 0.2475586, 0.11475, -0.0092317, 2.9835, 0.4267578, 2.9835, -0.6899414, 2.9835, 0.015625, 0.11475, 0.0011749, 2.9835, 0.4316406, 2.9835, -0.7807617, 2.9835, -0.2583008, 0.11475, 0.0102388, 2.9835, 0.4077148, 2.9835, -0.9379883, 2.9835, 0.1621094, , , , , , , , , , , , , , , , , , , , , , 
0.1152692, 0.0258488, 2.997, -0.3857422, 2.997, -0.6845703, 2.997, 0.2495117, 0.1152692, -0.0085603, 2.997, 0.4824219, 2.997, -0.6953125, 2.997, 0.0756836, 0.1152692, -0.0015106, 2.997, 0.4438477, 2.997, -0.7275391, 2.997, -0.246582, 0.1152692, 0.008896, 2.997, 0.3334961, 2.997, -0.8178711, 2.997, 0.1967773, , , , , , , , , , , , , , , , , , , , , , 
0.1157885, 0.023331, 3.0105, -0.5581055, 3.0105, -0.6650391, 3.0105, 0.1450195, 0.1157885, -0.005539, 3.0105, 0.59375, 3.0105, -0.6943359, 3.0105, 0.1098633, 0.1157885, -0.0041962, 3.0105, 0.3828125, 3.0105, -0.8100586, 3.0105, -0.2578125, 0.1157885, 0.0065461, 3.0105, 0.1601562, 3.0105, -0.7363281, 3.0105, 0.1479492, , , , , , , , , , , , , , , , , , , , , , 
0.1163077, 0.0152743, 3.024, -0.6733398, 3.024, -0.7055664, 3.024, 0.1660156, 0.1163077, -0.0041962, 3.024, 0.6557617, 3.024, -0.6870117, 3.024, 0.1220703, 0.1163077, -0.0052033, 3.024, 0.3105469, 3.024, -0.8735352, 3.024, -0.2016602, 0.1163077, 0.0068818, 3.024, 0.0356445, 3.024, -0.7963867, 3.024, 0.09375, , , , , , , , , , , , , , , , , , , , , , 
0.1168269, 0.0048676, 3.0375, -0.5078125, 3.0375, -0.7314453, 3.0375, 0.121582, 0.1168269, -0.0075532, 3.0375, 0.565918, 3.0375, -0.6723633, 3.0375, 0.0273438, 0.1168269, -0.0048676, 3.0375, 0.1689453, 3.0375, -0.9082031, 3.0375, -0.2128906, 0.1168269, 0.005539, 3.0375, 0.046875, 3.0375, -0.8901367, 3.0375, 0.1083984, , , , , , , , , , , , , , , , , , , , , , 
0.1173462, 0.0010071, 3.051, -0.3798828, 3.051, -0.7216797, 3.051, 0.0966797, 0.1173462, -0.0102388, 3.051, 0.3808594, 3.051, -0.625, 3.051, 0.090332, 0.1173462, -0.0038605, 3.051, 0.0849609, 3.051, -0.7670898, 3.051, -0.2924805, 0.1173462, 0.0058747, 3.051, 0.0742188, 3.051, -0.8227539, 3.051, 0.1479492, , , , , , , , , , , , , , , , , , , , , , 
0.1178654, 0.0048676, 3.0645, -0.2788086, 3.0645, -0.6962891, 3.0645, 0.1455078, 0.1178654, -0.0102388, 3.0645, 0.3134766, 3.0645, -0.625, 3.0645, 0.1430664, 0.1178654, -0.0048676, 3.0645, 0.0888672, 3.0645, -0.644043, 3.0645, -0.2353516, 0.1178654, 0.0065461, 3.0645, 0.0932617, 3.0645, -0.6928711, 3.0645, 0.1308594, , , , , , , , , , , , , , , , , , , , , , 
0.1183846, 0.0095674, 3.078, -0.4321289, 3.078, -0.6074219, 3.078, 0.1279297, 0.1183846, -0.0099031, 3.078, 0.5581055, 3.078, -0.5839844, 3.078, 0.137207, 0.1183846, -0.0062104, 3.078, 0.1469727, 3.078, -0.6850586, 3.078, -0.2207031, 0.1183846, 0.0062104, 3.078, 0.0776367, 3.078, -0.6357422, 3.078, 0.1123047, , , , , , , , , , , , , , , , , , , , , , 
0.1189038, 0.0119173, 3.0915, -0.6035156, 3.0915, -0.5810547, 3.0915, 0.1293945, 0.1189038, -0.0112459, 3.0915, 0.6513672, 3.0915, -0.5727539, 3.0915, 0.0795898, 0.1189038, -0.0062104, 3.0915, 0.2333984, 3.0915, -0.8007812, 3.0915, -0.2094727, 0.1189038, 0.0052033, 3.0915, 0.0683594, 3.0915, -0.6665039, 3.0915, 0.0756836, , , , , , , , , , , , , , , , , , , , , , 
0.1194231, 0.0085603, 3.105, -0.546875, 3.105, -0.6425781, 3.105, 0.1357422, 0.1194231, -0.0109102, 3.105, 0.5043945, 3.105, -0.621582, 3.105, 0.0185547, 0.1194231, -0.0068818, 3.105, 0.293457, 3.105, -0.8007812, 3.105, -0.1694336, 0.1194231, 0.0041962, 3.105, 0.1376953, 3.105, -0.7666016, 3.105, 0.0683594, , , , , , , , , , , , , , , , , , , , , , 
0.1199423, 0.0025177, 3.1185, -0.3212891, 3.1185, -0.6821289, 3.1185, 0.1552734, 0.1199423, -0.008896, 3.1185, 0.3256836, 3.1185, -0.6064453, 3.1185, 0.128418, 0.1199423, -0.0078889, 3.1185, 0.3183594, 3.1185, -0.6884766, 3.1185, -0.1582031, 0.1199423, 0.0018463, 3.1185, 0.2250977, 3.1185, -0.8022461, 3.1185, 0.1220703, , , , , , , , , , , , , , , , , , , , , , 
0.1204615, -0.0035248, 3.132, -0.3623047, 3.132, -0.5722656, 3.132, 0.1572266, 0.1204615, -0.0087282, 3.132, 0.3515625, 3.132, -0.5634766, 3.132, 0.1767578, 0.1204615, -0.0068818, 3.132, 0.2939453, 3.132, -0.6459961, 3.132, -0.1166992, 0.1204615, -0.0031891, 3.132, 0.2216797, 3.132, -0.7651367, 3.132, 0.1416016, , , , , , , , , , , , , , , , , , , , , , 
0.1209808, -0.0099031, 3.1455, -0.6025391, 3.1455, -0.4589844, 3.1455, 0.1640625, 0.1209808, -0.0104067, 3.1455, 0.5874023, 3.1455, -0.4814453, 3.1455, 0.1347656, 0.1209808, -0.005539, 3.1455, 0.2827148, 3.1455, -0.7485352, 3.1455, -0.1430664, 0.1209808, -0.0082246, 3.1455, 0.1220703, 3.1455, -0.6679688, 3.1455, 0.140625, , , , , , , , , , , , , , , , , , , , , , 
0.1215, -0.0132601, 3.159, -0.6601562, 3.159, -0.5473633, 3.159, 0.206543, 0.1215, -0.0105745, 3.159, 0.6982422, 3.159, -0.5087891, 3.159, 0.0620117, 0.1215, -0.0062104, 3.159, 0.3129883, 3.159, -0.8022461, 3.159, -0.1694336, 0.1215, -0.0119173, 3.159, 0.0419922, 3.159, -0.6660156, 3.159, 0.1259766, , , , , , , , , , , , , , , , , , , , , , 
0.1220192, -0.01561, 3.1725, -0.4741211, 3.1725, -0.6928711, 3.1725, 0.2416992, 0.1220192, -0.0102388, 3.1725, 0.6142578, 3.1725, -0.6166992, 3.1725, 0.0351562, 0.1220192, -0.0104067, 3.1725, 0.3842773, 3.1725, -0.8188477, 3.1725, -0.0893555, 0.1220192, -0.0146029, 3.1725, 0.0913086, 3.1725, -0.7807617, 3.1725, 0.1201172, , , , , , , , , , , , , , , , , , , , , , 
0.1225385, -0.0159457, 3.186, -0.3710938, 3.186, -0.6723633, 3.186, 0.2407227, 0.1225385, -0.0102388, 3.186, 0.484375, 3.186, -0.6533203, 3.186, 0.0654297, 0.1225385, -0.0129244, 3.186, 0.4042969, 3.186, -0.7460938, 3.186, -0.1196289, 0.1225385, -0.01561, 3.186, 0.1459961, 3.186, -0.8730469, 3.186, 0.1601562, , , , , , , , , , , , , , , , , , , , , , 
0.1230577, -0.0149386, 3.1995, -0.5087891, 3.1995, -0.6015625, 3.1995, 0.2089844, 0.1230577, -0.0109102, 3.1995, 0.5341797, 3.1995, -0.5893555, 3.1995, 0.0996094, 0.1230577, -0.0124208, 3.1995, 0.3579102, 3.1995, -0.7109375, 3.1995, -0.1508789, 0.1230577, -0.012253, 3.1995, 0.0551758, 3.1995, -0.8364258, 3.1995, 0.1801758, , , , , , , , , , , , , , , , , , , , , , 
0.1235769, -0.0135958, 3.213, -0.5874023, 3.213, -0.5888672, 3.213, 0.1884766, 0.1235769, -0.0104067, 3.213, 0.6674805, 3.213, -0.5668945, 3.213, 0.1669922, 0.1235769, -0.0124208, 3.213, 0.2836914, 3.213, -0.7714844, 3.213, -0.1079102, 0.1235769, -0.0078889, 3.213, -0.0615234, 3.213, -0.7607422, 3.213, 0.1757812, , , , , , , , , , , , , , , , , , , , , , 
0.1240962, -0.008896, 3.2265, -0.6850586, 3.2265, -0.5737305, 3.2265, 0.184082, 0.1240962, -0.0087282, 3.2265, 0.7177734, 3.2265, -0.5668945, 3.2265, 0.1240234, 0.1240962, -0.0129244, 3.2265, 0.1982422, 3.2265, -0.8740234, 3.2265, -0.0522461, 0.1240962, -0.0013428, 3.2265, -0.1357422, 3.2265, -0.7641602, 3.2265, 0.2021484, , , , , , , , , , , , , , , , , , , , , , 
0.1246154, -0.0048676, 3.24, -0.6162109, 3.24, -0.5917969, 3.24, 0.2763672, 0.1246154, -0.0072175, 3.24, 0.6186523, 3.24, -0.5766602, 3.24, -0.0092773, 0.1246154, -0.0132601, 3.24, 0.2402344, 3.24, -0.8964844, 3.24, -0.0869141, 0.1246154, 0.0058747, 3.24, -0.1381836, 3.24, -0.8095703, 3.24, 0.2094727, , , , , , , , , , , , , , , , , , , , , , 
0.1251346, -0.0048676, 3.2535, -0.4638672, 3.2535, -0.637207, 3.2535, 0.3139648, 0.1251346, -0.0052033, 3.2535, 0.5649414, 3.2535, -0.574707, 3.2535, 0.0102539, 0.1251346, -0.0119173, 3.2535, 0.3217773, 3.2535, -0.8139648, 3.2535, -0.0571289, 0.1251346, 0.0102388, 3.2535, -0.0673828, 3.2535, -0.8398438, 3.2535, 0.2421875, , , , , , , , , , , , , , , , , , , , , , 
0.1256538, -0.0048676, 3.267, -0.4726562, 3.267, -0.6499023, 3.267, 0.3364258, 0.1256538, -0.0045319, 3.267, 0.5839844, 3.267, -0.6040039, 3.267, 0.0527344, 0.1256538, -0.0115816, 3.267, 0.434082, 3.267, -0.7587891, 3.267, -0.0415039, 0.1256538, 0.0142672, 3.267, -0.0273438, 3.267, -0.8554688, 3.267, 0.2885742, , , , , , , , , , , , , , , , , , , , , , 
0.1261731, -0.0025177, 3.2805, -0.59375, 3.2805, -0.6176758, 3.2805, 0.284668, 0.1261731, -0.0072175, 3.2805, 0.7460938, 3.2805, -0.6318359, 3.2805, 0.0957031, 0.1261731, -0.0109102, 3.2805, 0.4902344, 3.2805, -0.793457, 3.2805, -0.065918, 0.1261731, 0.0213169, 3.2805, -0.0507812, 3.2805, -0.8569336, 3.2805, 0.2856445, , , , , , , , , , , , , , , , , , , , , , 
0.1266923, 0.0015106, 3.294, -0.6748047, 3.294, -0.6054688, 3.294, 0.2338867, 0.1266923, -0.0109102, 3.294, 0.7944336, 3.294, -0.6157227, 3.294, 0.1240234, 0.1266923, -0.0075532, 3.294, 0.4521484, 3.294, -0.8305664, 3.294, -0.0551758, 0.1266923, 0.0270237, 3.294, -0.125, 3.294, -0.8740234, 3.294, 0.2402344, , , , , , , , , , , , , , , , , , , , , , 
0.1272115, 0.0062104, 3.3075, -0.6386719, 3.3075, -0.6010742, 3.3075, 0.2714844, 0.1272115, -0.0112459, 3.3075, 0.6933594, 3.3075, -0.5859375, 3.3075, 0.0795898, 0.1272115, -0.0062104, 3.3075, 0.3081055, 3.3075, -0.8720703, 3.3075, -0.0986328, 0.1272115, 0.0310521, 3.3075, -0.1123047, 3.3075, -0.8745117, 3.3075, 0.2207031, , , , , , , , , , , , , , , , , , , , , , 
0.1277308, 0.0119173, 3.321, -0.5449219, 3.321, -0.5976562, 3.321, 0.28125, 0.1277308, -0.0082246, 3.321, 0.5737305, 3.321, -0.550293, 3.321, 0.0415039, 0.1277308, -0.008896, 3.321, 0.1855469, 3.321, -0.8496094, 3.321, -0.0297852, 0.1277308, 0.0337377, 3.321, -0.0644531, 3.321, -0.8261719, 3.321, 0.2026367, , , , , , , , , , , , , , , , , , , , , , 
0.12825, 0.0199741, 3.3345, -0.4931641, 3.3345, -0.5839844, 3.3345, 0.3198242, 0.12825, -0.005539, 3.3345, 0.5610352, 3.3345, -0.5463867, 3.3345, 0.0610352, 0.12825, -0.0109102, 3.3345, 0.25, 3.3345, -0.7929688, 3.3345, -0.012207, 0.12825, 0.0377661, 3.3345, -0.0595703, 3.3345, -0.7939453, 3.3345, 0.2045898, , , , , , , , , , , , , , , , , , , , , , 
0.1287692, 0.0305486, 3.348, -0.550293, 3.348, -0.5688477, 3.348, 0.3041992, 0.1287692, -0.0045319, 3.348, 0.7207031, 3.348, -0.5634766, 3.348, 0.0834961, 0.1287692, -0.0082246, 3.348, 0.3984375, 3.348, -0.7641602, 3.348, -0.0048828, 0.1287692, 0.0424659, 3.348, -0.1196289, 3.348, -0.7958984, 3.348, 0.2167969, , , , , , , , , , , , , , , , , , , , , , 
0.1292885, 0.0397803, 3.3615, -0.6821289, 3.3615, -0.5581055, 3.3615, 0.2788086, 0.1292885, -0.0048676, 3.3615, 0.8178711, 3.3615, -0.5854492, 3.3615, 0.1513672, 0.1292885, -0.0048676, 3.3615, 0.4819336, 3.3615, -0.8095703, 3.3615, 0.0126953, 0.1292885, 0.0464942, 3.3615, -0.1523438, 3.3615, -0.855957, 3.3615, 0.2045898, , , , , , , , , , , , , , , , , , , , , , 
0.1298077, 0.0377661, 3.375, -0.7280273, 3.375, -0.5449219, 3.375, 0.2421875, 0.1298077, -0.0048676, 3.375, 0.824707, 3.375, -0.5703125, 3.375, 0.1450195, 0.1298077, -0.0030213, 3.375, 0.409668, 3.375, -0.894043, 3.375, 0.0048828, 0.1298077, 0.0481727, 3.375, -0.1254883, 3.375, -0.9433594, 3.375, 0.2026367, , , , , , , , , , , , , , , , , , , , , , 
0.1303269, 0.0315557, 3.3885, -0.7197266, 3.3885, -0.5493164, 3.3885, 0.2729492, 0.1303269, -0.0068818, 3.3885, 0.7211914, 3.3885, -0.5488281, 3.3885, 0.0874023, 0.1303269, -0.0023499, 3.3885, 0.3066406, 3.3885, -0.894043, 3.3885, -0.0097656, 0.1303269, 0.043473, 3.3885, -0.0927734, 3.3885, -0.9287109, 3.3885, 0.1987305, , , , , , , , , , , , , , , , , , , , , , 
0.1308462, 0.0253452, 3.402, -0.5415039, 3.402, -0.5727539, 3.402, 0.2363281, 0.1308462, -0.008896, 3.402, 0.6005859, 3.402, -0.5112305, 3.402, 0.0649414, 0.1308462, -0.0008392, 3.402, 0.2172852, 3.402, -0.7832031, 3.402, -0.0307617, 0.1308462, 0.0330663, 3.402, -0.0913086, 3.402, -0.7929688, 3.402, 0.1948242, , , , , , , , , , , , , , , , , , , , , , 
0.1313654, 0.0199741, 3.4155, -0.4526367, 3.4155, -0.5546875, 3.4155, 0.246582, 0.1313654, -0.0082246, 3.4155, 0.5087891, 3.4155, -0.4907227, 3.4155, 0.1313477, 0.1313654, 0.0005035, 3.4155, 0.2124023, 3.4155, -0.7324219, 3.4155, -0.0258789, 0.1313654, 0.0250095, 3.4155, -0.1289062, 3.4155, -0.7138672, 3.4155, 0.1831055, , , , , , , , , , , , , , , , , , , , , , 
0.1318846, 0.017792, 3.429, -0.5698242, 3.429, -0.4931641, 3.429, 0.2387695, 0.1318846, -0.0072175, 3.429, 0.652832, 3.429, -0.4926758, 3.429, 0.1547852, 0.1318846, 0.0011749, 3.429, 0.3041992, 3.429, -0.7275391, 3.429, 0.0126953, 0.1318846, 0.0213169, 3.429, -0.1611328, 3.429, -0.7250977, 3.429, 0.1723633, , , , , , , , , , , , , , , , , , , , , , 
0.1324038, 0.0166171, 3.4425, -0.6987305, 3.4425, -0.4921875, 3.4425, 0.28125, 0.1324038, -0.0082246, 3.4425, 0.800293, 3.4425, -0.4951172, 3.4425, 0.0957031, 0.1324038, -0.0001678, 3.4425, 0.3383789, 3.4425, -0.8227539, 3.4425, 0.0605469, 0.1324038, 0.0193027, 3.4425, -0.199707, 3.4425, -0.8110352, 3.4425, 0.1542969, , , , , , , , , , , , , , , , , , , , , , 
0.1329231, 0.0129244, 3.456, -0.6293945, 3.456, -0.4614258, 3.456, 0.28125, 0.1329231, -0.0083925, 3.456, 0.7524414, 3.456, -0.4345703, 3.456, 0.090332, 0.1329231, -0.0041962, 3.456, 0.324707, 3.456, -0.8369141, 3.456, 0.0620117, 0.1329231, 0.0176242, 3.456, -0.1757812, 3.456, -0.8417969, 3.456, 0.1669922, , , , , , , , , , , , , , , , , , , , , , 
0.1334423, 0.012253, 3.4695, -0.5195312, 3.4695, -0.4033203, 3.4695, 0.2954102, 0.1334423, -0.0075532, 3.4695, 0.6396484, 3.4695, -0.3686523, 3.4695, 0.0991211, 0.1334423, -0.0068818, 3.4695, 0.2739258, 3.4695, -0.7709961, 3.4695, 0.0820312, 0.1334423, 0.0172885, 3.4695, -0.1396484, 3.4695, -0.7890625, 3.4695, 0.1875, , , , , , , , , , , , , , , , , , , , , , 
0.1339615, 0.0159457, 3.483, -0.5634766, 3.483, -0.3925781, 3.483, 0.2988281, 0.1339615, -0.0070497, 3.483, 0.5844727, 3.483, -0.3847656, 3.483, 0.0761719, 0.1339615, -0.0068818, 3.483, 0.3183594, 3.483, -0.7338867, 3.483, 0.0800781, 0.1339615, 0.0159457, 3.483, -0.1621094, 3.483, -0.7504883, 3.483, 0.2226562, , , , , , , , , , , , , , , , , , , , , , 
0.1344808, 0.0171206, 3.4965, -0.6352539, 3.4965, -0.4101562, 3.4965, 0.34375, 0.1344808, -0.0075532, 3.4965, 0.6474609, 3.4965, -0.4052734, 3.4965, 0.0996094, 0.1344808, -0.0068818, 3.4965, 0.3974609, 3.4965, -0.7553711, 3.4965, 0.1376953, 0.1344808, 0.0132601, 3.4965, -0.222168, 3.4965, -0.7519531, 3.4965, 0.2084961, , , , , , , , , , , , , , , , , , , , , , 
0.135, 0.0169528, 3.51, -0.621582, 3.51, -0.40625, 3.51, 0.2939453, 0.135, -0.0075532, 3.51, 0.7568359, 3.51, -0.3984375, 3.51, 0.0756836, 0.135, -0.0078889, 3.51, 0.4140625, 3.51, -0.7836914, 3.51, 0.128418, 0.135, 0.0132601, 3.51, -0.2929688, 3.51, -0.7827148, 3.51, 0.2026367, , , , , , , , , , , , , , , , , , , , , , 
0.1355192, 0.0159457, 3.5235, -0.5986328, 3.5235, -0.4257812, 3.5235, 0.2832031, 0.1355192, -0.0063783, 3.5235, 0.78125, 3.5235, -0.402832, 3.5235, 0.1064453, 0.1355192, -0.0097353, 3.5235, 0.3085938, 3.5235, -0.7807617, 3.5235, 0.1176758, 0.1355192, 0.0142672, 3.5235, -0.3212891, 3.5235, -0.8017578, 3.5235, 0.2182617, , , , , , , , , , , , , , , , , , , , , , 
0.1360385, 0.0132601, 3.537, -0.5605469, 3.537, -0.3793945, 3.537, 0.2558594, 0.1360385, -0.0058747, 3.537, 0.6494141, 3.537, -0.3842773, 3.537, 0.1137695, 0.1360385, -0.0099031, 3.537, 0.2016602, 3.537, -0.746582, 3.537, 0.0917969, 0.1360385, 0.012253, 3.537, -0.3076172, 3.537, -0.7612305, 3.537, 0.2148438, , , , , , , , , , , , , , , , , , , , , , 
0.1365577, 0.0119173, 3.5505, -0.5664062, 3.5505, -0.3530273, 3.5505, 0.2485352, 0.1365577, -0.0065461, 3.5505, 0.5849609, 3.5505, -0.3496094, 3.5505, 0.1435547, 0.1365577, -0.0092317, 3.5505, 0.1816406, 3.5505, -0.7246094, 3.5505, 0.0844727, 0.1365577, 0.0085603, 3.5505, -0.2802734, 3.5505, -0.7089844, 3.5505, 0.1835938, , , , , , , , , , , , , , , , , , , , , , 
0.1370769, 0.0090639, 3.564, -0.5825195, 3.564, -0.3676758, 3.564, 0.2421875, 0.1370769, -0.0068818, 3.564, 0.6083984, 3.564, -0.3725586, 3.564, 0.097168, 0.1370769, -0.0102388, 3.564, 0.2128906, 3.564, -0.7246094, 3.564, 0.1030273, 0.1370769, 0.0092317, 3.564, -0.265625, 3.564, -0.7104492, 3.564, 0.1660156, , , , , , , , , , , , , , , , , , , , , , 
0.1375962, 0.0038605, 3.5775, -0.5639648, 3.5775, -0.3891602, 3.5775, 0.2543945, 0.1375962, -0.0070497, 3.5775, 0.6484375, 3.5775, -0.3837891, 3.5775, 0.1147461, 0.1375962, -0.011078, 3.5775, 0.2724609, 3.5775, -0.7509766, 3.5775, 0.1289062, 0.1375962, 0.0112459, 3.5775, -0.2744141, 3.5775, -0.7451172, 3.5775, 0.1582031, , , , , , , , , , , , , , , , , , , , , , 
0.1381154, 0.0005035, 3.591, -0.5639648, 3.591, -0.3686523, 3.591, 0.3032227, 0.1381154, -0.0073854, 3.591, 0.7050781, 3.591, -0.3305664, 3.591, 0.175293, 0.1381154, -0.0109102, 3.591, 0.2666016, 3.591, -0.7773438, 3.591, 0.1723633, 0.1381154, 0.0105745, 3.591, -0.2836914, 3.591, -0.765625, 3.591, 0.15625, , , , , , , , , , , , , , , , , , , , , , 
0.1386346, -0.0015106, 3.6045, -0.6708984, 3.6045, -0.3120117, 3.6045, 0.2880859, 0.1386346, -0.005539, 3.6045, 0.7900391, 3.6045, -0.2866211, 3.6045, 0.1660156, 0.1386346, -0.0095674, 3.6045, 0.2915039, 3.6045, -0.7988281, 3.6045, 0.2172852, 0.1386346, 0.0099031, 3.6045, -0.3041992, 3.6045, -0.809082, 3.6045, 0.1572266, , , , , , , , , , , , , , , , , , , , , , 
0.1391538, -0.0015106, 3.618, -0.7255859, 3.618, -0.2753906, 3.618, 0.3071289, 0.1391538, -0.0031891, 3.618, 0.796875, 3.618, -0.2905273, 3.618, 0.1259766, 0.1391538, -0.0082246, 3.618, 0.3076172, 3.618, -0.8193359, 3.618, 0.2016602, 0.1391538, 0.0099031, 3.618, -0.3037109, 3.618, -0.8193359, 3.618, 0.175293, , , , , , , , , , , , , , , , , , , , , , 
0.1396731, -0.0011749, 3.6315, -0.6708984, 3.6315, -0.3417969, 3.6315, 0.3242188, 0.1396731, -0.0015106, 3.6315, 0.7563477, 3.6315, -0.3242188, 3.6315, 0.1142578, 0.1396731, -0.0062104, 3.6315, 0.3447266, 3.6315, -0.8261719, 3.6315, 0.1757812, 0.1396731, 0.0083925, 3.6315, -0.2998047, 3.6315, -0.8198242, 3.6315, 0.1933594, , , , , , , , , , , , , , , , , , , , , , 
0.1401923, -0.0036927, 3.645, -0.6254883, 3.645, -0.4038086, 3.645, 0.3588867, 0.1401923, -0.0035248, 3.645, 0.6743164, 3.645, -0.4072266, 3.645, 0.1191406, 0.1401923, -0.0068818, 3.645, 0.3994141, 3.645, -0.8544922, 3.645, 0.2055664, 0.1401923, 0.0028534, 3.645, -0.2963867, 3.645, -0.8583984, 3.645, 0.1791992, , , , , , , , , , , , , , , , , , , , , , 
0.1407115, -0.0075532, 3.6585, -0.6660156, 3.6585, -0.3623047, 3.6585, 0.3535156, 0.1407115, -0.0065461, 3.6585, 0.7548828, 3.6585, -0.378418, 3.6585, 0.1547852, 0.1407115, -0.008896, 3.6585, 0.3452148, 3.6585, -0.8657227, 3.6585, 0.2104492, 0.1407115, -0.0075532, 3.6585, -0.3261719, 3.6585, -0.8637695, 3.6585, 0.1918945, , , , , , , , , , , , , , , , , , , , , , 
0.1412308, -0.0102388, 3.672, -0.7143555, 3.672, -0.3027344, 3.672, 0.3203125, 0.1412308, -0.0062104, 3.672, 0.8798828, 3.672, -0.2773438, 3.672, 0.1513672, 0.1412308, -0.0119173, 3.672, 0.2265625, 3.672, -0.8457031, 3.672, 0.2158203, 0.1412308, -0.0142672, 3.672, -0.3916016, 3.672, -0.8149414, 3.672, 0.1958008, , , , , , , , , , , , , , , , , , , , , , 
0.14175, -0.0142672, 3.6855, -0.6699219, 3.6855, -0.3208008, 3.6855, 0.3095703, 0.14175, -0.0046998, 3.6855, 0.815918, 3.6855, -0.2832031, 3.6855, 0.1425781, 0.14175, -0.0135958, 3.6855, 0.1943359, 3.6855, -0.8305664, 3.6855, 0.2070312, 0.14175, -0.0159457, 3.6855, -0.4394531, 3.6855, -0.7714844, 3.6855, 0.1928711, , , , , , , , , , , , , , , , , , , , , , 
0.1422692, -0.0162814, 3.699, -0.6342773, 3.699, -0.425293, 3.699, 0.3071289, 0.1422692, -0.0068818, 3.699, 0.7163086, 3.699, -0.378418, 3.699, 0.1323242, 0.1422692, -0.0139315, 3.699, 0.2001953, 3.699, -0.8164062, 3.699, 0.1572266, 0.1422692, -0.0149386, 3.699, -0.4174805, 3.699, -0.8022461, 3.699, 0.1972656, , , , , , , , , , , , , , , , , , , , , , 
0.1427885, -0.0129244, 3.7125, -0.6274414, 3.7125, -0.480957, 3.7125, 0.3574219, 0.1427885, -0.0097353, 3.7125, 0.6860352, 3.7125, -0.4868164, 3.7125, 0.1264648, 0.1427885, -0.0142672, 3.7125, 0.2788086, 3.7125, -0.8540039, 3.7125, 0.1464844, 0.1427885, -0.0132601, 3.7125, -0.3330078, 3.7125, -0.8618164, 3.7125, 0.1738281, , , , , , , , , , , , , , , , , , , , , , 
0.1433077, -0.0142672, 3.726, -0.6777344, 3.726, -0.449707, 3.726, 0.3706055, 0.1433077, -0.0092317, 3.726, 0.809082, 3.726, -0.3994141, 3.726, 0.1259766, 0.1433077, -0.0152743, 3.726, 0.3251953, 3.726, -0.8896484, 3.726, 0.2041016, 0.1433077, -0.0090639, 3.726, -0.2758789, 3.726, -0.8857422, 3.726, 0.1796875, , , , , , , , , , , , , , , , , , , , , , 
0.1438269, -0.0135958, 3.7395, -0.7255859, 3.7395, -0.3144531, 3.7395, 0.3569336, 0.1438269, -0.0095674, 3.7395, 0.8603516, 3.7395, -0.2998047, 3.7395, 0.1098633, 0.1438269, -0.01561, 3.7395, 0.2915039, 3.7395, -0.8901367, 3.7395, 0.2236328, 0.1438269, -0.0036927, 3.7395, -0.2827148, 3.7395, -0.8823242, 3.7395, 0.206543, , , , , , , , , , , , , , , , , , , , , , 
0.1443462, -0.008896, 3.753, -0.6850586, 3.753, -0.3408203, 3.753, 0.3569336, 0.1443462, -0.0083925, 3.753, 0.8330078, 3.753, -0.3178711, 3.753, 0.1171875, 0.1443462, -0.0152743, 3.753, 0.3022461, 3.753, -0.8466797, 3.753, 0.2338867, 0.1443462, -0.0003357, 3.753, -0.3598633, 3.753, -0.8417969, 3.753, 0.2006836, , , , , , , , , , , , , , , , , , , , , , 
0.1448654, -0.0041962, 3.7665, -0.6533203, 3.7665, -0.4013672, 3.7665, 0.3686523, 0.1448654, -0.0063783, 3.7665, 0.7890625, 3.7665, -0.3618164, 3.7665, 0.1621094, 0.1448654, -0.0129244, 3.7665, 0.3266602, 3.7665, -0.8203125, 3.7665, 0.2329102, 0.1448654, 0.0013428, 3.7665, -0.3925781, 3.7665, -0.8203125, 3.7665, 0.1616211, , , , , , , , , , , , , , , , , , , , , , 
0.1453846, 0.0025177, 3.78, -0.6948242, 3.78, -0.3481445, 3.78, 0.3833008, 0.1453846, -0.0082246, 3.78, 0.8115234, 3.78, -0.3378906, 3.78, 0.140625, 0.1453846, -0.0095674, 3.78, 0.2988281, 3.78, -0.8432617, 3.78, 0.2607422, 0.1453846, 0.005539, 3.78, -0.3730469, 3.78, -0.8320312, 3.78, 0.1499023, , , , , , , , , , , , , , , , , , , , , , 
0.1459038, 0.0075532, 3.7935, -0.7617188, 3.7935, -0.3100586, 3.7935, 0.375, 0.1459038, -0.0125887, 3.7935, 0.8769531, 3.7935, -0.2885742, 3.7935, 0.1040039, 0.1459038, -0.008896, 3.7935, 0.2324219, 3.7935, -0.8720703, 3.7935, 0.2158203, 0.1459038, 0.0102388, 3.7935, -0.3916016, 3.7935, -0.8286133, 3.7935, 0.1787109, , , , , , , , , , , , , , , , , , , , , , 
0.1464231, 0.0085603, 3.807, -0.7348633, 3.807, -0.4052734, 3.807, 0.4174805, 0.1464231, -0.0139315, 3.807, 0.7973633, 3.807, -0.3955078, 3.807, 0.0942383, 0.1464231, -0.0097353, 3.807, 0.2285156, 3.807, -0.8911133, 3.807, 0.2124023, 0.1464231, 0.0166171, 3.807, -0.4267578, 3.807, -0.8520508, 3.807, 0.1972656, , , , , , , , , , , , , , , , , , , , , , 
0.1469423, 0.0146029, 3.8205, -0.6904297, 3.8205, -0.487793, 3.8205, 0.3837891, 0.1469423, -0.0119173, 3.8205, 0.828125, 3.8205, -0.4941406, 3.8205, 0.1030273, 0.1469423, -0.0095674, 3.8205, 0.2768555, 3.8205, -0.8950195, 3.8205, 0.2255859, 0.1469423, 0.0246738, 3.8205, -0.4047852, 3.8205, -0.8828125, 3.8205, 0.1879883, , , , , , , , , , , , , , , , , , , , , , 
0.1474615, 0.0253452, 3.834, -0.6728516, 3.834, -0.4414062, 3.834, 0.3876953, 0.1474615, -0.0125887, 3.834, 0.8300781, 3.834, -0.4643555, 3.834, 0.1391602, 0.1474615, -0.0082246, 3.834, 0.3115234, 3.834, -0.875, 3.834, 0.2207031, 0.1474615, 0.0327306, 3.834, -0.3632812, 3.834, -0.8920898, 3.834, 0.1967773, , , , , , , , , , , , , , , , , , , , , , 
0.1479808, 0.0325628, 3.8475, -0.722168, 3.8475, -0.4155273, 3.8475, 0.3916016, 0.1479808, -0.0149386, 3.8475, 0.8574219, 3.8475, -0.4023438, 3.8475, 0.105957, 0.1479808, -0.0065461, 3.8475, 0.2841797, 3.8475, -0.8769531, 3.8475, 0.168457, 0.1479808, 0.0379339, 3.8475, -0.3588867, 3.8475, -0.8867188, 3.8475, 0.206543, , , , , , , , , , , , , , , , , , , , , , 
0.1485, 0.0347448, 3.861, -0.6933594, 3.861, -0.4545898, 3.861, 0.3842773, 0.1485, -0.0132601, 3.861, 0.8120117, 3.861, -0.4204102, 3.861, 0.1289062, 0.1485, -0.0048676, 3.861, 0.2553711, 3.861, -0.9082031, 3.861, 0.1616211, 0.1485, 0.0384375, 3.861, -0.3378906, 3.861, -0.8862305, 3.861, 0.2001953, , , , , , , , , , , , , , , , , , , , , , 
0.1490192, 0.0360876, 3.8745, -0.6914062, 3.8745, -0.4755859, 3.8745, 0.3842773, 0.1490192, -0.0082246, 3.8745, 0.800293, 3.8745, -0.4458008, 3.8745, 0.1235352, 0.1490192, -0.0030213, 3.8745, 0.3071289, 3.8745, -0.9243164, 3.8745, 0.1474609, 0.1490192, 0.0397803, 3.8745, -0.296875, 3.8745, -0.9067383, 3.8745, 0.1855469, , , , , , , , , , , , , , , , , , , , , , 
0.1495385, 0.0414588, 3.888, -0.6782227, 3.888, -0.4931641, 3.888, 0.3867188, 0.1495385, -0.0058747, 3.888, 0.7924805, 3.888, -0.4799805, 3.888, 0.1308594, 0.1495385, -0.0031891, 3.888, 0.3232422, 3.888, -0.9301758, 3.888, 0.1660156, 0.1495385, 0.0428016, 3.888, -0.2783203, 3.888, -0.9165039, 3.888, 0.1689453, , , , , , , , , , , , , , , , , , , , , , 
0.1500577, 0.0448157, 3.9015, -0.6923828, 3.9015, -0.4897461, 3.9015, 0.375, 0.1500577, -0.0068818, 3.9015, 0.8349609, 3.9015, -0.4887695, 3.9015, 0.1713867, 0.1500577, -0.0050355, 3.9015, 0.3100586, 3.9015, -0.9331055, 3.9015, 0.1879883, 0.1500577, 0.043473, 3.9015, -0.2817383, 3.9015, -0.9345703, 3.9015, 0.1445312, , , , , , , , , , , , , , , , , , , , , , 
0.1505769, 0.0397803, 3.915, -0.7568359, 3.915, -0.5, 3.915, 0.375, 0.1505769, -0.0075532, 3.915, 0.894043, 3.915, -0.4863281, 3.915, 0.1508789, 0.1505769, -0.0041962, 3.915, 0.2734375, 3.915, -0.9545898, 3.915, 0.159668, 0.1505769, 0.0384375, 3.915, -0.3154297, 3.915, -0.9521484, 3.915, 0.1430664, , , , , , , , , , , , , , , , , , , , , , 
0.1510962, 0.030045, 3.9285, -0.7792969, 3.9285, -0.5268555, 3.9285, 0.3803711, 0.1510962, -0.0095674, 3.9285, 0.8852539, 3.9285, -0.5112305, 3.9285, 0.1132812, 0.1510962, -0.0028534, 3.9285, 0.253418, 3.9285, -0.9365234, 3.9285, 0.1635742, 0.1510962, 0.0307164, 3.9285, -0.3046875, 3.9285, -0.9282227, 3.9285, 0.1425781, , , , , , , , , , , , , , , , , , , , , , 
0.1516154, 0.0243381, 3.942, -0.7036133, 3.942, -0.5825195, 3.942, 0.3911133, 0.1516154, -0.0109102, 3.942, 0.8139648, 3.942, -0.5605469, 3.942, 0.1210938, 0.1516154, -0.0016785, 3.942, 0.2724609, 3.942, -0.9174805, 3.942, 0.1557617, 0.1516154, 0.0240024, 3.942, -0.2749023, 3.942, -0.9130859, 3.942, 0.1635742, , , , , , , , , , , , , , , , , , , , , , 
0.1521346, 0.023331, 3.9555, -0.6762695, 3.9555, -0.612793, 3.9555, 0.4296875, 0.1521346, -0.0095674, 3.9555, 0.8105469, 3.9555, -0.6015625, 3.9555, 0.1137695, 0.1521346, -0.0045319, 3.9555, 0.3291016, 3.9555, -0.8911133, 3.9555, 0.1259766, 0.1521346, 0.0184634, 3.9555, -0.2905273, 3.9555, -0.9418945, 3.9555, 0.1791992, , , , , , , , , , , , , , , , , , , , , , 
0.1526538, 0.024506, 3.969, -0.6875, 3.969, -0.5571289, 3.969, 0.4511719, 0.1526538, -0.0095674, 3.969, 0.8876953, 3.969, -0.5688477, 3.969, 0.0883789, 0.1526538, -0.0075532, 3.969, 0.3334961, 3.969, -0.9423828, 3.969, 0.1601562, 0.1526538, 0.0139315, 3.969, -0.3203125, 3.969, -0.9707031, 3.969, 0.1953125, , , , , , , , , , , , , , , , , , , , , , 
0.1531731, 0.0256809, 3.9825, -0.7446289, 3.9825, -0.5297852, 3.9825, 0.4599609, 0.1531731, -0.0112459, 3.9825, 0.9311523, 3.9825, -0.5419922, 3.9825, 0.0834961, 0.1531731, -0.0068818, 3.9825, 0.3383789, 3.9825, -1.0048828, 3.9825, 0.171875, 0.1531731, 0.008896, 3.9825, -0.34375, 3.9825, -0.9990234, 3.9825, 0.2250977, , , , , , , , , , , , , , , , , , , , , , 
0.1536923, 0.0240024, 3.996, -0.7709961, 3.996, -0.5830078, 3.996, 0.4526367, 0.1536923, -0.0102388, 3.996, 0.9174805, 3.996, -0.5664062, 3.996, 0.0673828, 0.1536923, -0.0057069, 3.996, 0.3803711, 3.996, -1.0053711, 3.996, 0.1357422, 0.1536923, 0.0045319, 3.996, -0.3203125, 3.996, -1.0151367, 3.996, 0.2514648, , , , , , , , , , , , , , , , , , , , , , 
0.1542115, 0.0203098, 4.0095, -0.7207031, 4.0095, -0.5932617, 4.0095, 0.4160156, 0.1542115, -0.0085603, 4.0095, 0.8574219, 4.0095, -0.6044922, 4.0095, 0.0771484, 0.1542115, -0.0052033, 4.0095, 0.3823242, 4.0095, -0.9428711, 4.0095, 0.1235352, 0.1542115, 0.0010071, 4.0095, -0.2709961, 4.0095, -0.9858398, 4.0095, 0.2338867, , , , , , , , , , , , , , , , , , , , , , 
0.1547308, 0.0198062, 4.023, -0.7167969, 4.023, -0.590332, 4.023, 0.3701172, 0.1547308, -0.0085603, 4.023, 0.8071289, 4.023, -0.5986328, 4.023, 0.1630859, 0.1547308, -0.0058747, 4.023, 0.3056641, 4.023, -0.9150391, 4.023, 0.1152344, 0.1547308, -0.0008392, 4.023, -0.293457, 4.023, -0.9643555, 4.023, 0.1733398, , , , , , , , , , , , , , , , , , , , , , 
0.15525, 0.0186313, 4.0365, -0.7802734, 4.0365, -0.550293, 4.0365, 0.347168, 0.15525, -0.0095674, 4.0365, 0.8261719, 4.0365, -0.5830078, 4.0365, 0.1982422, 0.15525, -0.0072175, 4.0365, 0.2280273, 4.0365, -0.9990234, 4.0365, 0.1303711, 0.15525, -0.0005035, 4.0365, -0.3359375, 4.0365, -0.9755859, 4.0365, 0.1333008, , , , , , , , , , , , , , , , , , , , , , 
0.1557692, 0.01561, 4.05, -0.8188477, 4.05, -0.5405273, 4.05, 0.3378906, 0.1557692, -0.0095674, 4.05, 0.9472656, 4.05, -0.5297852, 4.05, 0.1958008, 0.1557692, -0.0072175, 4.05, 0.1630859, 4.05, -1.050293, 4.05, 0.1308594, 0.1557692, -0.0008392, 4.05, -0.359375, 4.05, -1.0053711, 4.05, 0.1259766, , , , , , , , , , , , , , , , , , , , , , 
0.1562885, 0.01561, 4.0635, -0.8100586, 4.0635, -0.5585938, 4.0635, 0.3623047, 0.1562885, -0.0082246, 4.0635, 0.9326172, 4.0635, -0.5585938, 4.0635, 0.1186523, 0.1562885, -0.0065461, 4.0635, 0.2226562, 4.0635, -1.0019531, 4.0635, 0.1064453, 0.1562885, -0.0041962, 4.0635, -0.2768555, 4.0635, -0.980957, 4.0635, 0.1357422, , , , , , , , , , , , , , , , , , , , , , 
0.1568077, 0.0140993, 4.077, -0.6967773, 4.077, -0.5966797, 4.077, 0.3891602, 0.1568077, -0.0062104, 4.077, 0.7177734, 4.077, -0.5791016, 4.077, 0.1557617, 0.1568077, -0.0062104, 4.077, 0.2871094, 4.077, -0.9707031, 4.077, 0.0727539, 0.1568077, -0.0050355, 4.077, -0.2148438, 4.077, -0.9716797, 4.077, 0.128418, , , , , , , , , , , , , , , , , , , , , , 
0.1573269, 0.0129244, 4.0905, -0.7172852, 4.0905, -0.5654297, 4.0905, 0.3994141, 0.1573269, -0.0072175, 4.0905, 0.824707, 4.0905, -0.5361328, 4.0905, 0.1972656, 0.1573269, -0.0082246, 4.0905, 0.3754883, 4.0905, -0.934082, 4.0905, 0.0839844, 0.1573269, -0.0031891, 4.0905, -0.1928711, 4.0905, -0.9487305, 4.0905, 0.1235352, , , , , , , , , , , , , , , , , , , , , , 
0.1578462, 0.0115816, 4.104, -0.8217773, 4.104, -0.4868164, 4.104, 0.2885742, 0.1578462, -0.0068818, 4.104, 0.8886719, 4.104, -0.4819336, 4.104, 0.2285156, 0.1578462, -0.0115816, 4.104, 0.3212891, 4.104, -0.9697266, 4.104, 0.0498047, 0.1578462, -0.0015106, 4.104, -0.2338867, 4.104, -0.9467773, 4.104, 0.1303711, , , , , , , , , , , , , , , , , , , , , , 
0.1583654, 0.0082246, 4.1175, -0.8393555, 4.1175, -0.5722656, 4.1175, 0.3217773, 0.1583654, -0.0068818, 4.1175, 0.9179688, 4.1175, -0.5249023, 4.1175, 0.1914062, 0.1583654, -0.012253, 4.1175, 0.2241211, 4.1175, -1.0131836, 4.1175, 0.0136719, 0.1583654, -0.0023499, 4.1175, -0.2353516, 4.1175, -0.9633789, 4.1175, 0.1328125, , , , , , , , , , , , , , , , , , , , , , 
0.1588846, 0.0038605, 4.131, -0.7128906, 4.131, -0.6547852, 4.131, 0.3662109, 0.1588846, -0.0083925, 4.131, 0.8212891, 4.131, -0.6396484, 4.131, 0.1538086, 0.1588846, -0.010071, 4.131, 0.1855469, 4.131, -0.9941406, 4.131, 0.0288086, 0.1588846, -0.0031891, 4.131, -0.1508789, 4.131, -0.9741211, 4.131, 0.1269531, , , , , , , , , , , , , , , , , , , , , , 
0.1594038, 0.0045319, 4.1445, -0.6401367, 4.1445, -0.5947266, 4.1445, 0.3818359, 0.1594038, -0.0082246, 4.1445, 0.7915039, 4.1445, -0.5888672, 4.1445, 0.1386719, 0.1594038, -0.008896, 4.1445, 0.2661133, 4.1445, -0.9707031, 4.1445, 0.0126953, 0.1594038, -0.0028534, 4.1445, -0.0917969, 4.1445, -0.9794922, 4.1445, 0.1347656, , , , , , , , , , , , , , , , , , , , , , 
0.1599231, 0.0058747, 4.158, -0.6723633, 4.158, -0.5483398, 4.158, 0.3530273, 0.1599231, -0.0075532, 4.158, 0.7924805, 4.158, -0.5268555, 4.158, 0.1420898, 0.1599231, -0.0092317, 4.158, 0.3793945, 4.158, -0.9711914, 4.158, -0.0249023, 0.1599231, -0.0010071, 4.158, -0.097168, 4.158, -0.9833984, 4.158, 0.1357422, , , , , , , , , , , , , , , , , , , , , , 
0.1604423, 0.0011749, 4.1715, -0.7441406, 4.1715, -0.6000977, 4.1715, 0.3496094, 0.1604423, -0.0082246, 4.1715, 0.7900391, 4.1715, -0.5952148, 4.1715, 0.1318359, 0.1604423, -0.0102388, 4.1715, 0.4296875, 4.1715, -0.9594727, 4.1715, 0.0073242, 0.1604423, -0.0046998, 4.1715, -0.0727539, 4.1715, -0.9951172, 4.1715, 0.1181641, , , , , , , , , , , , , , , , , , , , , , 
0.1609615, -0.0062104, 4.185, -0.7548828, 4.185, -0.6230469, 4.185, 0.3569336, 0.1609615, -0.0097353, 4.185, 0.8178711, 4.185, -0.6303711, 4.185, 0.190918, 0.1609615, -0.0119173, 4.185, 0.3774414, 4.185, -0.9536133, 4.185, 0.0478516, 0.1609615, -0.012253, 4.185, -0.0717773, 4.185, -1.0004883, 4.185, 0.1196289, , , , , , , , , , , , , , , , , , , , , , 
0.1614808, -0.008896, 4.1985, -0.8149414, 4.1985, -0.543457, 4.1985, 0.3564453, 0.1614808, -0.0097353, 4.1985, 0.9008789, 4.1985, -0.5615234, 4.1985, 0.2016602, 0.1614808, -0.0115816, 4.1985, 0.3256836, 4.1985, -0.9716797, 4.1985, 0.0429688, 0.1614808, -0.018967, 4.1985, -0.1660156, 4.1985, -0.9970703, 4.1985, 0.137207, , , , , , , , , , , , , , , , , , , , , , 
0.162, -0.0112459, 4.212, -0.840332, 4.212, -0.5058594, 4.212, 0.3417969, 0.162, -0.0083925, 4.212, 0.9345703, 4.212, -0.5004883, 4.212, 0.1625977, 0.162, -0.0109102, 4.212, 0.2231445, 4.212, -1.0151367, 4.212, -0.0117188, 0.162, -0.0223239, 4.212, -0.2475586, 4.212, -0.9770508, 4.212, 0.1567383, , , , , , , , , , , , , , , , , , , , , , 
0.1625192, -0.0132601, 4.2255, -0.7963867, 4.2255, -0.5317383, 4.2255, 0.3256836, 0.1625192, -0.0078889, 4.2255, 0.7973633, 4.2255, -0.543457, 4.2255, 0.1591797, 0.1625192, -0.0104067, 4.2255, 0.2011719, 4.2255, -1.0136719, 4.2255, -0.0229492, 0.1625192, -0.0236667, 4.2255, -0.2133789, 4.2255, -0.9541016, 4.2255, 0.1704102, , , , , , , , , , , , , , , , , , , , , , 
0.1630385, -0.0117494, 4.239, -0.6860352, 4.239, -0.6088867, 4.239, 0.3291016, 0.1630385, -0.0082246, 4.239, 0.7216797, 4.239, -0.6142578, 4.239, 0.1669922, 0.1630385, -0.008896, 4.239, 0.2490234, 4.239, -0.9555664, 4.239, -0.0605469, 0.1630385, -0.023331, 4.239, -0.1455078, 4.239, -0.9438477, 4.239, 0.1630859, , , , , , , , , , , , , , , , , , , , , , 
0.1635577, -0.0082246, 4.2525, -0.6831055, 4.2525, -0.6235352, 4.2525, 0.3515625, 0.1635577, -0.0095674, 4.2525, 0.7392578, 4.2525, -0.6191406, 4.2525, 0.1669922, 0.1635577, -0.0102388, 4.2525, 0.2822266, 4.2525, -0.9208984, 4.2525, -0.0541992, 0.1635577, -0.0209812, 4.2525, -0.1142578, 4.2525, -0.9487305, 4.2525, 0.1289062, , , , , , , , , , , , , , , , , , , , , , 
0.1640769, -0.0075532, 4.266, -0.7700195, 4.266, -0.5180664, 4.266, 0.3447266, 0.1640769, -0.0115816, 4.266, 0.8173828, 4.266, -0.5297852, 4.266, 0.2329102, 0.1640769, -0.0112459, 4.266, 0.2773438, 4.266, -0.9770508, 4.266, 0.0063477, 0.1640769, -0.01561, 4.266, -0.1210938, 4.266, -0.9819336, 4.266, 0.1069336, , , , , , , , , , , , , , , , , , , , , , 
0.1645962, -0.0041962, 4.2795, -0.815918, 4.2795, -0.4106445, 4.2795, 0.3276367, 0.1645962, -0.0135958, 4.2795, 0.9023438, 4.2795, -0.4086914, 4.2795, 0.1894531, 0.1645962, -0.0102388, 4.2795, 0.2675781, 4.2795, -1.0629883, 4.2795, -0.0219727, 0.1645962, -0.0065461, 4.2795, -0.1240234, 4.2795, -1.0092773, 4.2795, 0.1386719, , , , , , , , , , , , , , , , , , , , , , 
0.1651154, 0.0011749, 4.293, -0.8203125, 4.293, -0.5024414, 4.293, 0.3369141, 0.1651154, -0.0137636, 4.293, 0.8710938, 4.293, -0.4824219, 4.293, 0.1767578, 0.1651154, -0.0090639, 4.293, 0.3237305, 4.293, -1.03125, 4.293, -0.0322266, 0.1651154, 0.0031891, 4.293, -0.0595703, 4.293, -0.9863281, 4.293, 0.0996094, , , , , , , , , , , , , , , , , , , , , , 
0.1656346, 0.0035248, 4.3065, -0.7504883, 4.3065, -0.5688477, 4.3065, 0.3452148, 0.1656346, -0.0109102, 4.3065, 0.7817383, 4.3065, -0.5615234, 4.3065, 0.1787109, 0.1656346, -0.0078889, 4.3065, 0.340332, 4.3065, -0.9580078, 4.3065, -0.0175781, 0.1656346, 0.0105745, 4.3065, -0.0327148, 4.3065, -0.9804688, 4.3065, 0.0893555, , , , , , , , , , , , , , , , , , , , , , 
0.1661538, 0.0085603, 4.32, -0.7470703, 4.32, -0.5288086, 4.32, 0.3647461, 0.1661538, -0.0062104, 4.32, 0.8007812, 4.32, -0.5268555, 4.32, 0.1660156, 0.1661538, -0.0078889, 4.32, 0.3310547, 4.32, -0.9453125, 4.32, -0.0234375, 0.1661538, 0.0152743, 4.32, -0.0986328, 4.32, -0.9614258, 4.32, 0.1206055, , , , , , , , , , , , , , , , , , , , , , 
0.1666731, 0.0172885, 4.3335, -0.7851562, 4.3335, -0.5097656, 4.3335, 0.3710938, 0.1666731, -0.0048676, 4.3335, 0.8510742, 4.3335, -0.5292969, 4.3335, 0.1435547, 0.1666731, -0.0075532, 4.3335, 0.3251953, 4.3335, -0.9487305, 4.3335, 0.0004883, 0.1666731, 0.021149, 4.3335, -0.1269531, 4.3335, -0.9458008, 4.3335, 0.1298828, , , , , , , , , , , , , , , , , , , , , , 
0.1671923, 0.0250095, 4.347, -0.7382812, 4.347, -0.4868164, 4.347, 0.3569336, 0.1671923, -0.0062104, 4.347, 0.8149414, 4.347, -0.4980469, 4.347, 0.1503906, 0.1671923, -0.0068818, 4.347, 0.3139648, 4.347, -0.9624023, 4.347, 0.0200195, 0.1671923, 0.0270237, 4.347, -0.1625977, 4.347, -0.9462891, 4.347, 0.1518555, , , , , , , , , , , , , , , , , , , , , , 
0.1677115, 0.0297093, 4.3605, -0.7373047, 4.3605, -0.4238281, 4.3605, 0.3300781, 0.1677115, -0.0077211, 4.3605, 0.7890625, 4.3605, -0.4082031, 4.3605, 0.2045898, 0.1677115, -0.0077211, 4.3605, 0.3061523, 4.3605, -0.940918, 4.3605, 0.0092773, 0.1677115, 0.030045, 4.3605, -0.1972656, 4.3605, -0.9287109, 4.3605, 0.1767578, , , , , , , , , , , , , , , , , , , , , , 
0.1682308, 0.0318914, 4.374, -0.7304688, 4.374, -0.4282227, 4.374, 0.3032227, 0.1682308, -0.0082246, 4.374, 0.7993164, 4.374, -0.4257812, 4.374, 0.0952148, 0.1682308, -0.0073854, 4.374, 0.2275391, 4.374, -0.9228516, 4.374, -0.0141602, 0.1682308, 0.0332341, 4.374, -0.2329102, 4.374, -0.9301758, 4.374, 0.1914062, , , , , , , , , , , , , , , , , , , , , , 
0.16875, 0.0317235, 4.3875, -0.6254883, 4.3875, -0.4516602, 4.3875, 0.3999023, 0.16875, -0.0062104, 4.3875, 0.6899414, 4.3875, -0.4980469, 4.3875, 0.1772461, 0.16875, -0.0068818, 4.3875, 0.2495117, 4.3875, -0.9389648, 4.3875, 0.0361328, 0.16875, 0.0377661, 4.3875, -0.2026367, 4.3875, -0.9379883, 4.3875, 0.1582031, , , , , , , , , , , , , , , , , , , , , , 
0.1692692, 0.0360876, 4.401, -0.7089844, 4.401, -0.3862305, 4.401, 0.4169922, 0.1692692, -0.0052033, 4.401, 0.8735352, 4.401, -0.3925781, 4.401, 0.1894531, 0.1692692, -0.0068818, 4.401, 0.2509766, 4.401, -0.9741211, 4.401, 0.1411133, 0.1692692, 0.040116, 4.401, -0.2563477, 4.401, -0.9365234, 4.401, 0.1254883, , , , , , , , , , , , , , , , , , , , , , 
0.1697885, 0.0428016, 4.4145, -0.8618164, 4.4145, -0.2304688, 4.4145, 0.3325195, 0.1697885, -0.0063783, 4.4145, 1.0131836, 4.4145, -0.284668, 4.4145, 0.203125, 0.1697885, -0.0075532, 4.4145, 0.2070312, 4.4145, -1.0297852, 4.4145, 0.1030273, 0.1697885, 0.0399481, 4.4145, -0.3491211, 4.4145, -0.9501953, 4.4145, 0.1655273, , , , , , , , , , , , , , , , , , , , , , 
0.1703077, 0.0387732, 4.428, -0.9101562, 4.428, -0.3652344, 4.428, 0.3388672, 0.1703077, -0.0063783, 4.428, 0.8862305, 4.428, -0.3925781, 4.428, 0.0605469, 0.1703077, -0.0075532, 4.428, 0.262207, 4.428, -1.0292969, 4.428, 0.0283203, 0.1703077, 0.036759, 4.428, -0.2885742, 4.428, -0.9780273, 4.428, 0.1655273, , , , , , , , , , , , , , , , , , , , , , 
0.1708269, 0.0313878, 4.4415, -0.7265625, 4.4415, -0.6357422, 4.4415, 0.3481445, 0.1708269, -0.005539, 4.4415, 0.6455078, 4.4415, -0.6035156, 4.4415, 0.1538086, 0.1708269, -0.0068818, 4.4415, 0.3642578, 4.4415, -0.9667969, 4.4415, -0.0107422, 0.1708269, 0.033402, 4.4415, -0.1269531, 4.4415, -1.0170898, 4.4415, 0.1625977, , , , , , , , , , , , , , , , , , , , , , 
