Application:, Trigno Discover (2.0.1.2)
Date/Time:, 5/14/2025 10:52:34 AM
Collection Length (seconds):, 46.278
Forearm 2 (83169), , , , , , , , Forearm 1 (82633), , , , , , , , Biceps (83254), , , , , , , , Triceps (83087)
sensor mode: 45, , , , , , , , sensor mode: 45, , , , , , , , sensor mode: 45, , , , , , , , sensor mode: 45
EMG 1 Time Series (s), EMG 1 (mV), ACC X Time Series (s), ACC X (G), ACC Y Time Series (s), ACC Y (G), ACC Z Time Series (s), ACC Z (G), EMG 1 Time Series (s), EMG 1 (mV), ACC X Time Series (s), ACC X (G), ACC Y Time Series (s), ACC Y (G), ACC Z Time Series (s), ACC Z (G), EMG 1 Time Series (s), EMG 1 (mV), ACC X Time Series (s), ACC X (G), ACC Y Time Series (s), ACC Y (G), ACC Z Time Series (s), ACC Z (G), EMG 1 Time Series (s), EMG 1 (mV), ACC X Time Series (s), ACC X (G), ACC Y Time Series (s), ACC Y (G), ACC Z Time Series (s), ACC Z (G)
, 1925.9259 Hz, , 74.0741 Hz, , 74.0741 Hz, , 74.0741 Hz, , 1925.9259 Hz, , 74.0741 Hz, , 74.0741 Hz, , 74.0741 Hz, , 1925.9259 Hz, , 74.0741 Hz, , 74.0741 Hz, , 74.0741 Hz, , 1925.9259 Hz, , 74.0741 Hz, , 74.0741 Hz, , 74.0741 Hz
, 0.0005192307692307692 s, , 0.0135 s, , 0.0135 s, , 0.0135 s, , 0.0005192307692307692 s, , 0.0135 s, , 0.0135 s, , 0.0135 s, , 0.0005192307692307692 s, , 0.0135 s, , 0.0135 s, , 0.0135 s, , 0.0005192307692307692 s, , 0.0135 s, , 0.0135 s, , 0.0135 s, , Type, Name, Label, Time (s), , Pair, E1, E2, T1, T2, V1, V2, Sensor, Channel, Units, Delta T, RMS, PKPK, Peak Value, TPK, Integral
0, -0.0072175, 0, -0.2915039, 0, -0.9951172, 0, 0.1206055, 0, -0.0085603, 0, 0.3608398, 0, -0.9599609, 0, -0.168457, 0, -0.0092317, 0, 0.1230469, 0, -1.0327148, 0, 0.0380859, 0, -0.0048676, 0, -0.2109375, 0, -1.0068359, 0, -0.0175781, , , , , , , , , , , , , , , , , , , , , , 
0.0005192, -0.0290379, 0.0135, -0.284668, 0.0135, -0.996582, 0.0135, 0.121582, 0.0005192, -0.0082246, 0.0135, 0.3618164, 0.0135, -0.9594727, 0.0135, -0.168457, 0.0005192, -0.0115816, 0.0135, 0.1181641, 0.0135, -1.0327148, 0.0135, 0.0356445, 0.0005192, -0.0159457, 0.0135, -0.2138672, 0.0135, -0.9990234, 0.0135, -0.0185547, , , , , , , , , , , , , , , , , , , , , , 
0.0010385, -0.0508583, 0.027, -0.284668, 0.027, -0.9921875, 0.027, 0.1166992, 0.0010385, -0.0102388, 0.027, 0.3574219, 0.027, -0.9545898, 0.027, -0.1704102, 0.0010385, -0.0130922, 0.027, 0.0957031, 0.027, -1.0224609, 0.027, 0.0224609, 0.0010385, -0.0238346, 0.027, -0.2148438, 0.027, -0.9941406, 0.027, -0.0200195, , , , , , , , , , , , , , , , , , , , , , 
0.0015577, -0.0673075, 0.0405, -0.2841797, 0.0405, -0.9838867, 0.0405, 0.1186523, 0.0015577, -0.0102388, 0.0405, 0.3369141, 0.0405, -0.9453125, 0.0405, -0.1757812, 0.0015577, -0.0139315, 0.0405, 0.081543, 0.0405, -1.0126953, 0.0405, 0.0131836, 0.0015577, -0.0263523, 0.0405, -0.2177734, 0.0405, -0.9892578, 0.0405, -0.0131836, , , , , , , , , , , , , , , , , , , , , , 
0.0020769, -0.0800641, 0.054, -0.2851562, 0.054, -0.9765625, 0.054, 0.1176758, 0.0020769, -0.008896, 0.054, 0.3251953, 0.054, -0.940918, 0.054, -0.1816406, 0.0020769, -0.0152743, 0.054, 0.0849609, 0.054, -1.0053711, 0.054, 0.0073242, 0.0020769, -0.0276951, 0.054, -0.2202148, 0.054, -0.984375, 0.054, -0.0024414, , , , , , , , , , , , , , , , , , , , , , 
0.0025962, -0.0854353, 0.0675, -0.2924805, 0.0675, -0.9726562, 0.0675, 0.1123047, 0.0025962, -0.0072175, 0.0675, 0.3134766, 0.0675, -0.9296875, 0.0675, -0.1894531, 0.0025962, -0.0164492, 0.0675, 0.090332, 0.0675, -1.0024414, 0.0675, 0.0063477, 0.0025962, -0.0273594, 0.0675, -0.2211914, 0.0675, -0.9819336, 0.0675, 0, , , , , , , , , , , , , , , , , , , , , , 
0.0031154, -0.0800641, 0.081, -0.293457, 0.081, -0.9716797, 0.081, 0.112793, 0.0031154, -0.0072175, 0.081, 0.3129883, 0.081, -0.9296875, 0.081, -0.1889648, 0.0031154, -0.0164492, 0.081, 0.0913086, 0.081, -1, 0.081, 0.0078125, 0.0031154, -0.0250095, 0.081, -0.2241211, 0.081, -0.9755859, 0.081, 0.003418, , , , , , , , , , , , , , , , , , , , , , 
0.0036346, -0.0716716, 0.0945, -0.2836914, 0.0945, -0.9711914, 0.0945, 0.1152344, 0.0036346, -0.0063783, 0.0945, 0.3168945, 0.0945, -0.9326172, 0.0945, -0.1860352, 0.0036346, -0.0149386, 0.0945, 0.0859375, 0.0945, -0.9985352, 0.0945, 0.0053711, 0.0036346, -0.018967, 0.0945, -0.2192383, 0.0945, -0.9726562, 0.0945, -0.0029297, , , , , , , , , , , , , , , , , , , , , , 
0.0041538, -0.0609293, 0.108, -0.2773438, 0.108, -0.9711914, 0.108, 0.1147461, 0.0041538, -0.0048676, 0.108, 0.3251953, 0.108, -0.9306641, 0.108, -0.1821289, 0.0041538, -0.0149386, 0.108, 0.0947266, 0.108, -0.9956055, 0.108, 0.0063477, 0.0041538, -0.0105745, 0.108, -0.2016602, 0.108, -0.9726562, 0.108, -0.0083008, , , , , , , , , , , , , , , , , , , , , , 
0.0046731, -0.0500191, 0.1215, -0.2666016, 0.1215, -0.9697266, 0.1215, 0.1181641, 0.0046731, -0.0030213, 0.1215, 0.3388672, 0.1215, -0.9291992, 0.1215, -0.1831055, 0.0046731, -0.01561, 0.1215, 0.1108398, 0.1215, -0.9975586, 0.1215, 0.0063477, 0.0046731, -0.0018463, 0.1215, -0.1884766, 0.1215, -0.9794922, 0.1215, -0.0092773, , , , , , , , , , , , , , , , , , , , , , 
0.0051923, -0.0412909, 0.135, -0.2641602, 0.135, -0.9726562, 0.135, 0.1230469, 0.0051923, -0.0025177, 0.135, 0.34375, 0.135, -0.9321289, 0.135, -0.184082, 0.0051923, -0.0130922, 0.135, 0.1171875, 0.135, -0.9995117, 0.135, 0.0112305, 0.0051923, 0.0065461, 0.135, -0.1899414, 0.135, -0.9814453, 0.135, -0.0083008, , , , , , , , , , , , , , , , , , , , , , 
0.0057115, -0.0293736, 0.1485, -0.2700195, 0.1485, -0.9790039, 0.1485, 0.1186523, 0.0057115, -0.0038605, 0.1485, 0.34375, 0.1485, -0.9355469, 0.1485, -0.1879883, 0.0057115, -0.0105745, 0.1485, 0.1162109, 0.1485, -1.0009766, 0.1485, 0.0161133, 0.0057115, 0.0146029, 0.1485, -0.1977539, 0.1485, -0.9824219, 0.1485, -0.0039062, , , , , , , , , , , , , , , , , , , , , , 
0.0062308, -0.0062104, 0.162, -0.269043, 0.162, -0.9829102, 0.162, 0.1186523, 0.0062308, -0.0052033, 0.162, 0.3339844, 0.162, -0.9365234, 0.162, -0.1904297, 0.0062308, -0.0102388, 0.162, 0.1166992, 0.162, -1.0043945, 0.162, 0.0170898, 0.0062308, 0.0238346, 0.162, -0.2045898, 0.162, -0.9853516, 0.162, -0.0024414, , , , , , , , , , , , , , , , , , , , , , 
0.00675, 0.0199741, 0.1755, -0.2666016, 0.1755, -0.9853516, 0.1755, 0.1254883, 0.00675, -0.0045319, 0.1755, 0.331543, 0.1755, -0.9389648, 0.1755, -0.1928711, 0.00675, -0.008896, 0.1755, 0.1191406, 0.1755, -1.0078125, 0.1755, 0.0195312, 0.00675, 0.0344091, 0.1755, -0.2036133, 0.1755, -0.9863281, 0.1755, -0.0039062, , , , , , , , , , , , , , , , , , , , , , 
0.0072692, 0.043473, 0.189, -0.269043, 0.189, -0.9848633, 0.189, 0.128418, 0.0072692, -0.0048676, 0.189, 0.3349609, 0.189, -0.9399414, 0.189, -0.1953125, 0.0072692, -0.0072175, 0.189, 0.1132812, 0.189, -1.0141602, 0.189, 0.0170898, 0.0072692, 0.04448, 0.189, -0.2045898, 0.189, -0.9902344, 0.189, 0.003418, , , , , , , , , , , , , , , , , , , , , , 
0.0077885, 0.0669718, 0.2025, -0.2700195, 0.2025, -0.9824219, 0.2025, 0.1240234, 0.0077885, -0.0043641, 0.2025, 0.3349609, 0.2025, -0.9389648, 0.2025, -0.1972656, 0.0077885, -0.0035248, 0.2025, 0.1103516, 0.2025, -1.0126953, 0.2025, 0.015625, 0.0077885, 0.0518654, 0.2025, -0.2080078, 0.2025, -0.9882812, 0.2025, 0.0078125, , , , , , , , , , , , , , , , , , , , , , 
0.0083077, 0.0830854, 0.216, -0.2631836, 0.216, -0.9799805, 0.216, 0.1259766, 0.0083077, -0.0058747, 0.216, 0.3286133, 0.216, -0.9375, 0.216, -0.1987305, 0.0083077, -0.0011749, 0.216, 0.109375, 0.216, -1.0073242, 0.216, 0.0097656, 0.0083077, 0.0552224, 0.216, -0.2099609, 0.216, -0.9853516, 0.216, 0.0097656, , , , , , , , , , , , , , , , , , , , , , 
0.0088269, 0.0948348, 0.2295, -0.2592773, 0.2295, -0.980957, 0.2295, 0.1269531, 0.0088269, -0.0078889, 0.2295, 0.3295898, 0.2295, -0.9316406, 0.2295, -0.2026367, 0.0088269, -0.0010071, 0.2295, 0.1088867, 0.2295, -0.9985352, 0.2295, 0.0053711, 0.0088269, 0.0575723, 0.2295, -0.2104492, 0.2295, -0.980957, 0.2295, 0.0151367, , , , , , , , , , , , , , , , , , , , , , 
0.0093462, 0.1067521, 0.243, -0.253418, 0.243, -0.9785156, 0.243, 0.1269531, 0.0093462, -0.0082246, 0.243, 0.3334961, 0.243, -0.9306641, 0.243, -0.2036133, 0.0093462, -0.0016785, 0.243, 0.1103516, 0.243, -0.9980469, 0.243, 0.0029297, 0.0093462, 0.0607614, 0.243, -0.2075195, 0.243, -0.9794922, 0.243, 0.012207, , , , , , , , , , , , , , , , , , , , , , 
0.0098654, 0.1132982, 0.2565, -0.2485352, 0.2565, -0.9799805, 0.2565, 0.1303711, 0.0098654, -0.008896, 0.2565, 0.3320312, 0.2565, -0.9355469, 0.2565, -0.2050781, 0.0098654, -0.0015106, 0.2565, 0.1181641, 0.2565, -1.0019531, 0.2565, 0.0063477, 0.0098654, 0.0595865, 0.2565, -0.199707, 0.2565, -0.9814453, 0.2565, 0.0126953, , , , , , , , , , , , , , , , , , , , , , 
0.0103846, 0.105745, 0.27, -0.2485352, 0.27, -0.9790039, 0.27, 0.1323242, 0.0103846, -0.0099031, 0.27, 0.3217773, 0.27, -0.934082, 0.27, -0.2084961, 0.0103846, 0.0003357, 0.27, 0.1235352, 0.27, -1, 0.27, 0.0068359, 0.0103846, 0.0522011, 0.27, -0.1904297, 0.27, -0.9824219, 0.27, 0.012207, , , , , , , , , , , , , , , , , , , , , , 
0.0109038, 0.0897993, 0.2835, -0.253418, 0.2835, -0.9785156, 0.2835, 0.1318359, 0.0109038, -0.0095674, 0.2835, 0.3237305, 0.2835, -0.9291992, 0.2835, -0.2099609, 0.0109038, 0.0001678, 0.2835, 0.1367188, 0.2835, -0.996582, 0.2835, 0.0112305, 0.0109038, 0.0428016, 0.2835, -0.1879883, 0.2835, -0.9804688, 0.2835, 0.0131836, , , , , , , , , , , , , , , , , , , , , , 
0.0114231, 0.0763714, 0.297, -0.2573242, 0.297, -0.9785156, 0.297, 0.1279297, 0.0114231, -0.0075532, 0.297, 0.3266602, 0.297, -0.9282227, 0.297, -0.2080078, 0.0114231, -0.0015106, 0.297, 0.1396484, 0.297, -0.9980469, 0.297, 0.0151367, 0.0114231, 0.0352483, 0.297, -0.1948242, 0.297, -0.9824219, 0.297, 0.012207, , , , , , , , , , , , , , , , , , , , , , 
0.0119423, 0.0669718, 0.3105, -0.2587891, 0.3105, -0.9750977, 0.3105, 0.1318359, 0.0119423, -0.0078889, 0.3105, 0.3271484, 0.3105, -0.9301758, 0.3105, -0.2075195, 0.0119423, -0.0031891, 0.3105, 0.1357422, 0.3105, -1.0029297, 0.3105, 0.0166016, 0.0119423, 0.0293736, 0.3105, -0.1987305, 0.3105, -0.9824219, 0.3105, 0.0107422, , , , , , , , , , , , , , , , , , , , , , 
0.0124615, 0.0572366, 0.324, -0.2583008, 0.324, -0.9804688, 0.324, 0.1323242, 0.0124615, -0.0092317, 0.324, 0.3320312, 0.324, -0.9316406, 0.324, -0.2075195, 0.0124615, -0.0035248, 0.324, 0.1254883, 0.324, -1.0039062, 0.324, 0.0170898, 0.0124615, 0.0226596, 0.324, -0.2075195, 0.324, -0.9838867, 0.324, 0.0175781, , , , , , , , , , , , , , , , , , , , , , 
0.0129808, 0.0495155, 0.3375, -0.2529297, 0.3375, -0.9794922, 0.3375, 0.1367188, 0.0129808, -0.0092317, 0.3375, 0.3364258, 0.3375, -0.9321289, 0.3375, -0.2084961, 0.0129808, -0.002182, 0.3375, 0.1123047, 0.3375, -1.0048828, 0.3375, 0.0151367, 0.0129808, 0.0139315, 0.3375, -0.2099609, 0.3375, -0.9838867, 0.3375, 0.0180664, , , , , , , , , , , , , , , , , , , , , , 
0.0135, 0.0439765, 0.351, -0.2514648, 0.351, -0.9770508, 0.351, 0.1347656, 0.0135, -0.0095674, 0.351, 0.3374023, 0.351, -0.9296875, 0.351, -0.2099609, 0.0135, -0.0025177, 0.351, 0.1166992, 0.351, -1.003418, 0.351, 0.0146484, 0.0135, 0.0102388, 0.351, -0.2114258, 0.351, -0.9833984, 0.351, 0.015625, , , , , , , , , , , , , , , , , , , , , , 
0.0140192, 0.0394446, 0.3645, -0.2529297, 0.3645, -0.9794922, 0.3645, 0.137207, 0.0140192, -0.0095674, 0.3645, 0.3354492, 0.3645, -0.9267578, 0.3645, -0.2084961, 0.0140192, -0.0041962, 0.3645, 0.1162109, 0.3645, -1.0014648, 0.3645, 0.015625, 0.0140192, 0.0105745, 0.3645, -0.2138672, 0.3645, -0.9804688, 0.3645, 0.0170898, , , , , , , , , , , , , , , , , , , , , , 
0.0145385, 0.0360876, 0.378, -0.2558594, 0.378, -0.9799805, 0.378, 0.1411133, 0.0145385, -0.0092317, 0.378, 0.3330078, 0.378, -0.9267578, 0.378, -0.2114258, 0.0145385, -0.0035248, 0.378, 0.1171875, 0.378, -1.0009766, 0.378, 0.0102539, 0.0145385, 0.0092317, 0.378, -0.2182617, 0.378, -0.9799805, 0.378, 0.0180664, , , , , , , , , , , , , , , , , , , , , , 
0.0150577, 0.0307164, 0.3915, -0.2617188, 0.3915, -0.9775391, 0.3915, 0.1401367, 0.0150577, -0.0085603, 0.3915, 0.3291016, 0.3915, -0.9287109, 0.3915, -0.2143555, 0.0150577, -0.0035248, 0.3915, 0.1245117, 0.3915, -1.0073242, 0.3915, 0.0136719, 0.0150577, 0.0052033, 0.3915, -0.2075195, 0.3915, -0.9887695, 0.3915, 0.0175781, , , , , , , , , , , , , , , , , , , , , , 
0.0155769, 0.0213169, 0.405, -0.2612305, 0.405, -0.9790039, 0.405, 0.1323242, 0.0155769, -0.0062104, 0.405, 0.3339844, 0.405, -0.9287109, 0.405, -0.2084961, 0.0155769, -0.0045319, 0.405, 0.1259766, 0.405, -1.0097656, 0.405, 0.0180664, 0.0155769, 0.0036927, 0.405, -0.2011719, 0.405, -0.9853516, 0.405, 0.0175781, , , , , , , , , , , , , , , , , , , , , , 
0.0160962, 0.0112459, 0.4185, -0.2514648, 0.4185, -0.9824219, 0.4185, 0.1367188, 0.0160962, -0.005539, 0.4185, 0.3334961, 0.4185, -0.9301758, 0.4185, -0.2089844, 0.0160962, -0.0065461, 0.4185, 0.1254883, 0.4185, -1.0024414, 0.4185, 0.019043, 0.0160962, 0.0057069, 0.4185, -0.2080078, 0.4185, -0.9814453, 0.4185, 0.0209961, , , , , , , , , , , , , , , , , , , , , , 
0.0166154, 0.005539, 0.432, -0.25, 0.432, -0.9799805, 0.432, 0.1420898, 0.0166154, -0.0063783, 0.432, 0.3330078, 0.432, -0.9326172, 0.432, -0.2124023, 0.0166154, -0.0062104, 0.432, 0.1367188, 0.432, -0.9990234, 0.432, 0.0151367, 0.0166154, 0.0058747, 0.432, -0.2045898, 0.432, -0.9819336, 0.432, 0.015625, , , , , , , , , , , , , , , , , , , , , , 
0.0171346, 0.0052033, 0.4455, -0.25, 0.4455, -0.9765625, 0.4455, 0.1420898, 0.0171346, -0.0082246, 0.4455, 0.3378906, 0.4455, -0.9282227, 0.4455, -0.2143555, 0.0171346, -0.0058747, 0.4455, 0.140625, 0.4455, -0.9985352, 0.4455, 0.015625, 0.0171346, 0.0050355, 0.4455, -0.2016602, 0.4455, -0.9829102, 0.4455, 0.0200195, , , , , , , , , , , , , , , , , , , , , , 
0.0176538, 0.0045319, 0.459, -0.2470703, 0.459, -0.9775391, 0.459, 0.1416016, 0.0176538, -0.0099031, 0.459, 0.3393555, 0.459, -0.9248047, 0.459, -0.2192383, 0.0176538, -0.0068818, 0.459, 0.1357422, 0.459, -0.9970703, 0.459, 0.0161133, 0.0176538, 0.0038605, 0.459, -0.2045898, 0.459, -0.9799805, 0.459, 0.0200195, , , , , , , , , , , , , , , , , , , , , , 
0.0181731, 0.0031891, 0.4725, -0.2475586, 0.4725, -0.9780273, 0.4725, 0.144043, 0.0181731, -0.0092317, 0.4725, 0.3354492, 0.4725, -0.9301758, 0.4725, -0.21875, 0.0181731, -0.0082246, 0.4725, 0.1289062, 0.4725, -0.996582, 0.4725, 0.0151367, 0.0181731, 0.0035248, 0.4725, -0.2094727, 0.4725, -0.9868164, 0.4725, 0.019043, , , , , , , , , , , , , , , , , , , , , , 
0.0186923, 0.0011749, 0.486, -0.2612305, 0.486, -0.9765625, 0.486, 0.1464844, 0.0186923, -0.0065461, 0.486, 0.3295898, 0.486, -0.9326172, 0.486, -0.2143555, 0.0186923, -0.008896, 0.486, 0.1308594, 0.486, -1.0019531, 0.486, 0.0200195, 0.0186923, 0.0035248, 0.486, -0.2109375, 0.486, -0.9912109, 0.486, 0.0209961, , , , , , , , , , , , , , , , , , , , , , 
0.0192115, -0.0008392, 0.4995, -0.2753906, 0.4995, -0.9770508, 0.4995, 0.1450195, 0.0192115, -0.0062104, 0.4995, 0.3374023, 0.4995, -0.9296875, 0.4995, -0.2124023, 0.0192115, -0.0095674, 0.4995, 0.1196289, 0.4995, -1.0087891, 0.4995, 0.027832, 0.0192115, 0.0045319, 0.4995, -0.222168, 0.4995, -0.984375, 0.4995, 0.0234375, , , , , , , , , , , , , , , , , , , , , , 
0.0197308, -0.0041962, 0.513, -0.2680664, 0.513, -0.9804688, 0.513, 0.1376953, 0.0197308, -0.0068818, 0.513, 0.3427734, 0.513, -0.9306641, 0.513, -0.2099609, 0.0197308, -0.0082246, 0.513, 0.1103516, 0.513, -1.0058594, 0.513, 0.0302734, 0.0197308, 0.0025177, 0.513, -0.2319336, 0.513, -0.9794922, 0.513, 0.0253906, , , , , , , , , , , , , , , , , , , , , , 
0.02025, -0.0216526, 0.5265, -0.253418, 0.5265, -0.9746094, 0.5265, 0.1455078, 0.02025, -0.0075532, 0.5265, 0.3378906, 0.5265, -0.9301758, 0.5265, -0.2114258, 0.02025, -0.0075532, 0.5265, 0.1196289, 0.5265, -1.0004883, 0.5265, 0.0209961, 0.02025, -0.0068818, 0.5265, -0.2304688, 0.5265, -0.9785156, 0.5265, 0.0258789, , , , , , , , , , , , , , , , , , , , , , 
0.0207692, -0.0431373, 0.54, -0.2514648, 0.54, -0.9731445, 0.54, 0.1484375, 0.0207692, -0.0085603, 0.54, 0.3393555, 0.54, -0.9277344, 0.54, -0.2114258, 0.0207692, -0.008896, 0.54, 0.1298828, 0.54, -0.9975586, 0.54, 0.0209961, 0.0207692, -0.0182956, 0.54, -0.2226562, 0.54, -0.9794922, 0.54, 0.0258789, , , , , , , , , , , , , , , , , , , , , , 
0.0212885, -0.0585794, 0.5535, -0.2548828, 0.5535, -0.9707031, 0.5535, 0.1450195, 0.0212885, -0.0085603, 0.5535, 0.3486328, 0.5535, -0.9208984, 0.5535, -0.2119141, 0.0212885, -0.0095674, 0.5535, 0.1264648, 0.5535, -0.996582, 0.5535, 0.0258789, 0.0212885, -0.0236667, 0.5535, -0.2163086, 0.5535, -0.9770508, 0.5535, 0.0239258, , , , , , , , , , , , , , , , , , , , , , 
0.0218077, -0.0760357, 0.567, -0.2563477, 0.567, -0.9643555, 0.567, 0.1455078, 0.0218077, -0.008896, 0.567, 0.3486328, 0.567, -0.9189453, 0.567, -0.2119141, 0.0218077, -0.0104067, 0.567, 0.1264648, 0.567, -0.9921875, 0.567, 0.0268555, 0.0218077, -0.0253452, 0.567, -0.215332, 0.567, -0.9716797, 0.567, 0.0195312, , , , , , , , , , , , , , , , , , , , , , 
0.0223269, -0.0871138, 0.5805, -0.2617188, 0.5805, -0.9624023, 0.5805, 0.1508789, 0.0223269, -0.0092317, 0.5805, 0.3374023, 0.5805, -0.9199219, 0.5805, -0.2099609, 0.0223269, -0.012253, 0.5805, 0.1313477, 0.5805, -0.9897461, 0.5805, 0.0288086, 0.0223269, -0.0270237, 0.5805, -0.2109375, 0.5805, -0.9736328, 0.5805, 0.0209961, , , , , , , , , , , , , , , , , , , , , , 
0.0228462, -0.0894636, 0.594, -0.2651367, 0.594, -0.9638672, 0.594, 0.1494141, 0.0228462, -0.0095674, 0.594, 0.3339844, 0.594, -0.9179688, 0.594, -0.2119141, 0.0228462, -0.0130922, 0.594, 0.1342773, 0.594, -0.9912109, 0.594, 0.0356445, 0.0228462, -0.0270237, 0.594, -0.2167969, 0.594, -0.9765625, 0.594, 0.0288086, , , , , , , , , , , , , , , , , , , , , , 
0.0233654, -0.0849317, 0.6075, -0.269043, 0.6075, -0.9663086, 0.6075, 0.1469727, 0.0233654, -0.0105745, 0.6075, 0.3427734, 0.6075, -0.9208984, 0.6075, -0.2114258, 0.0233654, -0.0125887, 0.6075, 0.1264648, 0.6075, -0.9970703, 0.6075, 0.0351562, 0.0233654, -0.0218204, 0.6075, -0.2275391, 0.6075, -0.9716797, 0.6075, 0.0288086, , , , , , , , , , , , , , , , , , , , , , 
0.0238846, -0.0743572, 0.621, -0.2661133, 0.621, -0.9677734, 0.621, 0.1474609, 0.0238846, -0.0114137, 0.621, 0.3417969, 0.621, -0.9238281, 0.621, -0.2089844, 0.0238846, -0.0115816, 0.621, 0.1259766, 0.621, -0.996582, 0.621, 0.0273438, 0.0238846, -0.0132601, 0.621, -0.2255859, 0.621, -0.9702148, 0.621, 0.0258789, , , , , , , , , , , , , , , , , , , , , , 
0.0244038, -0.0626078, 0.6345, -0.2612305, 0.6345, -0.9648438, 0.6345, 0.1464844, 0.0244038, -0.010071, 0.6345, 0.34375, 0.6345, -0.9199219, 0.6345, -0.206543, 0.0244038, -0.0112459, 0.6345, 0.1279297, 0.6345, -0.9912109, 0.6345, 0.0283203, 0.0244038, -0.0063783, 0.6345, -0.21875, 0.6345, -0.96875, 0.6345, 0.0288086, , , , , , , , , , , , , , , , , , , , , , 
0.0249231, -0.0480049, 0.648, -0.2563477, 0.648, -0.9633789, 0.648, 0.1459961, 0.0249231, -0.0104067, 0.648, 0.34375, 0.648, -0.9140625, 0.648, -0.2114258, 0.0249231, -0.0117494, 0.648, 0.1308594, 0.648, -0.9868164, 0.648, 0.0302734, 0.0249231, -0.0005035, 0.648, -0.2172852, 0.648, -0.9667969, 0.648, 0.0341797, , , , , , , , , , , , , , , , , , , , , , 
0.0254423, -0.0303807, 0.6615, -0.2558594, 0.6615, -0.9628906, 0.6615, 0.1503906, 0.0254423, -0.0135958, 0.6615, 0.34375, 0.6615, -0.9140625, 0.6615, -0.2138672, 0.0254423, -0.0099031, 0.6615, 0.1386719, 0.6615, -0.9848633, 0.6615, 0.0302734, 0.0254423, 0.0078889, 0.6615, -0.2192383, 0.6615, -0.96875, 0.6615, 0.034668, , , , , , , , , , , , , , , , , , , , , , 
0.0259615, -0.01561, 0.675, -0.2626953, 0.675, -0.9624023, 0.675, 0.1547852, 0.0259615, -0.014435, 0.675, 0.3413086, 0.675, -0.9169922, 0.675, -0.2158203, 0.0259615, -0.008896, 0.675, 0.1435547, 0.675, -0.9887695, 0.675, 0.0327148, 0.0259615, 0.0169528, 0.675, -0.2197266, 0.675, -0.972168, 0.675, 0.0380859, , , , , , , , , , , , , , , , , , , , , , 
0.0264808, -0.0018463, 0.6885, -0.2661133, 0.6885, -0.9619141, 0.6885, 0.1577148, 0.0264808, -0.0125887, 0.6885, 0.3374023, 0.6885, -0.9213867, 0.6885, -0.2182617, 0.0264808, -0.0072175, 0.6885, 0.1425781, 0.6885, -0.987793, 0.6885, 0.0341797, 0.0264808, 0.026688, 0.6885, -0.2163086, 0.6885, -0.972168, 0.6885, 0.0410156, , , , , , , , , , , , , , , , , , , , , , 
0.027, 0.0164492, 0.702, -0.2641602, 0.702, -0.9550781, 0.702, 0.1611328, 0.027, -0.0102388, 0.702, 0.3408203, 0.702, -0.9145508, 0.702, -0.2211914, 0.027, -0.0058747, 0.702, 0.1435547, 0.702, -0.9814453, 0.702, 0.0375977, 0.027, 0.0377661, 0.702, -0.21875, 0.702, -0.9672852, 0.702, 0.0488281, , , , , , , , , , , , , , , , , , , , , , 
0.0275192, 0.0379339, 0.7155, -0.2543945, 0.7155, -0.9511719, 0.7155, 0.1689453, 0.0275192, -0.008896, 0.7155, 0.3452148, 0.7155, -0.9077148, 0.7155, -0.2294922, 0.0275192, -0.0075532, 0.7155, 0.1474609, 0.7155, -0.9799805, 0.7155, 0.0405273, 0.0275192, 0.0461585, 0.7155, -0.2304688, 0.7155, -0.9594727, 0.7155, 0.0512695, , , , , , , , , , , , , , , , , , , , , , 
0.0280385, 0.0629435, 0.729, -0.2563477, 0.729, -0.9516602, 0.729, 0.1708984, 0.0280385, -0.008896, 0.729, 0.3515625, 0.729, -0.9042969, 0.729, -0.2304688, 0.0280385, -0.0085603, 0.729, 0.152832, 0.729, -0.9804688, 0.729, 0.0449219, 0.0280385, 0.0532082, 0.729, -0.2348633, 0.729, -0.9550781, 0.729, 0.0561523, , , , , , , , , , , , , , , , , , , , , , 
0.0285577, 0.0850996, 0.7425, -0.2558594, 0.7425, -0.9506836, 0.7425, 0.1713867, 0.0285577, -0.0099031, 0.7425, 0.3588867, 0.7425, -0.9038086, 0.7425, -0.2246094, 0.0285577, -0.0070497, 0.7425, 0.1513672, 0.7425, -0.9838867, 0.7425, 0.0439453, 0.0285577, 0.0602579, 0.7425, -0.2290039, 0.7425, -0.949707, 0.7425, 0.0566406, , , , , , , , , , , , , , , , , , , , , , 
0.0290769, 0.1005417, 0.756, -0.246582, 0.756, -0.9428711, 0.756, 0.1811523, 0.0290769, -0.008896, 0.756, 0.3642578, 0.756, -0.8959961, 0.756, -0.2260742, 0.0290769, -0.0048676, 0.756, 0.1513672, 0.756, -0.9750977, 0.756, 0.0385742, 0.0290769, 0.0641184, 0.756, -0.2124023, 0.756, -0.9438477, 0.756, 0.0605469, , , , , , , , , , , , , , , , , , , , , , 
0.0295962, 0.1097734, 0.7695, -0.2402344, 0.7695, -0.9389648, 0.7695, 0.1845703, 0.0295962, -0.0078889, 0.7695, 0.3681641, 0.7695, -0.8823242, 0.7695, -0.2333984, 0.0295962, -0.005539, 0.7695, 0.1640625, 0.7695, -0.9619141, 0.7695, 0.0429688, 0.0295962, 0.0636149, 0.7695, -0.2055664, 0.7695, -0.9418945, 0.7695, 0.0668945, , , , , , , , , , , , , , , , , , , , , , 
0.0301154, 0.1089342, 0.783, -0.2319336, 0.783, -0.9326172, 0.783, 0.184082, 0.0301154, -0.0085603, 0.783, 0.3701172, 0.783, -0.8764648, 0.783, -0.2451172, 0.0301154, -0.0062104, 0.783, 0.1806641, 0.783, -0.953125, 0.783, 0.0463867, 0.0301154, 0.0582437, 0.783, -0.2075195, 0.783, -0.9370117, 0.783, 0.0668945, , , , , , , , , , , , , , , , , , , , , , 
0.0306346, 0.0985275, 0.7965, -0.2402344, 0.7965, -0.9355469, 0.7965, 0.1962891, 0.0306346, -0.0090639, 0.7965, 0.3671875, 0.7965, -0.8769531, 0.7965, -0.2470703, 0.0306346, -0.0048676, 0.7965, 0.1884766, 0.7965, -0.9580078, 0.7965, 0.0512695, 0.0306346, 0.0495155, 0.7965, -0.2192383, 0.7965, -0.9375, 0.7965, 0.0717773, , , , , , , , , , , , , , , , , , , , , , 
0.0311538, 0.0847639, 0.81, -0.2514648, 0.81, -0.9375, 0.81, 0.1904297, 0.0311538, -0.0083925, 0.81, 0.3608398, 0.81, -0.8847656, 0.81, -0.2460938, 0.0311538, -0.0036927, 0.81, 0.1884766, 0.81, -0.9667969, 0.81, 0.0639648, 0.0311538, 0.0387732, 0.81, -0.2246094, 0.81, -0.9404297, 0.81, 0.0717773, , , , , , , , , , , , , , , , , , , , , , 
0.0316731, 0.072343, 0.8235, -0.2602539, 0.8235, -0.9443359, 0.8235, 0.1914062, 0.0316731, -0.0085603, 0.8235, 0.359375, 0.8235, -0.8974609, 0.8235, -0.246582, 0.0316731, -0.0038605, 0.8235, 0.1894531, 0.8235, -0.9741211, 0.8235, 0.0703125, 0.0316731, 0.0320592, 0.8235, -0.234375, 0.8235, -0.9511719, 0.8235, 0.0737305, , , , , , , , , , , , , , , , , , , , , , 
0.0321923, 0.0629435, 0.837, -0.262207, 0.837, -0.9501953, 0.837, 0.1962891, 0.0321923, -0.0068818, 0.837, 0.3696289, 0.837, -0.9086914, 0.837, -0.2431641, 0.0321923, -0.0041962, 0.837, 0.1860352, 0.837, -0.9770508, 0.837, 0.0712891, 0.0321923, 0.0263523, 0.837, -0.2470703, 0.837, -0.9619141, 0.837, 0.0810547, , , , , , , , , , , , , , , , , , , , , , 
0.0327115, 0.0562295, 0.8505, -0.2695312, 0.8505, -0.9487305, 0.8505, 0.2041016, 0.0327115, -0.0058747, 0.8505, 0.3823242, 0.8505, -0.9072266, 0.8505, -0.2358398, 0.0327115, -0.005539, 0.8505, 0.1728516, 0.8505, -0.9829102, 0.8505, 0.074707, 0.0327115, 0.0208133, 0.8505, -0.2597656, 0.8505, -0.9614258, 0.8505, 0.0869141, , , , , , , , , , , , , , , , , , , , , , 
0.0332308, 0.0495155, 0.864, -0.2783203, 0.864, -0.9277344, 0.864, 0.2080078, 0.0332308, -0.0062104, 0.864, 0.3881836, 0.864, -0.8901367, 0.864, -0.2294922, 0.0332308, -0.0048676, 0.864, 0.1616211, 0.864, -0.9770508, 0.864, 0.0810547, 0.0332308, 0.0167849, 0.864, -0.2705078, 0.864, -0.9501953, 0.864, 0.0878906, , , , , , , , , , , , , , , , , , , , , , 
0.03375, 0.0441444, 0.8775, -0.2768555, 0.8775, -0.9155273, 0.8775, 0.1992188, 0.03375, -0.0062104, 0.8775, 0.3901367, 0.8775, -0.8696289, 0.8775, -0.2285156, 0.03375, -0.0035248, 0.8775, 0.1455078, 0.8775, -0.9667969, 0.8775, 0.0893555, 0.03375, 0.0139315, 0.8775, -0.2880859, 0.8775, -0.9326172, 0.8775, 0.0874023, , , , , , , , , , , , , , , , , , , , , , 
0.0342692, 0.0428016, 0.891, -0.2729492, 0.891, -0.9106445, 0.891, 0.1967773, 0.0342692, -0.0065461, 0.891, 0.3818359, 0.891, -0.8666992, 0.891, -0.2265625, 0.0342692, -0.0041962, 0.891, 0.1416016, 0.891, -0.9584961, 0.891, 0.0957031, 0.0342692, 0.0119173, 0.891, -0.3061523, 0.891, -0.921875, 0.891, 0.0878906, , , , , , , , , , , , , , , , , , , , , , 
0.0347885, 0.0407874, 0.9045, -0.2714844, 0.9045, -0.9057617, 0.9045, 0.1948242, 0.0347885, -0.0068818, 0.9045, 0.3686523, 0.9045, -0.8725586, 0.9045, -0.2202148, 0.0347885, -0.0052033, 0.9045, 0.1469727, 0.9045, -0.9526367, 0.9045, 0.0961914, 0.0347885, 0.0105745, 0.9045, -0.3051758, 0.9045, -0.9194336, 0.9045, 0.0834961, , , , , , , , , , , , , , , , , , , , , , 
0.0353077, 0.0305486, 0.918, -0.2739258, 0.918, -0.9052734, 0.918, 0.1845703, 0.0353077, -0.0072175, 0.918, 0.3662109, 0.918, -0.871582, 0.918, -0.2182617, 0.0353077, -0.0065461, 0.918, 0.1523438, 0.918, -0.9477539, 0.918, 0.0947266, 0.0353077, 0.0072175, 0.918, -0.2910156, 0.918, -0.9165039, 0.918, 0.0791016, , , , , , , , , , , , , , , , , , , , , , 
0.0358269, 0.0216526, 0.9315, -0.2719727, 0.9315, -0.8984375, 0.9315, 0.1738281, 0.0358269, -0.0083925, 0.9315, 0.3632812, 0.9315, -0.859375, 0.9315, -0.2094727, 0.0358269, -0.0072175, 0.9315, 0.1479492, 0.9315, -0.9379883, 0.9315, 0.097168, 0.0358269, 0.0036927, 0.9315, -0.2768555, 0.9315, -0.9101562, 0.9315, 0.0766602, , , , , , , , , , , , , , , , , , , , , , 
0.0363462, 0.0169528, 0.945, -0.2695312, 0.945, -0.8896484, 0.945, 0.1640625, 0.0363462, -0.0075532, 0.945, 0.3598633, 0.945, -0.8486328, 0.945, -0.1962891, 0.0363462, -0.0068818, 0.945, 0.1416016, 0.945, -0.9189453, 0.945, 0.0898438, 0.0363462, 0.002182, 0.945, -0.2651367, 0.945, -0.8964844, 0.945, 0.0644531, , , , , , , , , , , , , , , , , , , , , , 
0.0368654, 0.0139315, 0.9585, -0.2558594, 0.9585, -0.8764648, 0.9585, 0.1582031, 0.0368654, -0.0062104, 0.9585, 0.3466797, 0.9585, -0.8417969, 0.9585, -0.2011719, 0.0368654, -0.0062104, 0.9585, 0.1489258, 0.9585, -0.8984375, 0.9585, 0.0805664, 0.0368654, 0.002182, 0.9585, -0.2646484, 0.9585, -0.8876953, 0.9585, 0.0605469, , , , , , , , , , , , , , , , , , , , , , 
0.0373846, 0.0135958, 0.972, -0.2456055, 0.972, -0.8623047, 0.972, 0.1567383, 0.0373846, -0.0052033, 0.972, 0.3300781, 0.972, -0.8354492, 0.972, -0.2021484, 0.0373846, -0.0075532, 0.972, 0.1557617, 0.972, -0.8911133, 0.972, 0.0810547, 0.0373846, 0.0011749, 0.972, -0.2578125, 0.972, -0.8774414, 0.972, 0.0537109, , , , , , , , , , , , , , , , , , , , , , 
0.0379038, 0.0132601, 0.9855, -0.2255859, 0.9855, -0.8491211, 0.9855, 0.1401367, 0.0379038, -0.0058747, 0.9855, 0.3188477, 0.9855, -0.8208008, 0.9855, -0.199707, 0.0379038, -0.0095674, 0.9855, 0.1547852, 0.9855, -0.8779297, 0.9855, 0.0874023, 0.0379038, 0.0011749, 0.9855, -0.2573242, 0.9855, -0.8647461, 0.9855, 0.0458984, , , , , , , , , , , , , , , , , , , , , , 
0.0384231, 0.0119173, 0.999, -0.2124023, 0.999, -0.8413086, 0.999, 0.1308594, 0.0384231, -0.0068818, 0.999, 0.3095703, 0.999, -0.8085938, 0.999, -0.1953125, 0.0384231, -0.0112459, 0.999, 0.140625, 0.999, -0.8535156, 0.999, 0.0913086, 0.0384231, 0.0005035, 0.999, -0.2583008, 0.999, -0.8564453, 0.999, 0.0336914, , , , , , , , , , , , , , , , , , , , , , 
0.0389423, 0.0078889, 1.0125, -0.2143555, 1.0125, -0.8378906, 1.0125, 0.1279297, 0.0389423, -0.0082246, 1.0125, 0.2885742, 1.0125, -0.8056641, 1.0125, -0.1953125, 0.0389423, -0.0149386, 1.0125, 0.1132812, 1.0125, -0.8359375, 1.0125, 0.0854492, 0.0389423, -0.0001678, 1.0125, -0.2700195, 1.0125, -0.8515625, 1.0125, 0.0161133, , , , , , , , , , , , , , , , , , , , , , 
0.0394615, 0.0011749, 1.026, -0.2412109, 1.026, -0.84375, 1.026, 0.1162109, 0.0394615, -0.0102388, 1.026, 0.2749023, 1.026, -0.8105469, 1.026, -0.1884766, 0.0394615, -0.0159457, 1.026, 0.0805664, 1.026, -0.8422852, 1.026, 0.0800781, 0.0394615, -0.0015106, 1.026, -0.2919922, 1.026, -0.8608398, 1.026, -0.0195312, , , , , , , , , , , , , , , , , , , , , , 
0.0399808, -0.0142672, 1.0395, -0.293457, 1.0395, -0.8740234, 1.0395, 0.1069336, 0.0399808, -0.008896, 1.0395, 0.2744141, 1.0395, -0.8232422, 1.0395, -0.1870117, 0.0399808, -0.0124208, 1.0395, 0.0322266, 1.0395, -0.8823242, 1.0395, 0.0708008, 0.0399808, -0.0048676, 1.0395, -0.324707, 1.0395, -0.8979492, 1.0395, -0.0625, , , , , , , , , , , , , , , , , , , , , , 
0.0405, -0.0394446, 1.053, -0.3642578, 1.053, -0.9370117, 1.053, 0.1020508, 0.0405, -0.0068818, 1.053, 0.2817383, 1.053, -0.8642578, 1.053, -0.171875, 0.0405, -0.0109102, 1.053, -0.0361328, 1.053, -0.9711914, 1.053, 0.0566406, 0.0405, -0.0137636, 1.053, -0.3432617, 1.053, -0.9726562, 1.053, -0.1040039, , , , , , , , , , , , , , , , , , , , , , 
0.0410192, -0.0599222, 1.0665, -0.4233398, 1.0665, -1.0161133, 1.0665, 0.0844727, 0.0410192, -0.0077211, 1.0665, 0.3056641, 1.0665, -0.9360352, 1.0665, -0.1425781, 0.0410192, -0.012253, 1.0665, -0.1123047, 1.0665, -1.0869141, 1.0665, 0.0356445, 0.0410192, -0.0213169, 1.0665, -0.3305664, 1.0665, -1.0595703, 1.0665, -0.1518555, , , , , , , , , , , , , , , , , , , , , , 
0.0415385, -0.0663005, 1.08, -0.449707, 1.08, -1.0810547, 1.08, 0.0566406, 0.0415385, -0.0073854, 1.08, 0.3583984, 1.08, -1.0151367, 1.08, -0.0991211, 0.0415385, -0.0135958, 1.08, -0.1645508, 1.08, -1.1791992, 1.08, 0.0214844, 0.0415385, -0.0236667, 1.08, -0.2651367, 1.08, -1.1245117, 1.08, -0.1875, , , , , , , , , , , , , , , , , , , , , , 
0.0420577, -0.073518, 1.0935, -0.4404297, 1.0935, -1.0981445, 1.0935, 0.0478516, 0.0420577, -0.0075532, 1.0935, 0.4057617, 1.0935, -1.0693359, 1.0935, -0.0561523, 0.0420577, -0.0149386, 1.0935, -0.1459961, 1.0935, -1.1953125, 1.0935, 0.0078125, 0.0420577, -0.026688, 1.0935, -0.1796875, 1.0935, -1.1333008, 1.0935, -0.2084961, , , , , , , , , , , , , , , , , , , , , , 
0.0425769, -0.0864424, 1.107, -0.3769531, 1.107, -1.1030273, 1.107, 0.027832, 0.0425769, -0.0082246, 1.107, 0.4072266, 1.107, -1.0805664, 1.107, -0.0488281, 0.0425769, -0.0162814, 1.107, -0.1083984, 1.107, -1.1743164, 1.107, -0.0014648, 0.0425769, -0.0293736, 1.107, -0.1479492, 1.107, -1.1196289, 1.107, -0.2114258, , , , , , , , , , , , , , , , , , , , , , 
0.0430962, -0.0921492, 1.1205, -0.2939453, 1.1205, -1.0742188, 1.1205, 0.034668, 0.0430962, -0.0090639, 1.1205, 0.3706055, 1.1205, -1.0512695, 1.1205, -0.0737305, 0.0430962, -0.0169528, 1.1205, 0.0097656, 1.1205, -1.1088867, 1.1205, -0.0219727, 0.0430962, -0.0253452, 1.1205, -0.0961914, 1.1205, -1.0795898, 1.1205, -0.1879883, , , , , , , , , , , , , , , , , , , , , , 
0.0436154, -0.0854353, 1.134, -0.2446289, 1.134, -1.0375977, 1.134, 0.0380859, 0.0436154, -0.008896, 1.134, 0.3364258, 1.134, -1.0058594, 1.134, -0.1005859, 0.0436154, -0.0159457, 1.134, 0.1547852, 1.134, -1.0473633, 1.134, -0.0297852, 0.0436154, -0.0179599, 1.134, -0.0527344, 1.134, -1.0483398, 1.134, -0.137207, , , , , , , , , , , , , , , , , , , , , , 
0.0441346, -0.0746929, 1.1475, -0.2373047, 1.1475, -1.0136719, 1.1475, 0.0317383, 0.0441346, -0.0095674, 1.1475, 0.3061523, 1.1475, -0.9643555, 1.1475, -0.121582, 0.0441346, -0.012253, 1.1475, 0.2446289, 1.1475, -1.0097656, 1.1475, -0.03125, 0.0441346, -0.012253, 1.1475, -0.0302734, 1.1475, -1.0219727, 1.1475, -0.0913086, , , , , , , , , , , , , , , , , , , , , , 
0.0446538, -0.0597543, 1.161, -0.2294922, 1.161, -1.0039062, 1.161, 0.0249023, 0.0446538, -0.0102388, 1.161, 0.2910156, 1.161, -0.9521484, 1.161, -0.1313477, 0.0446538, -0.0105745, 1.161, 0.2441406, 1.161, -0.9858398, 1.161, -0.0463867, 0.0446538, -0.005539, 1.161, -0.0332031, 1.161, -1.0019531, 1.161, -0.0649414, , , , , , , , , , , , , , , , , , , , , , 
0.0451731, -0.043473, 1.1745, -0.2182617, 1.1745, -0.9956055, 1.1745, 0.0200195, 0.0451731, -0.0078889, 1.1745, 0.262207, 1.1745, -0.9443359, 1.1745, -0.1376953, 0.0451731, -0.012253, 1.1745, 0.1699219, 1.1745, -0.9697266, 1.1745, -0.0771484, 0.0451731, 0.0030213, 1.1745, -0.0561523, 1.1745, -0.9863281, 1.1745, -0.050293, , , , , , , , , , , , , , , , , , , , , , 
0.0456923, -0.0317235, 1.188, -0.2045898, 1.188, -0.9814453, 1.188, 0.0136719, 0.0456923, -0.0058747, 1.188, 0.25, 1.188, -0.9296875, 1.188, -0.1333008, 0.0456923, -0.0135958, 1.188, 0.0537109, 1.188, -0.9555664, 1.188, -0.1079102, 0.0456923, 0.0104067, 1.188, -0.0668945, 1.188, -0.9628906, 1.188, -0.0522461, , , , , , , , , , , , , , , , , , , , , , 
0.0462115, -0.0166171, 1.2015, -0.1767578, 1.2015, -0.9560547, 1.2015, 0.0048828, 0.0462115, -0.0062104, 1.2015, 0.2490234, 1.2015, -0.9038086, 1.2015, -0.1313477, 0.0462115, -0.0129244, 1.2015, -0.0229492, 1.2015, -0.9204102, 1.2015, -0.1245117, 0.0462115, 0.0176242, 1.2015, -0.0517578, 1.2015, -0.925293, 1.2015, -0.0761719, , , , , , , , , , , , , , , , , , , , , , 
0.0467308, 0.0112459, 1.215, -0.1650391, 1.215, -0.921875, 1.215, 0.0073242, 0.0467308, -0.0072175, 1.215, 0.2236328, 1.215, -0.8745117, 1.215, -0.1455078, 0.0467308, -0.0095674, 1.215, -0.0351562, 1.215, -0.8808594, 1.215, -0.1499023, 0.0467308, 0.0273594, 1.215, -0.0288086, 1.215, -0.8916016, 1.215, -0.0898438, , , , , , , , , , , , , , , , , , , , , , 
0.04725, 0.0414588, 1.2285, -0.190918, 1.2285, -0.8994141, 1.2285, 0.0063477, 0.04725, -0.0082246, 1.2285, 0.175293, 1.2285, -0.847168, 1.2285, -0.1655273, 0.04725, -0.0070497, 1.2285, -0.0214844, 1.2285, -0.8652344, 1.2285, -0.1669922, 0.04725, 0.0387732, 1.2285, -0.0209961, 1.2285, -0.8696289, 1.2285, -0.0888672, , , , , , , , , , , , , , , , , , , , , , 
0.0477692, 0.0616007, 1.242, -0.2172852, 1.242, -0.8920898, 1.242, -0.0063477, 0.0477692, -0.0068818, 1.242, 0.1347656, 1.242, -0.8300781, 1.242, -0.175293, 0.0477692, -0.0048676, 1.242, 0.0185547, 1.242, -0.8554688, 1.242, -0.1860352, 0.0477692, 0.0493477, 1.242, 0.0068359, 1.242, -0.8632812, 1.242, -0.0776367, , , , , , , , , , , , , , , , , , , , , , 
0.0482885, 0.0782177, 1.2555, -0.2119141, 1.2555, -0.8876953, 1.2555, -0.0195312, 0.0482885, -0.0048676, 1.2555, 0.1152344, 1.2555, -0.8120117, 1.2555, -0.1748047, 0.0482885, -0.0041962, 1.2555, 0.0639648, 1.2555, -0.8530273, 1.2555, -0.1831055, 0.0482885, 0.0558938, 1.2555, 0.0336914, 1.2555, -0.8623047, 1.2555, -0.0751953, , , , , , , , , , , , , , , , , , , , , , 
0.0488077, 0.0918135, 1.269, -0.1650391, 1.269, -0.8896484, 1.269, -0.0180664, 0.0488077, -0.0068818, 1.269, 0.137207, 1.269, -0.8100586, 1.269, -0.1757812, 0.0488077, -0.0038605, 1.269, 0.1005859, 1.269, -0.8461914, 1.269, -0.1860352, 0.0488077, 0.0592508, 1.269, 0.0830078, 1.269, -0.8647461, 1.269, -0.0844727, , , , , , , , , , , , , , , , , , , , , , 
0.0493269, 0.1062486, 1.2825, -0.1352539, 1.2825, -0.9155273, 1.2825, 0.0073242, 0.0493269, -0.0095674, 1.2825, 0.1567383, 1.2825, -0.8212891, 1.2825, -0.1831055, 0.0493269, -0.0041962, 1.2825, 0.1225586, 1.2825, -0.8574219, 1.2825, -0.1962891, 0.0493269, 0.0622721, 1.2825, 0.1118164, 1.2825, -0.8725586, 1.2825, -0.0976562, , , , , , , , , , , , , , , , , , , , , , 
0.0498462, 0.1169909, 1.296, -0.1367188, 1.296, -0.9243164, 1.296, 0.0317383, 0.0498462, -0.0095674, 1.296, 0.1967773, 1.296, -0.8510742, 1.296, -0.1948242, 0.0498462, -0.0045319, 1.296, 0.1274414, 1.296, -0.875, 1.296, -0.2001953, 0.0498462, 0.0614328, 1.296, 0.1630859, 1.296, -0.8720703, 1.296, -0.0976562, , , , , , , , , , , , , , , , , , , , , , 
0.0503654, 0.1156481, 1.3095, -0.1181641, 1.3095, -0.8828125, 1.3095, 0.027832, 0.0503654, -0.0109102, 1.3095, 0.1943359, 1.3095, -0.8442383, 1.3095, -0.2021484, 0.0503654, -0.0015106, 1.3095, 0.1430664, 1.3095, -0.8378906, 1.3095, -0.1787109, 0.0503654, 0.054551, 1.3095, 0.2270508, 1.3095, -0.8583984, 1.3095, -0.0615234, , , , , , , , , , , , , , , , , , , , , , 
0.0508846, 0.1025559, 1.323, -0.050293, 1.323, -0.8266602, 1.323, 0.0385742, 0.0508846, -0.0109102, 1.323, 0.1567383, 1.323, -0.7749023, 1.323, -0.2348633, 0.0508846, -0.0001678, 1.323, 0.1879883, 1.323, -0.7636719, 1.323, -0.1577148, 0.0508846, 0.0431373, 1.323, 0.2216797, 1.323, -0.8188477, 1.323, 0.0029297, , , , , , , , , , , , , , , , , , , , , , 
0.0514038, 0.0897993, 1.3365, -0.0083008, 1.3365, -0.7836914, 1.3365, 0.0708008, 0.0514038, -0.0105745, 1.3365, 0.1538086, 1.3365, -0.7119141, 1.3365, -0.2602539, 0.0514038, -0.0035248, 1.3365, 0.2568359, 1.3365, -0.7128906, 1.3365, -0.1616211, 0.0514038, 0.0337377, 1.3365, 0.137207, 1.3365, -0.7583008, 1.3365, 0.0732422, , , , , , , , , , , , , , , , , , , , , , 
0.0519231, 0.079057, 1.35, -0.0219727, 1.35, -0.765625, 1.35, 0.09375, 0.0519231, -0.0105745, 1.35, 0.1801758, 1.35, -0.6884766, 1.35, -0.2651367, 0.0519231, -0.0068818, 1.35, 0.3442383, 1.35, -0.7099609, 1.35, -0.1508789, 0.0519231, 0.0290379, 1.35, 0.0405273, 1.35, -0.7006836, 1.35, 0.1254883, , , , , , , , , , , , , , , , , , , , , , 
0.0524423, 0.0686503, 1.3635, -0.0424805, 1.3635, -0.7939453, 1.3635, 0.1142578, 0.0524423, -0.0099031, 1.3635, 0.2182617, 1.3635, -0.7133789, 1.3635, -0.2744141, 0.0524423, -0.0068818, 1.3635, 0.3764648, 1.3635, -0.7207031, 1.3635, -0.1328125, 0.0524423, 0.0223239, 1.3635, -0.0317383, 1.3635, -0.7080078, 1.3635, 0.1601562, , , , , , , , , , , , , , , , , , , , , , 
0.0529615, 0.0569009, 1.377, -0.050293, 1.377, -0.8491211, 1.377, 0.1323242, 0.0529615, -0.0102388, 1.377, 0.2446289, 1.377, -0.7773438, 1.377, -0.2924805, 0.0529615, -0.0072175, 1.377, 0.3959961, 1.377, -0.7788086, 1.377, -0.09375, 0.0529615, 0.0146029, 1.377, -0.046875, 1.377, -0.7885742, 1.377, 0.1811523, , , , , , , , , , , , , , , , , , , , , , 
0.0534808, 0.0461585, 1.3905, -0.0400391, 1.3905, -0.8603516, 1.3905, 0.1210938, 0.0534808, -0.0095674, 1.3905, 0.2456055, 1.3905, -0.8222656, 1.3905, -0.2963867, 0.0534808, -0.0085603, 1.3905, 0.3359375, 1.3905, -0.8349609, 1.3905, -0.0605469, 0.0534808, 0.0112459, 1.3905, -0.0507812, 1.3905, -0.8554688, 1.3905, 0.2163086, , , , , , , , , , , , , , , , , , , , , , 
0.054, 0.0417945, 1.404, -0.046875, 1.404, -0.8486328, 1.404, 0.1459961, 0.054, -0.0070497, 1.404, 0.2338867, 1.404, -0.8295898, 1.404, -0.3017578, 0.054, -0.0068818, 1.404, 0.2480469, 1.404, -0.8535156, 1.404, -0.0585938, 0.054, 0.0092317, 1.404, -0.0571289, 1.404, -0.8847656, 1.404, 0.2480469, , , , , , , , , , , , , , , , , , , , , , 
0.0545192, 0.040116, 1.4175, -0.0698242, 1.4175, -0.8339844, 1.4175, 0.1474609, 0.0545192, -0.005539, 1.4175, 0.1821289, 1.4175, -0.8139648, 1.4175, -0.3227539, 0.0545192, -0.005539, 1.4175, 0.2114258, 1.4175, -0.8374023, 1.4175, -0.0795898, 0.0545192, 0.0082246, 1.4175, -0.0620117, 1.4175, -0.8779297, 1.4175, 0.2568359, , , , , , , , , , , , , , , , , , , , , , 
0.0550385, 0.0339055, 1.431, -0.0825195, 1.431, -0.8310547, 1.431, 0.1430664, 0.0550385, -0.0062104, 1.431, 0.1352539, 1.431, -0.7817383, 1.431, -0.340332, 0.0550385, -0.005539, 1.431, 0.2368164, 1.431, -0.8032227, 1.431, -0.1054688, 0.0550385, 0.0062104, 1.431, -0.0893555, 1.431, -0.8300781, 1.431, 0.2661133, , , , , , , , , , , , , , , , , , , , , , 
0.0555577, 0.0293736, 1.4445, -0.0693359, 1.4445, -0.8496094, 1.4445, 0.1469727, 0.0555577, -0.0058747, 1.4445, 0.1352539, 1.4445, -0.7675781, 1.4445, -0.3696289, 0.0555577, -0.0052033, 1.4445, 0.2841797, 1.4445, -0.784668, 1.4445, -0.1416016, 0.0555577, 0.0048676, 1.4445, -0.09375, 1.4445, -0.7885742, 1.4445, 0.2412109, , , , , , , , , , , , , , , , , , , , , , 
0.0560769, 0.0307164, 1.458, -0.0488281, 1.458, -0.8671875, 1.458, 0.1616211, 0.0560769, -0.005539, 1.458, 0.1694336, 1.458, -0.793457, 1.458, -0.3710938, 0.0560769, -0.0041962, 1.458, 0.3173828, 1.458, -0.800293, 1.458, -0.1611328, 0.0560769, 0.0052033, 1.458, -0.0380859, 1.458, -0.7744141, 1.458, 0.2084961, , , , , , , , , , , , , , , , , , , , , , 
0.0565962, 0.0290379, 1.4715, -0.0439453, 1.4715, -0.8520508, 1.4715, 0.1586914, 0.0565962, -0.0068818, 1.4715, 0.1958008, 1.4715, -0.8129883, 1.4715, -0.3466797, 0.0565962, -0.0041962, 1.4715, 0.3291016, 1.4715, -0.8203125, 1.4715, -0.1494141, 0.0565962, 0.0045319, 1.4715, 0.0405273, 1.4715, -0.796875, 1.4715, 0.1928711, , , , , , , , , , , , , , , , , , , , , , 
0.0571154, 0.0240024, 1.485, -0.0224609, 1.485, -0.8330078, 1.485, 0.15625, 0.0571154, -0.0072175, 1.485, 0.1850586, 1.485, -0.7885742, 1.485, -0.3422852, 0.0571154, -0.0041962, 1.485, 0.3359375, 1.485, -0.815918, 1.485, -0.1376953, 0.0571154, 0.0008392, 1.485, 0.09375, 1.485, -0.8457031, 1.485, 0.2026367, , , , , , , , , , , , , , , , , , , , , , 
0.0576346, 0.0181277, 1.4985, -0.0087891, 1.4985, -0.8295898, 1.4985, 0.1474609, 0.0576346, -0.0062104, 1.4985, 0.1665039, 1.4985, -0.7646484, 1.4985, -0.3398438, 0.0576346, -0.0048676, 1.4985, 0.3466797, 1.4985, -0.7895508, 1.4985, -0.1293945, 0.0576346, -0.0003357, 1.4985, 0.0961914, 1.4985, -0.8579102, 1.4985, 0.2133789, , , , , , , , , , , , , , , , , , , , , , 
0.0581538, 0.0132601, 1.512, -0.0288086, 1.512, -0.8491211, 1.512, 0.137207, 0.0581538, -0.0058747, 1.512, 0.144043, 1.512, -0.7729492, 1.512, -0.3417969, 0.0581538, -0.0062104, 1.512, 0.3432617, 1.512, -0.7680664, 1.512, -0.1591797, 0.0581538, -0.0008392, 1.512, 0.1020508, 1.512, -0.8232422, 1.512, 0.1811523, , , , , , , , , , , , , , , , , , , , , , 
0.0586731, 0.0095674, 1.5255, -0.0351562, 1.5255, -0.8647461, 1.5255, 0.1137695, 0.0586731, -0.0073854, 1.5255, 0.1401367, 1.5255, -0.7836914, 1.5255, -0.3442383, 0.0586731, -0.0062104, 1.5255, 0.324707, 1.5255, -0.7792969, 1.5255, -0.2114258, 0.0586731, -0.0001678, 1.5255, 0.1611328, 1.5255, -0.7958984, 1.5255, 0.1352539, , , , , , , , , , , , , , , , , , , , , , 
0.0591923, 0.0072175, 1.539, -0.0205078, 1.539, -0.862793, 1.539, 0.0986328, 0.0591923, -0.0072175, 1.539, 0.1416016, 1.539, -0.8012695, 1.539, -0.3339844, 0.0591923, -0.0068818, 1.539, 0.2998047, 1.539, -0.7993164, 1.539, -0.2543945, 0.0591923, 0.0003357, 1.539, 0.2446289, 1.539, -0.7885742, 1.539, 0.1196289, , , , , , , , , , , , , , , , , , , , , , 
0.0597115, -0.0031891, 1.5525, -0.0068359, 1.5525, -0.8398438, 1.5525, 0.0830078, 0.0597115, -0.0062104, 1.5525, 0.140625, 1.5525, -0.7978516, 1.5525, -0.3178711, 0.0597115, -0.0078889, 1.5525, 0.2709961, 1.5525, -0.7988281, 1.5525, -0.2753906, 0.0597115, -0.002182, 1.5525, 0.2617188, 1.5525, -0.7792969, 1.5525, 0.1210938, , , , , , , , , , , , , , , , , , , , , , 
0.0602308, -0.0243381, 1.566, 0.0180664, 1.566, -0.8291016, 1.566, 0.0834961, 0.0602308, -0.0062104, 1.566, 0.1210938, 1.566, -0.7739258, 1.566, -0.3105469, 0.0602308, -0.0073854, 1.566, 0.2543945, 1.566, -0.7607422, 1.566, -0.2817383, 0.0602308, -0.0102388, 1.566, 0.2363281, 1.566, -0.7695312, 1.566, 0.1289062, , , , , , , , , , , , , , , , , , , , , , 
0.06075, -0.047837, 1.5795, 0.0253906, 1.5795, -0.8427734, 1.5795, 0.0849609, 0.06075, -0.0063783, 1.5795, 0.1064453, 1.5795, -0.75, 1.5795, -0.3242188, 0.06075, -0.0078889, 1.5795, 0.2524414, 1.5795, -0.7275391, 1.5795, -0.2739258, 0.06075, -0.018967, 1.5795, 0.1616211, 1.5795, -0.7626953, 1.5795, 0.1416016, , , , , , , , , , , , , , , , , , , , , , 
0.0612692, -0.0659648, 1.593, 0.0151367, 1.593, -0.855957, 1.593, 0.0854492, 0.0612692, -0.0057069, 1.593, 0.1108398, 1.593, -0.7646484, 1.593, -0.3232422, 0.0612692, -0.0092317, 1.593, 0.2333984, 1.593, -0.7495117, 1.593, -0.2641602, 0.0612692, -0.0248417, 1.593, 0.1337891, 1.593, -0.769043, 1.593, 0.1352539, , , , , , , , , , , , , , , , , , , , , , 
0.0617885, -0.0750286, 1.6065, -0.0288086, 1.6065, -0.8793945, 1.6065, 0.0673828, 0.0617885, -0.0062104, 1.6065, 0.1206055, 1.6065, -0.8129883, 1.6065, -0.2958984, 0.0617885, -0.0112459, 1.6065, 0.1943359, 1.6065, -0.8105469, 1.6065, -0.2739258, 0.0617885, -0.0270237, 1.6065, 0.1542969, 1.6065, -0.7773438, 1.6065, 0.0991211, , , , , , , , , , , , , , , , , , , , , , 
0.0623077, -0.0820783, 1.62, -0.0673828, 1.62, -0.8984375, 1.62, 0.050293, 0.0623077, -0.0058747, 1.62, 0.1069336, 1.62, -0.8603516, 1.62, -0.277832, 0.0623077, -0.0142672, 1.62, 0.1787109, 1.62, -0.84375, 1.62, -0.2827148, 0.0623077, -0.0303807, 1.62, 0.2060547, 1.62, -0.8232422, 1.62, 0.0795898, , , , , , , , , , , , , , , , , , , , , , 
0.0628269, -0.0854353, 1.6335, -0.0766602, 1.6335, -0.9389648, 1.6335, 0.0488281, 0.0628269, -0.0043641, 1.6335, 0.1054688, 1.6335, -0.9003906, 1.6335, -0.2773438, 0.0628269, -0.0152743, 1.6335, 0.1787109, 1.6335, -0.8999023, 1.6335, -0.3066406, 0.0628269, -0.0307164, 1.6335, 0.2558594, 1.6335, -0.902832, 1.6335, 0.078125, , , , , , , , , , , , , , , , , , , , , , 
0.0633462, -0.0834211, 1.647, -0.0595703, 1.647, -0.9897461, 1.647, 0.0698242, 0.0633462, -0.005539, 1.647, 0.1191406, 1.647, -0.9174805, 1.647, -0.2807617, 0.0633462, -0.0176242, 1.647, 0.21875, 1.647, -0.9345703, 1.647, -0.3227539, 0.0633462, -0.0273594, 1.647, 0.2856445, 1.647, -0.9624023, 1.647, 0.0615234, , , , , , , , , , , , , , , , , , , , , , 
0.0638654, -0.0775463, 1.6605, -0.050293, 1.6605, -1.0273438, 1.6605, 0.0668945, 0.0638654, -0.0068818, 1.6605, 0.1743164, 1.6605, -0.9467773, 1.6605, -0.2763672, 0.0638654, -0.0182956, 1.6605, 0.2685547, 1.6605, -0.9614258, 1.6605, -0.3183594, 0.0638654, -0.0196384, 1.6605, 0.3007812, 1.6605, -0.9741211, 1.6605, 0.0302734, , , , , , , , , , , , , , , , , , , , , , 
0.0643846, -0.0673075, 1.674, -0.0522461, 1.674, -1.0507812, 1.674, 0.043457, 0.0643846, -0.0058747, 1.674, 0.2084961, 1.674, -0.9697266, 1.674, -0.2636719, 0.0643846, -0.0152743, 1.674, 0.2773438, 1.674, -0.9799805, 1.674, -0.3178711, 0.0643846, -0.0082246, 1.674, 0.3227539, 1.674, -0.9624023, 1.674, 0.0063477, , , , , , , , , , , , , , , , , , , , , , 
0.0649038, -0.0513619, 1.6875, -0.0424805, 1.6875, -1.0664062, 1.6875, 0.0356445, 0.0649038, -0.0058747, 1.6875, 0.190918, 1.6875, -0.980957, 1.6875, -0.2573242, 0.0649038, -0.012253, 1.6875, 0.2431641, 1.6875, -0.9916992, 1.6875, -0.3413086, 0.0649038, 0.0028534, 1.6875, 0.3603516, 1.6875, -0.9628906, 1.6875, -0.0058594, , , , , , , , , , , , , , , , , , , , , , 
0.0654231, -0.0354162, 1.701, -0.043457, 1.701, -1.0629883, 1.701, 0.0327148, 0.0654231, -0.005539, 1.701, 0.1474609, 1.701, -0.9907227, 1.701, -0.2524414, 0.0654231, -0.0102388, 1.701, 0.1855469, 1.701, -0.9946289, 1.701, -0.3754883, 0.0654231, 0.0102388, 1.701, 0.387207, 1.701, -0.9785156, 1.701, 0.0009766, , , , , , , , , , , , , , , , , , , , , , 
0.0659423, -0.0206455, 1.7145, -0.0629883, 1.7145, -1.0649414, 1.7145, 0.0307617, 0.0659423, -0.005539, 1.7145, 0.1367188, 1.7145, -1.0068359, 1.7145, -0.2504883, 0.0659423, -0.0090639, 1.7145, 0.1455078, 1.7145, -0.9970703, 1.7145, -0.3911133, 0.0659423, 0.0176242, 1.7145, 0.3896484, 1.7145, -0.9853516, 1.7145, 0.0039062, , , , , , , , , , , , , , , , , , , , , , 
0.0664615, -0.0001678, 1.728, -0.0751953, 1.728, -1.0849609, 1.728, 0.0205078, 0.0664615, -0.0068818, 1.728, 0.1430664, 1.728, -1.0219727, 1.728, -0.2636719, 0.0664615, -0.0075532, 1.728, 0.1538086, 1.728, -1.0009766, 1.728, -0.3666992, 0.0664615, 0.0260166, 1.728, 0.3461914, 1.728, -0.9995117, 1.728, 0.0102539, , , , , , , , , , , , , , , , , , , , , , 
0.0669808, 0.0240024, 1.7415, -0.0581055, 1.7415, -1.1005859, 1.7415, 0.0332031, 0.0669808, -0.0099031, 1.7415, 0.1303711, 1.7415, -1.0244141, 1.7415, -0.2724609, 0.0669808, -0.005539, 1.7415, 0.1787109, 1.7415, -1.0004883, 1.7415, -0.3378906, 0.0669808, 0.0377661, 1.7415, 0.2646484, 1.7415, -1.0117188, 1.7415, 0.0375977, , , , , , , , , , , , , , , , , , , , , , 
0.0675, 0.0464942, 1.755, -0.0458984, 1.755, -1.1010742, 1.755, 0.0307617, 0.0675, -0.0117494, 1.755, 0.1196289, 1.755, -1.0151367, 1.755, -0.2729492, 0.0675, -0.0043641, 1.755, 0.1889648, 1.755, -1.0019531, 1.755, -0.331543, 0.0675, 0.0501869, 1.755, 0.237793, 1.755, -1.0073242, 1.755, 0.0395508, , , , , , , , , , , , , , , , , , , , , , 
0.0680192, 0.0642863, 1.7685, -0.0551758, 1.7685, -1.0786133, 1.7685, 0.0244141, 0.0680192, -0.0095674, 1.7685, 0.1191406, 1.7685, -1.0112305, 1.7685, -0.2705078, 0.0680192, -0.0038605, 1.7685, 0.2011719, 1.7685, -0.9951172, 1.7685, -0.3334961, 0.0680192, 0.057908, 1.7685, 0.2719727, 1.7685, -0.9975586, 1.7685, 0.0366211, , , , , , , , , , , , , , , , , , , , , , 
0.0685385, 0.0803998, 1.782, -0.0664062, 1.782, -1.0600586, 1.782, 0.0288086, 0.0685385, -0.0078889, 1.782, 0.137207, 1.782, -1.0107422, 1.782, -0.2578125, 0.0685385, -0.002182, 1.782, 0.222168, 1.782, -0.9912109, 1.782, -0.3295898, 0.0685385, 0.0609293, 1.782, 0.2929688, 1.782, -0.9946289, 1.782, 0.0322266, , , , , , , , , , , , , , , , , , , , , , 
0.0690577, 0.0970169, 1.7955, -0.0717773, 1.7955, -1.0712891, 1.7955, 0.0371094, 0.0690577, -0.0082246, 1.7955, 0.15625, 1.7955, -1.0170898, 1.7955, -0.2456055, 0.0690577, -0.0015106, 1.7955, 0.253418, 1.7955, -1.0039062, 1.7955, -0.3105469, 0.0690577, 0.0609293, 1.7955, 0.2963867, 1.7955, -1.0029297, 1.7955, 0.0297852, , , , , , , , , , , , , , , , , , , , , , 
0.0695769, 0.110277, 1.809, -0.0424805, 1.809, -1.081543, 1.809, 0.0449219, 0.0695769, -0.0085603, 1.809, 0.1738281, 1.809, -1.019043, 1.809, -0.2485352, 0.0695769, -0.0015106, 1.809, 0.262207, 1.809, -1.0131836, 1.809, -0.296875, 0.0695769, 0.0622721, 1.809, 0.3041992, 1.809, -1.0083008, 1.809, 0.0288086, , , , , , , , , , , , , , , , , , , , , , 
0.0700962, 0.1143053, 1.8225, -0.0327148, 1.8225, -1.0683594, 1.8225, 0.0380859, 0.0700962, -0.0102388, 1.8225, 0.1865234, 1.8225, -1.0048828, 1.8225, -0.2543945, 0.0700962, -0.002182, 1.8225, 0.2275391, 1.8225, -1.0073242, 1.8225, -0.3017578, 0.0700962, 0.0602579, 1.8225, 0.2963867, 1.8225, -0.9960938, 1.8225, 0.0385742, , , , , , , , , , , , , , , , , , , , , , 
0.0706154, 0.1054093, 1.836, -0.0493164, 1.836, -1.0585938, 1.836, 0.0380859, 0.0706154, -0.0115816, 1.836, 0.1630859, 1.836, -1.0009766, 1.836, -0.2617188, 0.0706154, -0.0035248, 1.836, 0.1708984, 1.836, -0.9863281, 1.836, -0.3193359, 0.0706154, 0.0500191, 1.836, 0.2709961, 1.836, -0.984375, 1.836, 0.0366211, , , , , , , , , , , , , , , , , , , , , , 
0.0711346, 0.0897993, 1.8495, -0.0693359, 1.8495, -1.0541992, 1.8495, 0.0390625, 0.0711346, -0.0112459, 1.8495, 0.1171875, 1.8495, -1.0029297, 1.8495, -0.2763672, 0.0711346, -0.0035248, 1.8495, 0.1533203, 1.8495, -0.9707031, 1.8495, -0.3286133, 0.0711346, 0.0384375, 1.8495, 0.262207, 1.8495, -0.9902344, 1.8495, 0.03125, , , , , , , , , , , , , , , , , , , , , , 
0.0716538, 0.0807355, 1.863, -0.0839844, 1.863, -1.0463867, 1.863, 0.0395508, 0.0716538, -0.0097353, 1.863, 0.0761719, 1.863, -0.9882812, 1.863, -0.2836914, 0.0716538, -0.0010071, 1.863, 0.1621094, 1.863, -0.9648438, 1.863, -0.3369141, 0.0716538, 0.0303807, 1.863, 0.2709961, 1.863, -0.9926758, 1.863, 0.03125, , , , , , , , , , , , , , , , , , , , , , 
0.0721731, 0.072343, 1.8765, -0.0561523, 1.8765, -1.0449219, 1.8765, 0.0258789, 0.0721731, -0.0085603, 1.8765, 0.0732422, 1.8765, -0.9648438, 1.8765, -0.2875977, 0.0721731, 0.0011749, 1.8765, 0.1728516, 1.8765, -0.9633789, 1.8765, -0.3359375, 0.0721731, 0.0240024, 1.8765, 0.2983398, 1.8765, -0.9750977, 1.8765, 0.0092773, , , , , , , , , , , , , , , , , , , , , , 
0.0726923, 0.0602579, 1.89, -0.0317383, 1.89, -1.0678711, 1.89, 0.0390625, 0.0726923, -0.0077211, 1.89, 0.0908203, 1.89, -0.9658203, 1.89, -0.2885742, 0.0726923, 0.0018463, 1.89, 0.1958008, 1.89, -0.9633789, 1.89, -0.3339844, 0.0726923, 0.0186313, 1.89, 0.3291016, 1.89, -0.9643555, 1.89, -0.0039062, , , , , , , , , , , , , , , , , , , , , , 
0.0732115, 0.0528725, 1.9035, -0.0351562, 1.9035, -1.081543, 1.9035, 0.0366211, 0.0732115, -0.0075532, 1.9035, 0.1420898, 1.9035, -0.9931641, 1.9035, -0.2753906, 0.0732115, 0.0001678, 1.9035, 0.190918, 1.9035, -0.9814453, 1.9035, -0.3271484, 0.0732115, 0.0159457, 1.9035, 0.3203125, 1.9035, -0.9838867, 1.9035, 0, , , , , , , , , , , , , , , , , , , , , , 
0.0737308, 0.0458228, 1.917, -0.0439453, 1.917, -1.0878906, 1.917, 0.0341797, 0.0737308, -0.0072175, 1.917, 0.1816406, 1.917, -1.0209961, 1.917, -0.2578125, 0.0737308, -0.0015106, 1.917, 0.1723633, 1.917, -1.0102539, 1.917, -0.3203125, 0.0737308, 0.0142672, 1.917, 0.3032227, 1.917, -0.9916992, 1.917, 0.0078125, , , , , , , , , , , , , , , , , , , , , , 
0.07425, 0.0392767, 1.9305, -0.0449219, 1.9305, -1.0913086, 1.9305, 0.0336914, 0.07425, -0.005539, 1.9305, 0.1689453, 1.9305, -1.0400391, 1.9305, -0.246582, 0.07425, -0.0003357, 1.9305, 0.1850586, 1.9305, -1.0336914, 1.9305, -0.3188477, 0.07425, 0.0109102, 1.9305, 0.3085938, 1.9305, -0.9951172, 1.9305, 0.0253906, , , , , , , , , , , , , , , , , , , , , , 
0.0747692, 0.0354162, 1.944, -0.0483398, 1.944, -1.1088867, 1.944, 0.0366211, 0.0747692, -0.0048676, 1.944, 0.1274414, 1.944, -1.0551758, 1.944, -0.2705078, 0.0747692, -0.0001678, 1.944, 0.2133789, 1.944, -1.034668, 1.944, -0.3583984, 0.0747692, 0.008896, 1.944, 0.3369141, 1.944, -1.0322266, 1.944, 0.0483398, , , , , , , , , , , , , , , , , , , , , , 
0.0752885, 0.0347448, 1.9575, -0.0395508, 1.9575, -1.1328125, 1.9575, 0.0449219, 0.0752885, -0.0041962, 1.9575, 0.1162109, 1.9575, -1.0717773, 1.9575, -0.2949219, 0.0752885, -0.0001678, 1.9575, 0.2197266, 1.9575, -1.0302734, 1.9575, -0.3842773, 0.0752885, 0.0075532, 1.9575, 0.3574219, 1.9575, -1.0678711, 1.9575, 0.0507812, , , , , , , , , , , , , , , , , , , , , , 
0.0758077, 0.0270237, 1.971, -0.0161133, 1.971, -1.1494141, 1.971, 0.0522461, 0.0758077, -0.0035248, 1.971, 0.1357422, 1.971, -1.0791016, 1.971, -0.2993164, 0.0758077, -0.0015106, 1.971, 0.2197266, 1.971, -1.0371094, 1.971, -0.3828125, 0.0758077, 0.0062104, 1.971, 0.3549805, 1.971, -1.0537109, 1.971, 0.0512695, , , , , , , , , , , , , , , , , , , , , , 
0.0763269, 0.0182956, 1.9845, 0, 1.9845, -1.152832, 1.9845, 0.0546875, 0.0763269, -0.0035248, 1.9845, 0.1567383, 1.9845, -1.0874023, 1.9845, -0.3022461, 0.0763269, -0.005539, 1.9845, 0.222168, 1.9845, -1.0419922, 1.9845, -0.3696289, 0.0763269, 0.0070497, 1.9845, 0.3383789, 1.9845, -1.0336914, 1.9845, 0.0576172, , , , , , , , , , , , , , , , , , , , , , 
0.0768462, 0.0125887, 1.998, -0.0131836, 1.998, -1.1547852, 1.998, 0.0664062, 0.0768462, -0.0048676, 1.998, 0.1494141, 1.998, -1.097168, 1.998, -0.3046875, 0.0768462, -0.0065461, 1.998, 0.2446289, 1.998, -1.0498047, 1.998, -0.3701172, 0.0768462, 0.0072175, 1.998, 0.3540039, 1.998, -1.0415039, 1.998, 0.0610352, , , , , , , , , , , , , , , , , , , , , , 
0.0773654, 0.0099031, 2.0115, -0.0356445, 2.0115, -1.1542969, 2.0115, 0.0722656, 0.0773654, -0.0068818, 2.0115, 0.1376953, 2.0115, -1.1035156, 2.0115, -0.3032227, 0.0773654, -0.005539, 2.0115, 0.2519531, 2.0115, -1.0527344, 2.0115, -0.371582, 0.0773654, 0.0065461, 2.0115, 0.3671875, 2.0115, -1.0551758, 2.0115, 0.0639648, , , , , , , , , , , , , , , , , , , , , , 
0.0778846, 0.0068818, 2.025, -0.0429688, 2.025, -1.1533203, 2.025, 0.0717773, 0.0778846, -0.0075532, 2.025, 0.1254883, 2.025, -1.1015625, 2.025, -0.3120117, 0.0778846, -0.0062104, 2.025, 0.2529297, 2.025, -1.0532227, 2.025, -0.3725586, 0.0778846, 0.0038605, 2.025, 0.3769531, 2.025, -1.0761719, 2.025, 0.0673828, , , , , , , , , , , , , , , , , , , , , , 
0.0784038, 0.0043641, 2.0385, -0.0283203, 2.0385, -1.1455078, 2.0385, 0.0864258, 0.0784038, -0.0065461, 2.0385, 0.1464844, 2.0385, -1.0869141, 2.0385, -0.3164062, 0.0784038, -0.0075532, 2.0385, 0.2573242, 2.0385, -1.0366211, 2.0385, -0.3793945, 0.0784038, 0.0038605, 2.0385, 0.3710938, 2.0385, -1.0712891, 2.0385, 0.0800781, , , , , , , , , , , , , , , , , , , , , , 
0.0789231, 0.0020142, 2.052, -0.0341797, 2.052, -1.1298828, 2.052, 0.1079102, 0.0789231, -0.0062104, 2.052, 0.1821289, 2.052, -1.0766602, 2.052, -0.3061523, 0.0789231, -0.0078889, 2.052, 0.2543945, 2.052, -1.0317383, 2.052, -0.3671875, 0.0789231, 0.0070497, 2.052, 0.3374023, 2.052, -1.0517578, 2.052, 0.0917969, , , , , , , , , , , , , , , , , , , , , , 
0.0794423, -0.0025177, 2.0655, -0.0556641, 2.0655, -1.1118164, 2.0655, 0.1020508, 0.0794423, -0.0072175, 2.0655, 0.1791992, 2.0655, -1.0703125, 2.0655, -0.3017578, 0.0794423, -0.0075532, 2.0655, 0.2416992, 2.0655, -1.03125, 2.0655, -0.3588867, 0.0794423, 0.0058747, 2.0655, 0.3237305, 2.0655, -1.0332031, 2.0655, 0.0957031, , , , , , , , , , , , , , , , , , , , , , 
0.0799615, -0.0169528, 2.079, -0.0668945, 2.079, -1.097168, 2.079, 0.09375, 0.0799615, -0.0092317, 2.079, 0.159668, 2.079, -1.0585938, 2.079, -0.3041992, 0.0799615, -0.0072175, 2.079, 0.2368164, 2.079, -1.0200195, 2.079, -0.3486328, 0.0799615, -0.0018463, 2.079, 0.3129883, 2.079, -1.0219727, 2.079, 0.0961914, , , , , , , , , , , , , , , , , , , , , , 
0.0804808, -0.040116, 2.0925, -0.0708008, 2.0925, -1.09375, 2.0925, 0.1044922, 0.0804808, -0.0095674, 2.0925, 0.1733398, 2.0925, -1.0405273, 2.0925, -0.2954102, 0.0804808, -0.008896, 2.0925, 0.2426758, 2.0925, -1.0234375, 2.0925, -0.3466797, 0.0804808, -0.0135958, 2.0925, 0.296875, 2.0925, -1.0273438, 2.0925, 0.1035156, , , , , , , , , , , , , , , , , , , , , , 
0.081, -0.0605936, 2.106, -0.0874023, 2.106, -1.1010742, 2.106, 0.1235352, 0.081, -0.005539, 2.106, 0.2163086, 2.106, -1.0361328, 2.106, -0.2763672, 0.081, -0.012253, 2.106, 0.2568359, 2.106, -1.0351562, 2.106, -0.3432617, 0.081, -0.0219883, 2.106, 0.2939453, 2.106, -1.0405273, 2.106, 0.1010742, , , , , , , , , , , , , , , , , , , , , , 
0.0815192, -0.0767071, 2.1195, -0.1079102, 2.1195, -1.1030273, 2.1195, 0.1254883, 0.0815192, -0.0048676, 2.1195, 0.237793, 2.1195, -1.0439453, 2.1195, -0.2714844, 0.0815192, -0.0157778, 2.1195, 0.2495117, 2.1195, -1.0478516, 2.1195, -0.3344727, 0.0815192, -0.0260166, 2.1195, 0.3227539, 2.1195, -1.0390625, 2.1195, 0.0776367, , , , , , , , , , , , , , , , , , , , , , 
0.0820385, -0.0877852, 2.133, -0.1088867, 2.133, -1.0996094, 2.133, 0.1210938, 0.0820385, -0.0072175, 2.133, 0.2373047, 2.133, -1.0478516, 2.133, -0.2768555, 0.0820385, -0.0176242, 2.133, 0.2407227, 2.133, -1.0410156, 2.133, -0.3334961, 0.0820385, -0.0297093, 2.133, 0.34375, 2.133, -1.0361328, 2.133, 0.0688477, , , , , , , , , , , , , , , , , , , , , , 
0.0825577, -0.0928206, 2.1465, -0.097168, 2.1465, -1.0854492, 2.1465, 0.1220703, 0.0825577, -0.0075532, 2.1465, 0.2294922, 2.1465, -1.0415039, 2.1465, -0.2768555, 0.0825577, -0.017792, 2.1465, 0.2270508, 2.1465, -1.0195312, 2.1465, -0.3349609, 0.0825577, -0.0317235, 2.1465, 0.3291016, 2.1465, -1.027832, 2.1465, 0.0605469, , , , , , , , , , , , , , , , , , , , , , 
0.0830769, -0.0921492, 2.16, -0.1044922, 2.16, -1.0859375, 2.16, 0.137207, 0.0830769, -0.0082246, 2.16, 0.2299805, 2.16, -1.0327148, 2.16, -0.262207, 0.0830769, -0.0182956, 2.16, 0.2416992, 2.16, -1.0175781, 2.16, -0.3374023, 0.0830769, -0.0302129, 2.16, 0.3217773, 2.16, -1.0253906, 2.16, 0.059082, , , , , , , , , , , , , , , , , , , , , , 
0.0835962, -0.0867781, 2.1735, -0.1220703, 2.1735, -1.0981445, 2.1735, 0.1435547, 0.0835962, -0.008896, 2.1735, 0.2392578, 2.1735, -1.0375977, 2.1735, -0.2563477, 0.0835962, -0.0193027, 2.1735, 0.2524414, 2.1735, -1.027832, 2.1735, -0.3344727, 0.0835962, -0.0260166, 2.1735, 0.3188477, 2.1735, -1.0366211, 2.1735, 0.0688477, , , , , , , , , , , , , , , , , , , , , , 
0.0841154, -0.0730144, 2.187, -0.1181641, 2.187, -1.0961914, 2.187, 0.1381836, 0.0841154, -0.0102388, 2.187, 0.2480469, 2.187, -1.0292969, 2.187, -0.2592773, 0.0841154, -0.0169528, 2.187, 0.2543945, 2.187, -1.0405273, 2.187, -0.3286133, 0.0841154, -0.0179599, 2.187, 0.3354492, 2.187, -1.0488281, 2.187, 0.0698242, , , , , , , , , , , , , , , , , , , , , , 
0.0846346, -0.0599222, 2.2005, -0.1040039, 2.2005, -1.0893555, 2.2005, 0.1391602, 0.0846346, -0.011078, 2.2005, 0.2651367, 2.2005, -1.0146484, 2.2005, -0.2539062, 0.0846346, -0.0142672, 2.2005, 0.2314453, 2.2005, -1.0356445, 2.2005, -0.3242188, 0.0846346, -0.0072175, 2.2005, 0.3408203, 2.2005, -1.0361328, 2.2005, 0.0527344, , , , , , , , , , , , , , , , , , , , , , 
0.0851538, -0.0458228, 2.214, -0.1274414, 2.214, -1.0888672, 2.214, 0.1333008, 0.0851538, -0.011078, 2.214, 0.2900391, 2.214, -1.0170898, 2.214, -0.2363281, 0.0851538, -0.0139315, 2.214, 0.1972656, 2.214, -1.0390625, 2.214, -0.3227539, 0.0851538, 0.0018463, 2.214, 0.3076172, 2.214, -1.0253906, 2.214, 0.0473633, , , , , , , , , , , , , , , , , , , , , , 
0.0856731, -0.0310521, 2.2275, -0.1489258, 2.2275, -1.0966797, 2.2275, 0.1293945, 0.0856731, -0.0109102, 2.2275, 0.2885742, 2.2275, -1.0371094, 2.2275, -0.2216797, 0.0856731, -0.0130922, 2.2275, 0.2192383, 2.2275, -1.0458984, 2.2275, -0.3193359, 0.0856731, 0.0097353, 2.2275, 0.2949219, 2.2275, -1.0239258, 2.2275, 0.0537109, , , , , , , , , , , , , , , , , , , , , , 
0.0861923, -0.0149386, 2.241, -0.1459961, 2.241, -1.1113281, 2.241, 0.1323242, 0.0861923, -0.0095674, 2.241, 0.2729492, 2.241, -1.050293, 2.241, -0.2255859, 0.0861923, -0.012253, 2.241, 0.2700195, 2.241, -1.0654297, 2.241, -0.315918, 0.0861923, 0.0172885, 2.241, 0.3193359, 2.241, -1.0458984, 2.241, 0.0566406, , , , , , , , , , , , , , , , , , , , , , 
0.0867115, 0.0058747, 2.2545, -0.1342773, 2.2545, -1.1181641, 2.2545, 0.1328125, 0.0867115, -0.008896, 2.2545, 0.2700195, 2.2545, -1.0532227, 2.2545, -0.2275391, 0.0867115, -0.0112459, 2.2545, 0.2739258, 2.2545, -1.0644531, 2.2545, -0.3364258, 0.0867115, 0.0271916, 2.2545, 0.3681641, 2.2545, -1.0615234, 2.2545, 0.0571289, , , , , , , , , , , , , , , , , , , , , , 
0.0872308, 0.0305486, 2.268, -0.105957, 2.268, -1.1264648, 2.268, 0.1274414, 0.0872308, -0.0099031, 2.268, 0.28125, 2.268, -1.0488281, 2.268, -0.2260742, 0.0872308, -0.0095674, 2.268, 0.2607422, 2.268, -1.0546875, 2.268, -0.3564453, 0.0872308, 0.0394446, 2.268, 0.3979492, 2.268, -1.0458984, 2.268, 0.0493164, , , , , , , , , , , , , , , , , , , , , , 
0.08775, 0.0538796, 2.2815, -0.1235352, 2.2815, -1.1293945, 2.2815, 0.1435547, 0.08775, -0.012253, 2.2815, 0.3041992, 2.2815, -1.0629883, 2.2815, -0.2167969, 0.08775, -0.0068818, 2.2815, 0.2280273, 2.2815, -1.0449219, 2.2815, -0.3833008, 0.08775, 0.0491798, 2.2815, 0.3945312, 2.2815, -1.0385742, 2.2815, 0.0400391, , , , , , , , , , , , , , , , , , , , , , 
0.0882692, 0.0736858, 2.295, -0.1469727, 2.295, -1.1245117, 2.295, 0.1411133, 0.0882692, -0.0135958, 2.295, 0.309082, 2.295, -1.0825195, 2.295, -0.2124023, 0.0882692, -0.0045319, 2.295, 0.2348633, 2.295, -1.078125, 2.295, -0.3632812, 0.0882692, 0.0535439, 2.295, 0.3876953, 2.295, -1.0615234, 2.295, 0.0546875, , , , , , , , , , , , , , , , , , , , , , 
0.0887885, 0.0928206, 2.3085, -0.1674805, 2.3085, -1.1494141, 2.3085, 0.1323242, 0.0887885, -0.0132601, 2.3085, 0.2963867, 2.3085, -1.0986328, 2.3085, -0.2094727, 0.0887885, -0.0028534, 2.3085, 0.2441406, 2.3085, -1.109375, 2.3085, -0.3500977, 0.0887885, 0.0555581, 2.3085, 0.3813477, 2.3085, -1.0786133, 2.3085, 0.0639648, , , , , , , , , , , , , , , , , , , , , , 
0.0893077, 0.1052415, 2.322, -0.1479492, 2.322, -1.1621094, 2.322, 0.1269531, 0.0893077, -0.0132601, 2.322, 0.3051758, 2.322, -1.109375, 2.322, -0.2011719, 0.0893077, -0.002182, 2.322, 0.265625, 2.322, -1.0913086, 2.322, -0.3447266, 0.0893077, 0.0597543, 2.322, 0.3457031, 2.322, -1.0888672, 2.322, 0.0786133, , , , , , , , , , , , , , , , , , , , , , 
0.0898269, 0.1116197, 2.3355, -0.1181641, 2.3355, -1.1557617, 2.3355, 0.144043, 0.0898269, -0.0129244, 2.3355, 0.324707, 2.3355, -1.0986328, 2.3355, -0.1992188, 0.0898269, -0.0015106, 2.3355, 0.2792969, 2.3355, -1.0698242, 2.3355, -0.3598633, 0.0898269, 0.0616007, 2.3355, 0.3354492, 2.3355, -1.0708008, 2.3355, 0.0883789, , , , , , , , , , , , , , , , , , , , , , 
0.0903462, 0.111284, 2.349, -0.1201172, 2.349, -1.1572266, 2.349, 0.1591797, 0.0903462, -0.0119173, 2.349, 0.3217773, 2.349, -1.0961914, 2.349, -0.2104492, 0.0903462, -0.0008392, 2.349, 0.2563477, 2.349, -1.074707, 2.349, -0.3828125, 0.0903462, 0.0558938, 2.349, 0.3647461, 2.349, -1.0571289, 2.349, 0.0834961, , , , , , , , , , , , , , , , , , , , , , 
0.0908654, 0.1008774, 2.3625, -0.1547852, 2.3625, -1.1499023, 2.3625, 0.1494141, 0.0908654, -0.0112459, 2.3625, 0.3198242, 2.3625, -1.109375, 2.3625, -0.2099609, 0.0908654, -0.0018463, 2.3625, 0.2290039, 2.3625, -1.0869141, 2.3625, -0.3911133, 0.0908654, 0.0458228, 2.3625, 0.3813477, 2.3625, -1.0771484, 2.3625, 0.0874023, , , , , , , , , , , , , , , , , , , , , , 
0.0913846, 0.0874495, 2.376, -0.1865234, 2.376, -1.1430664, 2.376, 0.1455078, 0.0913846, -0.0104067, 2.376, 0.3149414, 2.376, -1.1142578, 2.376, -0.2036133, 0.0913846, -0.0031891, 2.376, 0.2397461, 2.376, -1.0961914, 2.376, -0.3837891, 0.0913846, 0.0350805, 2.376, 0.3720703, 2.376, -1.0908203, 2.376, 0.0927734, , , , , , , , , , , , , , , , , , , , , , 
0.0919038, 0.0770428, 2.3895, -0.2036133, 2.3895, -1.1523438, 2.3895, 0.1464844, 0.0919038, -0.008896, 2.3895, 0.300293, 2.3895, -1.1152344, 2.3895, -0.190918, 0.0919038, -0.0028534, 2.3895, 0.2504883, 2.3895, -1.0976562, 2.3895, -0.3798828, 0.0919038, 0.026688, 2.3895, 0.3710938, 2.3895, -1.0927734, 2.3895, 0.0898438, , , , , , , , , , , , , , , , , , , , , , 
0.0924231, 0.0669718, 2.403, -0.2099609, 2.403, -1.1606445, 2.403, 0.1464844, 0.0924231, -0.0077211, 2.403, 0.2963867, 2.403, -1.1074219, 2.403, -0.1948242, 0.0924231, -0.0011749, 2.403, 0.2519531, 2.403, -1.0908203, 2.403, -0.3774414, 0.0924231, 0.0219883, 2.403, 0.3789062, 2.403, -1.0913086, 2.403, 0.0893555, , , , , , , , , , , , , , , , , , , , , , 
0.0929423, 0.0569009, 2.4165, -0.2050781, 2.4165, -1.1557617, 2.4165, 0.1303711, 0.0929423, -0.0063783, 2.4165, 0.3027344, 2.4165, -1.1279297, 2.4165, -0.1894531, 0.0929423, -0.0005035, 2.4165, 0.237793, 2.4165, -1.0883789, 2.4165, -0.3823242, 0.0929423, 0.0199741, 2.4165, 0.3676758, 2.4165, -1.0883789, 2.4165, 0.0952148, , , , , , , , , , , , , , , , , , , , , , 
0.0934615, 0.0480049, 2.43, -0.1914062, 2.43, -1.171875, 2.43, 0.1450195, 0.0934615, -0.0041962, 2.43, 0.3115234, 2.43, -1.1513672, 2.43, -0.1831055, 0.0934615, -0.0018463, 2.43, 0.2504883, 2.43, -1.0874023, 2.43, -0.3813477, 0.0934615, 0.0186313, 2.43, 0.3461914, 2.43, -1.0927734, 2.43, 0.0947266, , , , , , , , , , , , , , , , , , , , , , 
0.0939808, 0.0397803, 2.4435, -0.1611328, 2.4435, -1.1606445, 2.4435, 0.1782227, 0.0939808, -0.0041962, 2.4435, 0.3129883, 2.4435, -1.1005859, 2.4435, -0.2246094, 0.0939808, -0.0043641, 2.4435, 0.2817383, 2.4435, -1.0708008, 2.4435, -0.3647461, 0.0939808, 0.0159457, 2.4435, 0.3100586, 2.4435, -1.0869141, 2.4435, 0.1132812, , , , , , , , , , , , , , , , , , , , , , 
0.0945, 0.0352483, 2.457, -0.1245117, 2.457, -1.1206055, 2.457, 0.1923828, 0.0945, -0.0058747, 2.457, 0.3388672, 2.457, -1.0488281, 2.457, -0.2314453, 0.0945, -0.0052033, 2.457, 0.2880859, 2.457, -1.0737305, 2.457, -0.3398438, 0.0945, 0.0129244, 2.457, 0.3012695, 2.457, -1.0791016, 2.457, 0.1176758, , , , , , , , , , , , , , , , , , , , , , 
0.0950192, 0.0354162, 2.4705, -0.1425781, 2.4705, -1.1142578, 2.4705, 0.1948242, 0.0950192, -0.0070497, 2.4705, 0.3818359, 2.4705, -1.0595703, 2.4705, -0.2080078, 0.0950192, -0.0035248, 2.4705, 0.2773438, 2.4705, -1.0708008, 2.4705, -0.3320312, 0.0950192, 0.0102388, 2.4705, 0.3125, 2.4705, -1.0576172, 2.4705, 0.1132812, , , , , , , , , , , , , , , , , , , , , , 
0.0955385, 0.0347448, 2.484, -0.1948242, 2.484, -1.1298828, 2.484, 0.1918945, 0.0955385, -0.0043641, 2.484, 0.3969727, 2.484, -1.0927734, 2.484, -0.1704102, 0.0955385, -0.0038605, 2.484, 0.2890625, 2.484, -1.0541992, 2.484, -0.3286133, 0.0955385, 0.0085603, 2.484, 0.3173828, 2.484, -1.0585938, 2.484, 0.1030273, , , , , , , , , , , , , , , , , , , , , , 
0.0960577, 0.0303807, 2.4975, -0.2373047, 2.4975, -1.1123047, 2.4975, 0.1816406, 0.0960577, -0.0035248, 2.4975, 0.3745117, 2.4975, -1.078125, 2.4975, -0.1342773, 0.0960577, -0.0062104, 2.4975, 0.3203125, 2.4975, -1.0458984, 2.4975, -0.3413086, 0.0960577, 0.0058747, 2.4975, 0.3374023, 2.4975, -1.0620117, 2.4975, 0.0991211, , , , , , , , , , , , , , , , , , , , , , 
0.0965769, 0.0240024, 2.511, -0.2666016, 2.511, -1.078125, 2.511, 0.1899414, 0.0965769, -0.0048676, 2.511, 0.3764648, 2.511, -1.0625, 2.511, -0.1254883, 0.0965769, -0.0062104, 2.511, 0.3154297, 2.511, -1.0444336, 2.511, -0.3554688, 0.0965769, 0.0048676, 2.511, 0.3588867, 2.511, -1.0620117, 2.511, 0.1064453, , , , , , , , , , , , , , , , , , , , , , 
0.0970962, 0.0176242, 2.5245, -0.2739258, 2.5245, -1.0507812, 2.5245, 0.1757812, 0.0970962, -0.0050355, 2.5245, 0.40625, 2.5245, -1.0351562, 2.5245, -0.1342773, 0.0970962, -0.0075532, 2.5245, 0.2944336, 2.5245, -1.0488281, 2.5245, -0.3500977, 0.0970962, 0.0058747, 2.5245, 0.3525391, 2.5245, -1.0532227, 2.5245, 0.1035156, , , , , , , , , , , , , , , , , , , , , , 
0.0976154, 0.0109102, 2.538, -0.2563477, 2.538, -1.0507812, 2.538, 0.1704102, 0.0976154, -0.0048676, 2.538, 0.402832, 2.538, -1.0200195, 2.538, -0.1533203, 0.0976154, -0.0092317, 2.538, 0.2519531, 2.538, -1.0600586, 2.538, -0.3291016, 0.0976154, 0.0048676, 2.538, 0.3208008, 2.538, -1.0478516, 2.538, 0.0976562, , , , , , , , , , , , , , , , , , , , , , 
0.0981346, 0.0070497, 2.5515, -0.2163086, 2.5515, -1.0629883, 2.5515, 0.1572266, 0.0981346, -0.0043641, 2.5515, 0.3662109, 2.5515, -1.0229492, 2.5515, -0.1572266, 0.0981346, -0.008896, 2.5515, 0.2382812, 2.5515, -1.0556641, 2.5515, -0.3188477, 0.0981346, 0.0028534, 2.5515, 0.2646484, 2.5515, -1.0410156, 2.5515, 0.097168, , , , , , , , , , , , , , , , , , , , , , 
0.0986538, 0.0028534, 2.565, -0.2133789, 2.565, -1.0717773, 2.565, 0.1801758, 0.0986538, -0.0031891, 2.565, 0.3183594, 2.565, -1.0112305, 2.565, -0.1494141, 0.0986538, -0.0085603, 2.565, 0.2519531, 2.565, -1.0288086, 2.565, -0.3095703, 0.0986538, 0.0031891, 2.565, 0.2387695, 2.565, -1.0258789, 2.565, 0.0966797, , , , , , , , , , , , , , , , , , , , , , 
0.0991731, -0.0031891, 2.5785, -0.2519531, 2.5785, -1.0649414, 2.5785, 0.1586914, 0.0991731, -0.002182, 2.5785, 0.3320312, 2.5785, -0.9907227, 2.5785, -0.1425781, 0.0991731, -0.008896, 2.5785, 0.2548828, 2.5785, -1.0170898, 2.5785, -0.3232422, 0.0991731, 0.0030213, 2.5785, 0.2763672, 2.5785, -1.0063477, 2.5785, 0.1040039, , , , , , , , , , , , , , , , , , , , , , 
0.0996923, -0.0129244, 2.592, -0.2856445, 2.592, -1.0605469, 2.592, 0.1342773, 0.0996923, -0.0035248, 2.592, 0.3730469, 2.592, -1.0029297, 2.592, -0.1235352, 0.0996923, -0.0095674, 2.592, 0.2211914, 2.592, -1.0112305, 2.592, -0.3569336, 0.0996923, 0.0008392, 2.592, 0.315918, 2.592, -1.0058594, 2.592, 0.1000977, , , , , , , , , , , , , , , , , , , , , , 
0.1002115, -0.0317235, 2.6055, -0.3476562, 2.6055, -1.0439453, 2.6055, 0.1113281, 0.1002115, -0.0048676, 2.6055, 0.3852539, 2.6055, -1.0703125, 2.6055, -0.0131836, 0.1002115, -0.0102388, 2.6055, 0.184082, 2.6055, -1.0151367, 2.6055, -0.3706055, 0.1002115, -0.0052033, 2.6055, 0.3300781, 2.6055, -1.012207, 2.6055, 0.0849609, , , , , , , , , , , , , , , , , , , , , , 
0.1007308, -0.0538796, 2.619, -0.3486328, 2.619, -1.0561523, 2.619, 0.1118164, 0.1007308, -0.0068818, 2.619, 0.4125977, 2.619, -1.0527344, 2.619, -0.2700195, 0.1007308, -0.0112459, 2.619, 0.2080078, 2.619, -1.015625, 2.619, -0.3505859, 0.1007308, -0.0152743, 2.619, 0.3393555, 2.619, -1.0175781, 2.619, 0.0581055, , , , , , , , , , , , , , , , , , , , , , 
0.10125, -0.068986, 2.6325, -0.3051758, 2.6325, -1.1181641, 2.6325, 0.1479492, 0.10125, -0.0082246, 2.6325, 0.4799805, 2.6325, -1.059082, 2.6325, -0.1879883, 0.10125, -0.0119173, 2.6325, 0.2626953, 2.6325, -1.0195312, 2.6325, -0.3354492, 0.10125, -0.0223239, 2.6325, 0.3598633, 2.6325, -1.0170898, 2.6325, 0.0473633, , , , , , , , , , , , , , , , , , , , , , 
0.1017692, -0.0763714, 2.646, -0.1079102, 2.646, -1.1044922, 2.646, 0.081543, 0.1017692, -0.0095674, 2.646, 0.4125977, 2.646, -0.9785156, 2.646, -0.2646484, 0.1017692, -0.012253, 2.646, 0.3095703, 2.646, -1.0317383, 2.646, -0.2963867, 0.1017692, -0.0243381, 2.646, 0.3813477, 2.646, -1.0234375, 2.646, 0.0288086, , , , , , , , , , , , , , , , , , , , , , 
0.1022885, -0.082414, 2.6595, 0.3291016, 2.6595, -1.0810547, 2.6595, 0.2114258, 0.1022885, -0.0099031, 2.6595, 0.109375, 2.6595, -0.862793, 2.6595, -0.5380859, 0.1022885, -0.0129244, 2.6595, 0.3393555, 2.6595, -1.0410156, 2.6595, -0.2705078, 0.1022885, -0.0263523, 2.6595, 0.3769531, 2.6595, -1.0483398, 2.6595, 0.0166016, , , , , , , , , , , , , , , , , , , , , , 
0.1028077, -0.0881209, 2.673, 0.3725586, 2.673, -1.2080078, 2.673, 0.40625, 0.1028077, -0.0072175, 2.673, 0.0141602, 2.673, -0.9960938, 2.673, -0.2275391, 0.1028077, -0.0135958, 2.673, 0.4321289, 2.673, -0.9980469, 2.673, -0.3110352, 0.1028077, -0.0270237, 2.673, 0.4077148, 2.673, -1.0268555, 2.673, 0.0820312, , , , , , , , , , , , , , , , , , , , , , 
0.1033269, -0.0856031, 2.6865, -0.2871094, 2.6865, -1.203125, 2.6865, 0.1000977, 0.1033269, -0.0052033, 2.6865, 0.2441406, 2.6865, -1.0263672, 2.6865, 0.1362305, 0.1033269, -0.0142672, 2.6865, 0.5273438, 2.6865, -0.8984375, 2.6865, -0.4433594, 0.1033269, -0.0229953, 2.6865, 0.5239258, 2.6865, -0.9702148, 2.6865, 0.1162109, , , , , , , , , , , , , , , , , , , , , , 
0.1038462, -0.0777142, 2.7, -0.7587891, 2.7, -0.9545898, 2.7, -0.0449219, 0.1038462, -0.0045319, 2.7, 0.5712891, 2.7, -1.1318359, 2.7, -0.0092773, 0.1038462, -0.0157778, 2.7, 0.5170898, 2.7, -0.8540039, 2.7, -0.5864258, 0.1038462, -0.0157778, 2.7, 0.6220703, 2.7, -0.9692383, 2.7, 0.1318359, , , , , , , , , , , , , , , , , , , , , , 
0.1043654, -0.0666361, 2.7135, -0.328125, 2.7135, -0.8696289, 2.7135, 0.1782227, 0.1043654, -0.0058747, 2.7135, 0.5087891, 2.7135, -1.1445312, 2.7135, -0.1420898, 0.1043654, -0.0176242, 2.7135, 0.3168945, 2.7135, -0.9453125, 2.7135, -0.4760742, 0.1043654, -0.0075532, 2.7135, 0.5283203, 2.7135, -0.9755859, 2.7135, 0.1386719, , , , , , , , , , , , , , , , , , , , , , 
0.1048846, -0.0518654, 2.727, -0.0537109, 2.727, -0.9829102, 2.727, 0.3525391, 0.1048846, -0.0075532, 2.727, 0.2016602, 2.727, -0.7231445, 2.727, -0.1704102, 0.1048846, -0.017792, 2.727, 0.0839844, 2.727, -1.0268555, 2.727, -0.2636719, 0.1048846, -0.0010071, 2.727, 0.246582, 2.727, -0.9472656, 2.727, 0.0942383, , , , , , , , , , , , , , , , , , , , , , 
0.1054038, -0.0387732, 2.7405, -0.1416016, 2.7405, -0.8154297, 2.7405, 0.1899414, 0.1054038, -0.0082246, 2.7405, 0.2192383, 2.7405, -0.6679688, 2.7405, -0.1489258, 0.1054038, -0.0149386, 2.7405, 0.0932617, 2.7405, -0.9804688, 2.7405, -0.2285156, 0.1054038, 0.0038605, 2.7405, -0.0288086, 2.7405, -0.9155273, 2.7405, 0.0791016, , , , , , , , , , , , , , , , , , , , , , 
0.1059231, -0.0250095, 2.754, -0.2944336, 2.754, -0.7558594, 2.754, 0.2275391, 0.1059231, -0.0109102, 2.754, 0.2758789, 2.754, -0.8217773, 2.754, -0.1274414, 0.1059231, -0.012253, 2.754, 0.2128906, 2.754, -0.8710938, 2.754, -0.2905273, 0.1059231, 0.0125887, 2.754, -0.0883789, 2.754, -0.8974609, 2.754, 0.1020508, , , , , , , , , , , , , , , , , , , , , , 
0.1064423, -0.0028534, 2.7675, -0.4570312, 2.7675, -0.7333984, 2.7675, 0.284668, 0.1064423, -0.012253, 2.7675, 0.3530273, 2.7675, -0.9199219, 2.7675, -0.0976562, 0.1064423, -0.0102388, 2.7675, 0.2099609, 2.7675, -0.8041992, 2.7675, -0.2871094, 0.1064423, 0.0226596, 2.7675, -0.0087891, 2.7675, -0.862793, 2.7675, 0.206543, , , , , , , , , , , , , , , , , , , , , , 
0.1069615, 0.023331, 2.781, -0.4257812, 2.781, -0.7729492, 2.781, 0.1352539, 0.1069615, -0.0112459, 2.781, 0.3598633, 2.781, -0.9306641, 2.781, -0.1259766, 0.1069615, -0.0075532, 2.781, 0.2036133, 2.781, -0.7944336, 2.781, -0.2338867, 0.1069615, 0.03122, 2.781, 0.144043, 2.781, -0.8364258, 2.781, 0.2602539, , , , , , , , , , , , , , , , , , , , , , 
0.1074808, 0.0454871, 2.7945, -0.362793, 2.7945, -0.8212891, 2.7945, 0.1713867, 0.1074808, -0.0109102, 2.7945, 0.3867188, 2.7945, -0.9248047, 2.7945, -0.125, 0.1074808, -0.0058747, 2.7945, 0.2172852, 2.7945, -0.8208008, 2.7945, -0.2661133, 0.1074808, 0.0387732, 2.7945, 0.1435547, 2.7945, -0.8334961, 2.7945, 0.1958008, , , , , , , , , , , , , , , , , , , , , , 
0.108, 0.0656291, 2.808, -0.2695312, 2.808, -0.9755859, 2.808, 0.199707, 0.108, -0.0117494, 2.808, 0.7734375, 2.808, -0.7084961, 2.808, -0.1098633, 0.108, -0.0045319, 2.808, 0.230957, 2.808, -0.8354492, 2.808, -0.3242188, 0.108, 0.0461585, 2.808, 0.1254883, 2.808, -0.8930664, 2.808, 0.1586914, , , , , , , , , , , , , , , , , , , , , , 
0.1085192, 0.0847639, 2.8215, 0.0341797, 2.8215, -1.0625, 2.8215, 0.2568359, 0.1085192, -0.0099031, 2.8215, 0.3710938, 2.8215, -0.8457031, 2.8215, -0.1430664, 0.1085192, -0.0041962, 2.8215, 0.2763672, 2.8215, -0.84375, 2.8215, -0.3813477, 0.1085192, 0.0528725, 2.8215, 0.2719727, 2.8215, -0.9648438, 2.8215, 0.1484375, , , , , , , , , , , , , , , , , , , , , , 
0.1090385, 0.1012131, 2.835, 0.1015625, 2.835, -1.0332031, 2.835, 0.1728516, 0.1090385, -0.0078889, 2.835, 0.4335938, 2.835, -0.8671875, 2.835, -0.1206055, 0.1090385, -0.0015106, 2.835, 0.3374023, 2.835, -0.8427734, 2.835, -0.4213867, 0.1090385, 0.0562295, 2.835, 0.4179688, 2.835, -0.940918, 2.835, 0.0849609, , , , , , , , , , , , , , , , , , , , , , 
0.1095577, 0.1116197, 2.8485, -0.203125, 2.8485, -1.0151367, 2.8485, 0.0463867, 0.1095577, -0.0082246, 2.8485, 0.4375, 2.8485, -0.8881836, 2.8485, -0.1411133, 0.1095577, -0.0001678, 2.8485, 0.347168, 2.8485, -0.8823242, 2.8485, -0.4067383, 0.1095577, 0.0574044, 2.8485, 0.4970703, 2.8485, -0.875, 2.8485, 0.0571289, , , , , , , , , , , , , , , , , , , , , , 
0.1100769, 0.1122911, 2.862, -0.2509766, 2.862, -0.9853516, 2.862, 0.0444336, 0.1100769, -0.0090639, 2.862, 0.1220703, 2.862, -1.0517578, 2.862, -0.1274414, 0.1100769, -0.0001678, 2.862, 0.2607422, 2.862, -0.8989258, 2.862, -0.4204102, 0.1100769, 0.0548867, 2.862, 0.5317383, 2.862, -0.8691406, 2.862, 0.0668945, , , , , , , , , , , , , , , , , , , , , , 
0.1105962, 0.1015488, 2.8755, -0.2084961, 2.8755, -1.0288086, 2.8755, 0.0307617, 0.1105962, -0.0099031, 2.8755, 0.0839844, 2.8755, -1.112793, 2.8755, -0.1079102, 0.1105962, -0.0001678, 2.8755, 0.246582, 2.8755, -0.8979492, 2.8755, -0.4355469, 0.1105962, 0.0458228, 2.8755, 0.4892578, 2.8755, -0.9140625, 2.8755, 0.0561523, , , , , , , , , , , , , , , , , , , , , , 
0.1111154, 0.0887922, 2.889, -0.2426758, 2.889, -1.0424805, 2.889, -0.0043945, 0.1111154, -0.0109102, 2.889, 0.1977539, 2.889, -1.046875, 2.889, -0.0986328, 0.1111154, -0.0015106, 2.889, 0.2514648, 2.889, -0.9277344, 2.889, -0.3837891, 0.1111154, 0.0347448, 2.889, 0.4077148, 2.889, -0.9477539, 2.889, 0.0517578, , , , , , , , , , , , , , , , , , , , , , 
0.1116346, 0.0777142, 2.9025, -0.1958008, 2.9025, -1.0351562, 2.9025, 0.0258789, 0.1116346, -0.0115816, 2.9025, 0.2172852, 2.9025, -0.8588867, 2.9025, -0.0834961, 0.1116346, -0.0048676, 2.9025, 0.2236328, 2.9025, -0.9570312, 2.9025, -0.4013672, 0.1116346, 0.0280308, 2.9025, 0.3520508, 2.9025, -0.9516602, 2.9025, 0.0483398, , , , , , , , , , , , , , , , , , , , , , 
0.1121538, 0.0676432, 2.916, -0.184082, 2.916, -1.0068359, 2.916, 0.0400391, 0.1121538, -0.0099031, 2.916, 0.3398438, 2.916, -0.972168, 2.916, -0.0136719, 0.1121538, -0.0068818, 2.916, 0.2006836, 2.916, -0.9599609, 2.916, -0.355957, 0.1121538, 0.0260166, 2.916, 0.3496094, 2.916, -0.9487305, 2.916, 0.0400391, , , , , , , , , , , , , , , , , , , , , , 
0.1126731, 0.06009, 2.9295, -0.2861328, 2.9295, -0.9990234, 2.9295, 0.0898438, 0.1126731, -0.0095674, 2.9295, 0.4594727, 2.9295, -0.9501953, 2.9295, 0.0576172, 0.1126731, -0.0068818, 2.9295, 0.2119141, 2.9295, -0.9799805, 2.9295, -0.3564453, 0.1126731, 0.0246738, 2.9295, 0.3212891, 2.9295, -0.9462891, 2.9295, 0.0244141, , , , , , , , , , , , , , , , , , , , , , 
0.1131923, 0.0533761, 2.943, -0.4091797, 2.943, -0.9921875, 2.943, 0.1713867, 0.1131923, -0.0095674, 2.943, 0.4477539, 2.943, -0.953125, 2.943, -0.0024414, 0.1131923, -0.0062104, 2.943, 0.2451172, 2.943, -0.96875, 2.943, -0.2612305, 0.1131923, 0.0203098, 2.943, 0.2768555, 2.943, -0.956543, 2.943, 0.0224609, , , , , , , , , , , , , , , , , , , , , , 
0.1137115, 0.0438087, 2.9565, -0.3310547, 2.9565, -0.9272461, 2.9565, 0.1069336, 0.1137115, -0.0095674, 2.9565, 0.4155273, 2.9565, -0.9150391, 2.9565, -0.0263672, 0.1137115, -0.0058747, 2.9565, 0.2944336, 2.9565, -0.953125, 2.9565, -0.3369141, 0.1137115, 0.0171206, 2.9565, 0.2880859, 2.9565, -0.9541016, 2.9565, 0.0683594, , , , , , , , , , , , , , , , , , , , , , 
0.1142308, 0.0377661, 2.97, -0.3032227, 2.97, -0.9428711, 2.97, 0.1816406, 0.1142308, -0.0092317, 2.97, 0.4316406, 2.97, -0.8642578, 2.97, -0.0620117, 0.1142308, -0.0062104, 2.97, 0.2954102, 2.97, -0.9487305, 2.97, -0.2890625, 0.1142308, 0.0139315, 2.97, 0.3193359, 2.97, -0.9467773, 2.97, 0.0581055, , , , , , , , , , , , , , , , , , , , , , 
0.11475, 0.0327306, 2.9835, -0.3632812, 2.9835, -0.9326172, 2.9835, 0.1591797, 0.11475, -0.008896, 2.9835, 0.4169922, 2.9835, -0.7114258, 2.9835, -0.050293, 0.11475, -0.0085603, 2.9835, 0.2866211, 2.9835, -0.9335938, 2.9835, -0.2915039, 0.11475, 0.0132601, 2.9835, 0.2929688, 2.9835, -0.953125, 2.9835, 0.0800781, , , , , , , , , , , , , , , , , , , , , , 
0.1152692, 0.0250095, 2.997, -0.390625, 2.997, -0.918457, 2.997, 0.1694336, 0.1152692, -0.0095674, 2.997, 0.4135742, 2.997, -0.7675781, 2.997, -0.03125, 0.1152692, -0.012253, 2.997, 0.3046875, 2.997, -0.9423828, 2.997, -0.3125, 0.1152692, 0.012253, 2.997, 0.2568359, 2.997, -0.9760742, 2.997, 0.1494141, , , , , , , , , , , , , , , , , , , , , , 
0.1157885, 0.0203098, 3.0105, -0.3349609, 3.0105, -0.9750977, 3.0105, 0.1083984, 0.1157885, -0.0090639, 3.0105, 0.3398438, 3.0105, -0.9404297, 3.0105, -0.0400391, 0.1157885, -0.0132601, 3.0105, 0.2543945, 3.0105, -0.9560547, 3.0105, -0.3608398, 0.1157885, 0.0092317, 3.0105, 0.253418, 3.0105, -0.9692383, 3.0105, 0.1464844, , , , , , , , , , , , , , , , , , , , , , 
0.1163077, 0.01561, 3.024, -0.3168945, 3.024, -1.0537109, 3.024, 0.09375, 0.1163077, -0.0070497, 3.024, 0.3032227, 3.024, -1.1201172, 3.024, -0.0834961, 0.1163077, -0.0139315, 3.024, 0.2143555, 3.024, -0.96875, 3.024, -0.3725586, 0.1163077, 0.0058747, 3.024, 0.2641602, 3.024, -0.9750977, 3.024, 0.1176758, , , , , , , , , , , , , , , , , , , , , , 
0.1168269, 0.012253, 3.0375, -0.3100586, 3.0375, -1.0527344, 3.0375, 0.1210938, 0.1168269, -0.005539, 3.0375, 0.4047852, 3.0375, -1.1044922, 3.0375, -0.0766602, 0.1168269, -0.0129244, 3.0375, 0.2304688, 3.0375, -0.9799805, 3.0375, -0.3579102, 0.1168269, 0.0025177, 3.0375, 0.2783203, 3.0375, -0.9960938, 3.0375, 0.0708008, , , , , , , , , , , , , , , , , , , , , , 
0.1173462, 0.0085603, 3.051, -0.2441406, 3.051, -0.9985352, 3.051, 0.0844727, 0.1173462, -0.0075532, 3.051, 0.519043, 3.051, -0.9467773, 3.051, -0.0371094, 0.1173462, -0.0109102, 3.051, 0.2246094, 3.051, -0.9604492, 3.051, -0.340332, 0.1173462, 0.0011749, 3.051, 0.2880859, 3.051, -0.9814453, 3.051, 0.0512695, , , , , , , , , , , , , , , , , , , , , , 
0.1178654, 0.0070497, 3.0645, -0.296875, 3.0645, -0.9897461, 3.0645, 0.0766602, 0.1178654, -0.008896, 3.0645, 0.5185547, 3.0645, -0.8798828, 3.0645, -0.027832, 0.1178654, -0.008896, 3.0645, 0.2412109, 3.0645, -0.9501953, 3.0645, -0.3686523, 0.1178654, 0.002182, 3.0645, 0.2939453, 3.0645, -0.9584961, 3.0645, 0.0546875, , , , , , , , , , , , , , , , , , , , , , 
0.1183846, 0.0092317, 3.078, -0.355957, 3.078, -1.003418, 3.078, 0.0820312, 0.1183846, -0.0082246, 3.078, 0.409668, 3.078, -0.9443359, 3.078, -0.0576172, 0.1183846, -0.008896, 3.078, 0.2666016, 3.078, -0.956543, 3.078, -0.3808594, 0.1183846, 0.0031891, 3.078, 0.3461914, 3.078, -0.9355469, 3.078, 0.0708008, , , , , , , , , , , , , , , , , , , , , , 
0.1189038, 0.0117494, 3.0915, -0.3510742, 3.0915, -1.0112305, 3.0915, 0.1025391, 0.1189038, -0.0078889, 3.0915, 0.440918, 3.0915, -0.9155273, 3.0915, -0.2749023, 0.1189038, -0.0105745, 3.0915, 0.3007812, 3.0915, -0.9555664, 3.0915, -0.4208984, 0.1189038, 0.0028534, 3.0915, 0.4423828, 3.0915, -0.9526367, 3.0915, 0.0791016, , , , , , , , , , , , , , , , , , , , , , 
0.1194231, 0.0092317, 3.105, -0.2915039, 3.105, -1.0703125, 3.105, 0.2495117, 0.1194231, -0.0082246, 3.105, 0.4257812, 3.105, -0.9414062, 3.105, -0.1713867, 0.1194231, -0.0115816, 3.105, 0.3793945, 3.105, -0.9599609, 3.105, -0.3208008, 0.1194231, 0.0001678, 3.105, 0.4980469, 3.105, -0.9765625, 3.105, 0.0683594, , , , , , , , , , , , , , , , , , , , , , 
0.1199423, -0.0041962, 3.1185, -0.2280273, 3.1185, -1.0522461, 3.1185, 0.2739258, 0.1199423, -0.008896, 3.1185, 0.4389648, 3.1185, -0.9628906, 3.1185, -0.1591797, 0.1199423, -0.0119173, 3.1185, 0.4345703, 3.1185, -0.9931641, 3.1185, -0.3374023, 0.1199423, -0.0023499, 3.1185, 0.4604492, 3.1185, -1.0126953, 3.1185, 0.0864258, , , , , , , , , , , , , , , , , , , , , , 
0.1204615, -0.0260166, 3.132, -0.3212891, 3.132, -0.9375, 3.132, 0.2250977, 0.1204615, -0.0063783, 3.132, 0.4428711, 3.132, -0.984375, 3.132, -0.1069336, 0.1204615, -0.0127565, 3.132, 0.4355469, 3.132, -0.9770508, 3.132, -0.3422852, 0.1204615, -0.0109102, 3.132, 0.3603516, 3.132, -1.043457, 3.132, 0.1860352, , , , , , , , , , , , , , , , , , , , , , 
0.1209808, -0.0458228, 3.1455, -0.5102539, 3.1455, -0.9541016, 3.1455, 0.1762695, 0.1209808, -0.0048676, 3.1455, 0.4614258, 3.1455, -0.9365234, 3.1455, -0.0683594, 0.1209808, -0.0135958, 3.1455, 0.4277344, 3.1455, -1.0273438, 3.1455, -0.2822266, 0.1209808, -0.0216526, 3.1455, 0.2744141, 3.1455, -1.0512695, 3.1455, 0.2626953, , , , , , , , , , , , , , , , , , , , , , 
0.1215, -0.0632792, 3.159, -0.4814453, 3.159, -0.9472656, 3.159, 0.1464844, 0.1215, -0.0050355, 3.159, 0.5366211, 3.159, -0.9101562, 3.159, -0.0395508, 0.1215, -0.0142672, 3.159, 0.3310547, 3.159, -1.0537109, 3.159, -0.2475586, 0.1215, -0.0283665, 3.159, 0.1782227, 3.159, -1.0600586, 3.159, 0.2524414, , , , , , , , , , , , , , , , , , , , , , 
0.1220192, -0.0758679, 3.1725, -0.4291992, 3.1725, -0.8608398, 3.1725, 0.1196289, 0.1220192, -0.0041962, 3.1725, 0.5073242, 3.1725, -0.8305664, 3.1725, 0.0126953, 0.1220192, -0.0137636, 3.1725, 0.2797852, 3.1725, -1.0463867, 3.1725, -0.2280273, 0.1220192, -0.0317235, 3.1725, 0.0400391, 3.1725, -1.0483398, 3.1725, 0.21875, , , , , , , , , , , , , , , , , , , , , , 
0.1225385, -0.0827497, 3.186, -0.4545898, 3.186, -0.9042969, 3.186, 0.0825195, 0.1225385, -0.0035248, 3.186, 0.4438477, 3.186, -0.8486328, 3.186, 0.0620117, 0.1225385, -0.0139315, 3.186, 0.2075195, 3.186, -0.9912109, 3.186, -0.2524414, 0.1225385, -0.0320592, 3.186, -0.0205078, 3.186, -0.9941406, 3.186, 0.1992188, , , , , , , , , , , , , , , , , , , , , , 
0.1230577, -0.0834211, 3.1995, -0.4414062, 3.1995, -0.9384766, 3.1995, 0.0981445, 0.1230577, -0.0008392, 3.1995, 0.4023438, 3.1995, -0.9140625, 3.1995, -0.0424805, 0.1230577, -0.0142672, 3.1995, 0.2109375, 3.1995, -0.9443359, 3.1995, -0.2905273, 0.1230577, -0.0276951, 3.1995, 0.081543, 3.1995, -0.9423828, 3.1995, 0.1503906, , , , , , , , , , , , , , , , , , , , , , 
0.1235769, -0.0807355, 3.213, -0.2836914, 3.213, -1.0180664, 3.213, 0.1865234, 0.1235769, -0.0001678, 3.213, 0.3574219, 3.213, -0.9443359, 3.213, -0.1459961, 0.1235769, -0.0152743, 3.213, 0.2509766, 3.213, -0.9155273, 3.213, -0.3837891, 0.1235769, -0.0209812, 3.213, 0.1772461, 3.213, -0.9335938, 3.213, 0.1230469, , , , , , , , , , , , , , , , , , , , , , 
0.1240962, -0.0746929, 3.2265, -0.1210938, 3.2265, -1.0068359, 3.2265, 0.234375, 0.1240962, -0.0015106, 3.2265, 0.3740234, 3.2265, -0.925293, 3.2265, -0.1831055, 0.1240962, -0.0149386, 3.2265, 0.355957, 3.2265, -0.8847656, 3.2265, -0.3388672, 0.1240962, -0.012253, 3.2265, 0.3867188, 3.2265, -0.9375, 3.2265, 0.0488281, , , , , , , , , , , , , , , , , , , , , , 
0.1246154, -0.0632792, 3.24, -0.2084961, 3.24, -0.7885742, 3.24, 0.1743164, 0.1246154, -0.0028534, 3.24, 0.3847656, 3.24, -0.8334961, 3.24, -0.1611328, 0.1246154, -0.0124208, 3.24, 0.3325195, 3.24, -0.847168, 3.24, -0.2265625, 0.1246154, -0.0028534, 3.24, 0.5097656, 3.24, -0.9257812, 3.24, -0.0029297, , , , , , , , , , , , , , , , , , , , , , 
0.1251346, -0.0508583, 3.2535, -0.300293, 3.2535, -0.6855469, 3.2535, 0.0888672, 0.1251346, -0.0050355, 3.2535, 0.3515625, 3.2535, -0.6352539, 3.2535, 0.0009766, 0.1251346, -0.0105745, 3.2535, 0.2724609, 3.2535, -0.8442383, 3.2535, -0.2451172, 0.1251346, 0.0041962, 3.2535, 0.3823242, 3.2535, -0.8432617, 3.2535, 0.0415039, , , , , , , , , , , , , , , , , , , , , , 
0.1256538, -0.0354162, 3.267, -0.5683594, 3.267, -0.7504883, 3.267, 0.0717773, 0.1256538, -0.005539, 3.267, 0.496582, 3.267, -0.7416992, 3.267, -0.0004883, 0.1256538, -0.0099031, 3.267, 0.1972656, 3.267, -0.8828125, 3.267, -0.3457031, 0.1256538, 0.0105745, 3.267, 0.1987305, 3.267, -0.78125, 3.267, 0.1479492, , , , , , , , , , , , , , , , , , , , , , 
0.1261731, -0.0159457, 3.2805, -0.5639648, 3.2805, -0.9438477, 3.2805, 0.0668945, 0.1261731, -0.0048676, 3.2805, 0.4633789, 3.2805, -1.0058594, 3.2805, -0.0014648, 0.1261731, -0.0092317, 3.2805, 0.2832031, 3.2805, -0.9667969, 3.2805, -0.3120117, 0.1261731, 0.0203098, 3.2805, 0.2236328, 3.2805, -0.8378906, 3.2805, 0.1601562, , , , , , , , , , , , , , , , , , , , , , 
0.1266923, 0.0083925, 3.294, -0.1835938, 3.294, -0.8994141, 3.294, 0.1152344, 0.1266923, -0.0052033, 3.294, 0.0239258, 3.294, -1.1723633, 3.294, -0.1938477, 0.1266923, -0.0072175, 3.294, 0.3378906, 3.294, -0.894043, 3.294, -0.2880859, 0.1266923, 0.0320592, 3.294, 0.3139648, 3.294, -0.9633789, 3.294, 0.0698242, , , , , , , , , , , , , , , , , , , , , , 
0.1272115, 0.030045, 3.3075, -0.0585938, 3.3075, -0.9101562, 3.3075, 0.1796875, 0.1272115, -0.0062104, 3.3075, 0.2792969, 3.3075, -1.003418, 3.3075, -0.0400391, 0.1272115, -0.005539, 3.3075, 0.3198242, 3.3075, -0.840332, 3.3075, -0.3183594, 0.1272115, 0.0421302, 3.3075, 0.3100586, 3.3075, -0.9833984, 3.3075, 0.0581055, , , , , , , , , , , , , , , , , , , , , , 
0.1277308, 0.0471656, 3.321, -0.3164062, 3.321, -1.0595703, 3.321, 0.109375, 0.1277308, -0.0062104, 3.321, 0.3505859, 3.321, -0.9462891, 3.321, -0.1391602, 0.1277308, -0.0043641, 3.321, 0.2514648, 3.321, -0.7827148, 3.321, -0.4316406, 0.1277308, 0.0501869, 3.321, 0.3066406, 3.321, -0.8579102, 3.321, 0.1699219, , , , , , , , , , , , , , , , , , , , , , 
0.12825, 0.0676432, 3.3345, -0.3168945, 3.3345, -1.1313477, 3.3345, 0.1123047, 0.12825, -0.0080568, 3.3345, 0.3935547, 3.3345, -0.8964844, 3.3345, 0.0073242, 0.12825, -0.0041962, 3.3345, 0.300293, 3.3345, -0.8720703, 3.3345, -0.4335938, 0.12825, 0.0562295, 3.3345, 0.3847656, 3.3345, -0.8251953, 3.3345, 0.2441406, , , , , , , , , , , , , , , , , , , , , , 
0.1287692, 0.0906386, 3.348, -0.1821289, 3.348, -1.0458984, 3.348, 0.0541992, 0.1287692, -0.011078, 3.348, 0.7504883, 3.348, -0.609375, 3.348, 0.0825195, 0.1287692, -0.0028534, 3.348, 0.3793945, 3.348, -0.9584961, 3.348, -0.4472656, 0.1287692, 0.0616007, 3.348, 0.4492188, 3.348, -1.0102539, 3.348, 0.1918945, , , , , , , , , , , , , , , , , , , , , , 
0.1292885, 0.1116197, 3.3615, -0.0581055, 3.3615, -0.9580078, 3.3615, 0.1411133, 0.1292885, -0.0129244, 3.3615, 0.5776367, 3.3615, -0.7949219, 3.3615, 0.0488281, 0.1292885, -0.0018463, 3.3615, 0.4125977, 3.3615, -0.9428711, 3.3615, -0.3647461, 0.1292885, 0.0629435, 3.3615, 0.4350586, 3.3615, -1.0864258, 3.3615, 0.1396484, , , , , , , , , , , , , , , , , , , , , , 
0.1298077, 0.1176623, 3.375, -0.1508789, 3.375, -0.9814453, 3.375, 0.1582031, 0.1298077, -0.0115816, 3.375, 0.4575195, 3.375, -0.9443359, 3.375, -0.019043, 0.1298077, -0.0010071, 3.375, 0.3149414, 3.375, -0.8613281, 3.375, -0.3652344, 0.1298077, 0.0616007, 3.375, 0.3378906, 3.375, -1.0234375, 3.375, 0.0991211, , , , , , , , , , , , , , , , , , , , , , 
0.1303269, 0.1096056, 3.3885, -0.3486328, 3.3885, -1.0473633, 3.3885, 0.1567383, 0.1303269, -0.0102388, 3.3885, 0.2841797, 3.3885, -0.9570312, 3.3885, -0.0473633, 0.1303269, -0.0011749, 3.3885, 0.2700195, 3.3885, -0.8974609, 3.3885, -0.3217773, 0.1303269, 0.0555581, 3.3885, 0.2680664, 3.3885, -0.8374023, 3.3885, 0.1474609, , , , , , , , , , , , , , , , , , , , , , 
0.1308462, 0.0941634, 3.402, -0.4121094, 3.402, -1.0180664, 3.402, 0.0732422, 0.1308462, -0.0102388, 3.402, 0.3569336, 3.402, -1.0429688, 3.402, -0.0327148, 0.1308462, -0.0031891, 3.402, 0.3061523, 3.402, -1.0214844, 3.402, -0.359375, 0.1308462, 0.045655, 3.402, 0.2983398, 3.402, -0.8232422, 3.402, 0.1928711, , , , , , , , , , , , , , , , , , , , , , 
0.1313654, 0.0814069, 3.4155, -0.4448242, 3.4155, -1.0009766, 3.4155, 0.0737305, 0.1313654, -0.0102388, 3.4155, 0.4165039, 3.4155, -0.9580078, 3.4155, 0.0239258, 0.1313654, -0.0041962, 3.4155, 0.3203125, 3.4155, -1.0419922, 3.4155, -0.2963867, 0.1313654, 0.0357519, 3.4155, 0.3686523, 3.4155, -1.0019531, 3.4155, 0.0810547, , , , , , , , , , , , , , , , , , , , , , 
0.1318846, 0.0750286, 3.429, -0.3271484, 3.429, -0.8759766, 3.429, 0.1191406, 0.1318846, -0.0097353, 3.429, 0.4208984, 3.429, -0.9091797, 3.429, -0.0791016, 0.1318846, -0.0028534, 3.429, 0.3178711, 3.429, -0.9863281, 3.429, -0.3085938, 0.1318846, 0.0298772, 3.429, 0.3994141, 3.429, -1.0693359, 3.429, 0.0146484, , , , , , , , , , , , , , , , , , , , , , 
0.1324038, 0.0693217, 3.4425, -0.2216797, 3.4425, -0.9375, 3.4425, 0.2246094, 0.1324038, -0.0109102, 3.4425, 0.4052734, 3.4425, -0.8535156, 3.4425, -0.1704102, 0.1324038, -0.0035248, 3.4425, 0.4047852, 3.4425, -0.8652344, 3.4425, -0.3632812, 0.1324038, 0.0256809, 3.4425, 0.3735352, 3.4425, -0.9589844, 3.4425, 0.09375, , , , , , , , , , , , , , , , , , , , , , 
0.1329231, 0.0609293, 3.456, -0.1196289, 3.456, -1.0844727, 3.456, 0.2963867, 0.1329231, -0.011078, 3.456, 0.3461914, 3.456, -0.8969727, 3.456, -0.1645508, 0.1329231, -0.0045319, 3.456, 0.3999023, 3.456, -0.8710938, 3.456, -0.3818359, 0.1329231, 0.0216526, 3.456, 0.4116211, 3.456, -0.8544922, 3.456, 0.246582, , , , , , , , , , , , , , , , , , , , , , 
0.1334423, 0.0532082, 3.4695, -0.1083984, 3.4695, -1.0322266, 3.4695, 0.2324219, 0.1334423, -0.0082246, 3.4695, 0.3554688, 3.4695, -0.9677734, 3.4695, -0.1279297, 0.1334423, -0.0053712, 3.4695, 0.3657227, 3.4695, -0.9238281, 3.4695, -0.3129883, 0.1334423, 0.0169528, 3.4695, 0.3334961, 3.4695, -0.859375, 3.4695, 0.2197266, , , , , , , , , , , , , , , , , , , , , , 
0.1339615, 0.0486763, 3.483, -0.2436523, 3.483, -0.8208008, 3.483, 0.1152344, 0.1339615, -0.0062104, 3.483, 0.3554688, 3.483, -0.9267578, 3.483, -0.1020508, 0.1339615, -0.0068818, 3.483, 0.2617188, 3.483, -0.9326172, 3.483, -0.2558594, 0.1339615, 0.0142672, 3.483, 0.1879883, 3.483, -0.8999023, 3.483, 0.1074219, , , , , , , , , , , , , , , , , , , , , , 
0.1344808, 0.0466621, 3.4965, -0.4360352, 3.4965, -0.722168, 3.4965, 0.105957, 0.1344808, -0.0068818, 3.4965, 0.4521484, 3.4965, -0.7387695, 3.4965, -0.0351562, 0.1344808, -0.0072175, 3.4965, 0.1586914, 3.4965, -0.8339844, 3.4965, -0.21875, 0.1344808, 0.0119173, 3.4965, 0.0771484, 3.4965, -0.8681641, 3.4965, 0.0756836, , , , , , , , , , , , , , , , , , , , , , 
0.135, 0.0387732, 3.51, -0.4790039, 3.51, -0.7832031, 3.51, 0.0961914, 0.135, -0.0078889, 3.51, 0.418457, 3.51, -0.815918, 3.51, -0.0175781, 0.135, -0.0072175, 3.51, 0.1577148, 3.51, -0.8144531, 3.51, -0.2421875, 0.135, 0.0092317, 3.51, 0.0742188, 3.51, -0.8251953, 3.51, 0.0766602, , , , , , , , , , , , , , , , , , , , , , 
0.1355192, 0.0270237, 3.5235, -0.3056641, 3.5235, -0.9057617, 3.5235, 0.1191406, 0.1355192, -0.0082246, 3.5235, 0.3291016, 3.5235, -0.9174805, 3.5235, -0.0083008, 0.1355192, -0.0068818, 3.5235, 0.2382812, 3.5235, -0.8740234, 3.5235, -0.2871094, 0.1355192, 0.0075532, 3.5235, 0.175293, 3.5235, -0.7919922, 3.5235, 0.0795898, , , , , , , , , , , , , , , , , , , , , , 
0.1360385, 0.0209812, 3.537, -0.1850586, 3.537, -0.984375, 3.537, 0.0874023, 0.1360385, -0.0082246, 3.537, 0.3413086, 3.537, -0.921875, 3.537, -0.0297852, 0.1360385, -0.0048676, 3.537, 0.2666016, 3.537, -0.9477539, 3.537, -0.2797852, 0.1360385, 0.0062104, 3.537, 0.3164062, 3.537, -0.8696289, 3.537, 0.0639648, , , , , , , , , , , , , , , , , , , , , , 
0.1365577, 0.0151064, 3.5505, -0.2084961, 3.5505, -0.949707, 3.5505, -0.0058594, 0.1365577, -0.0083925, 3.5505, 0.3696289, 3.5505, -0.9702148, 3.5505, -0.0205078, 0.1365577, -0.0048676, 3.5505, 0.2983398, 3.5505, -0.8916016, 3.5505, -0.4111328, 0.1365577, 0.0036927, 3.5505, 0.3759766, 3.5505, -0.9506836, 3.5505, 0.0473633, , , , , , , , , , , , , , , , , , , , , , 
0.1370769, 0.0102388, 3.564, -0.1108398, 3.564, -1.0566406, 3.564, 0.034668, 0.1370769, -0.0082246, 3.564, 0.4326172, 3.564, -0.8989258, 3.564, -0.0859375, 0.1370769, -0.0063783, 3.564, 0.3354492, 3.564, -0.8481445, 3.564, -0.4814453, 0.1370769, 0.0008392, 3.564, 0.40625, 3.564, -0.9331055, 3.564, 0.0864258, , , , , , , , , , , , , , , , , , , , , , 
0.1375962, 0.0112459, 3.5775, 0.0073242, 3.5775, -1.1147461, 3.5775, 0.0756836, 0.1375962, -0.0072175, 3.5775, 0.3198242, 3.5775, -0.9467773, 3.5775, -0.097168, 0.1375962, -0.0073854, 3.5775, 0.3222656, 3.5775, -0.793457, 3.5775, -0.4628906, 0.1375962, -0.002182, 3.5775, 0.4956055, 3.5775, -0.8588867, 3.5775, 0.144043, , , , , , , , , , , , , , , , , , , , , , 
0.1381154, 0.01561, 3.591, 0.1889648, 3.591, -1.1328125, 3.591, 0.0737305, 0.1381154, -0.0068818, 3.591, 0.152832, 3.591, -1.1806641, 3.591, -0.0576172, 0.1381154, -0.0041962, 3.591, 0.3198242, 3.591, -0.8432617, 3.591, -0.4423828, 0.1381154, -0.0048676, 3.591, 0.5009766, 3.591, -0.8237305, 3.591, 0.1357422, , , , , , , , , , , , , , , , , , , , , , 
0.1386346, 0.0135958, 3.6045, -0.0991211, 3.6045, -1.0678711, 3.6045, -0.0200195, 0.1386346, -0.0082246, 3.6045, 0.0668945, 3.6045, -1.2143555, 3.6045, -0.0058594, 0.1386346, -0.0011749, 3.6045, 0.2783203, 3.6045, -0.9335938, 3.6045, -0.3989258, 0.1386346, -0.0057069, 3.6045, 0.4360352, 3.6045, -0.8935547, 3.6045, 0.1259766, , , , , , , , , , , , , , , , , , , , , , 
0.1391538, 0.0085603, 3.618, -0.5048828, 3.618, -1.0161133, 3.618, -0.1416016, 0.1391538, -0.0093996, 3.618, 0.284668, 3.618, -0.9033203, 3.618, -0.03125, 0.1391538, -0.0028534, 3.618, 0.3125, 3.618, -0.9296875, 3.618, -0.4331055, 0.1391538, -0.0041962, 3.618, 0.3828125, 3.618, -0.9746094, 3.618, 0.1132812, , , , , , , , , , , , , , , , , , , , , , 
0.1396731, 0.0008392, 3.6315, -0.2280273, 3.6315, -0.9819336, 3.6315, -0.0146484, 0.1396731, -0.0099031, 3.6315, 0.2680664, 3.6315, -0.7495117, 3.6315, -0.0952148, 0.1396731, -0.0078889, 3.6315, 0.3022461, 3.6315, -0.8378906, 3.6315, -0.4995117, 0.1396731, -0.0041962, 3.6315, 0.4194336, 3.6315, -0.9306641, 3.6315, 0.0966797, , , , , , , , , , , , , , , , , , , , , , 
0.1401923, -0.018967, 3.645, 0.1640625, 3.645, -1.2119141, 3.645, 0.2260742, 0.1401923, -0.008896, 3.645, 0.2285156, 3.645, -0.9042969, 3.645, -0.128418, 0.1401923, -0.0115816, 3.645, 0.2993164, 3.645, -0.7910156, 3.645, -0.4272461, 0.1401923, -0.0112459, 3.645, 0.5058594, 3.645, -0.8305664, 3.645, 0.0756836, , , , , , , , , , , , , , , , , , , , , , 
0.1407115, -0.0446479, 3.6585, 0.0522461, 3.6585, -1.0678711, 3.6585, 0.1923828, 0.1407115, -0.0082246, 3.6585, 0.4394531, 3.6585, -1.1420898, 3.6585, -0.2753906, 0.1407115, -0.012253, 3.6585, 0.3173828, 3.6585, -0.8798828, 3.6585, -0.3798828, 0.1407115, -0.0219883, 3.6585, 0.5307617, 3.6585, -0.7885742, 3.6585, 0.0727539, , , , , , , , , , , , , , , , , , , , , , 
0.1412308, -0.064622, 3.672, -0.4233398, 3.672, -0.878418, 3.672, 0.1381836, 0.1412308, -0.0075532, 3.672, 0.4677734, 3.672, -1.1098633, 3.672, -0.1396484, 0.1412308, -0.0115816, 3.672, 0.4077148, 3.672, -0.9648438, 3.672, -0.3535156, 0.1412308, -0.0273594, 3.672, 0.4443359, 3.672, -0.855957, 3.672, 0.0991211, , , , , , , , , , , , , , , , , , , , , , 
0.14175, -0.0740215, 3.6855, -0.5473633, 3.6855, -0.9829102, 3.6855, 0.0644531, 0.14175, -0.0082246, 3.6855, 0.4604492, 3.6855, -0.918457, 3.6855, -0.0693359, 0.14175, -0.0104067, 3.6855, 0.4355469, 3.6855, -0.9775391, 3.6855, -0.3588867, 0.14175, -0.0283665, 3.6855, 0.3212891, 3.6855, -1.0322266, 3.6855, 0.1816406, , , , , , , , , , , , , , , , , , , , , , 
0.1422692, -0.0814069, 3.699, -0.3046875, 3.699, -1.065918, 3.699, 0.1289062, 0.1422692, -0.0070497, 3.699, 0.3706055, 3.699, -0.9599609, 3.699, -0.0737305, 0.1422692, -0.0102388, 3.699, 0.4306641, 3.699, -0.9472656, 3.699, -0.3701172, 0.1422692, -0.0290379, 3.699, 0.2675781, 3.699, -1.09375, 3.699, 0.2421875, , , , , , , , , , , , , , , , , , , , , , 
0.1427885, -0.0847639, 3.7125, -0.1079102, 3.7125, -1.0664062, 3.7125, 0.1796875, 0.1427885, -0.0063783, 3.7125, 0.3212891, 3.7125, -0.9980469, 3.7125, -0.0839844, 0.1427885, -0.0125887, 3.7125, 0.3081055, 3.7125, -0.9238281, 3.7125, -0.3735352, 0.1427885, -0.0293736, 3.7125, 0.2626953, 3.7125, -0.9804688, 3.7125, 0.2436523, , , , , , , , , , , , , , , , , , , , , , 
0.1433077, -0.0834211, 3.726, -0.1713867, 3.726, -1.034668, 3.726, 0.2021484, 0.1433077, -0.0068818, 3.726, 0.3408203, 3.726, -0.9936523, 3.726, -0.1005859, 0.1433077, -0.0125887, 3.726, 0.2368164, 3.726, -0.9189453, 3.726, -0.3378906, 0.1433077, -0.0260166, 3.726, 0.2495117, 3.726, -0.9003906, 3.726, 0.2119141, , , , , , , , , , , , , , , , , , , , , , 
0.1438269, -0.0762036, 3.7395, -0.3344727, 3.7395, -0.9941406, 3.7395, 0.2021484, 0.1438269, -0.0068818, 3.7395, 0.4853516, 3.7395, -0.9511719, 3.7395, 0.1303711, 0.1438269, -0.0115816, 3.7395, 0.2724609, 3.7395, -0.9887695, 3.7395, -0.28125, 0.1438269, -0.018967, 3.7395, 0.1928711, 3.7395, -0.9150391, 3.7395, 0.1523438, , , , , , , , , , , , , , , , , , , , , , 
0.1443462, -0.066804, 3.753, -0.5019531, 3.753, -0.9140625, 3.753, 0.0498047, 0.1443462, -0.0068818, 3.753, 0.6787109, 3.753, -0.8637695, 3.753, -0.1254883, 0.1443462, -0.012253, 3.753, 0.2314453, 3.753, -0.9912109, 3.753, -0.2558594, 0.1443462, -0.0102388, 3.753, 0.1455078, 3.753, -0.9838867, 3.753, 0.1098633, , , , , , , , , , , , , , , , , , , , , , 
0.1448654, -0.0552224, 3.7665, -0.4326172, 3.7665, -0.9477539, 3.7665, 0.1489258, 0.1448654, -0.0095674, 3.7665, 0.4316406, 3.7665, -0.840332, 3.7665, 0.0634766, 0.1448654, -0.0135958, 3.7665, 0.2680664, 3.7665, -0.9418945, 3.7665, -0.3706055, 0.1448654, -0.0015106, 3.7665, 0.1962891, 3.7665, -1.0541992, 3.7665, 0.1635742, , , , , , , , , , , , , , , , , , , , , , 
0.1453846, -0.0407874, 3.78, -0.4047852, 3.78, -0.9677734, 3.78, -0.0361328, 0.1453846, -0.0115816, 3.78, 0.2817383, 3.78, -0.9692383, 3.78, -0.2329102, 0.1453846, -0.0132601, 3.78, 0.3032227, 3.78, -0.9296875, 3.78, -0.4511719, 0.1453846, 0.0068818, 3.78, 0.3291016, 3.78, -1.0180664, 3.78, 0.2338867, , , , , , , , , , , , , , , , , , , , , , 
0.1459038, -0.0251774, 3.7935, -0.2358398, 3.7935, -1.2651367, 3.7935, 0.4907227, 0.1459038, -0.0115816, 3.7935, 0.1191406, 3.7935, -1.1186523, 3.7935, -0.2094727, 0.1459038, -0.012253, 3.7935, 0.4584961, 3.7935, -0.9750977, 3.7935, -0.5263672, 0.1459038, 0.0159457, 3.7935, 0.5146484, 3.7935, -1.0151367, 3.7935, 0.1357422, , , , , , , , , , , , , , , , , , , , , , 
0.1464231, -0.0058747, 3.807, -0.0200195, 3.807, -1.3242188, 3.807, 0.2504883, 0.1464231, -0.0109102, 3.807, 0.5864258, 3.807, -1.1123047, 3.807, -0.0268555, 0.1464231, -0.0119173, 3.807, 0.4692383, 3.807, -1.0517578, 3.807, -0.0639648, 0.1464231, 0.0253452, 3.807, 0.6186523, 3.807, -1.0195312, 3.807, 0.0742188, , , , , , , , , , , , , , , , , , , , , , 
0.1469423, 0.0181277, 3.8205, -0.4052734, 3.8205, -0.512207, 3.8205, 0.1450195, 0.1469423, -0.0099031, 3.8205, 0.7749023, 3.8205, -0.6083984, 3.8205, 0.0063477, 0.1469423, -0.0125887, 3.8205, 0.4345703, 3.8205, -1.1015625, 3.8205, -0.034668, 0.1469423, 0.0352483, 3.8205, 0.4780273, 3.8205, -0.9516602, 3.8205, 0.078125, , , , , , , , , , , , , , , , , , , , , , 
0.1474615, 0.0428016, 3.834, -0.6635742, 3.834, -0.4863281, 3.834, 0.0932617, 0.1474615, -0.0082246, 3.834, 0.5429688, 3.834, -0.3720703, 3.834, -0.0166016, 0.1474615, -0.0109102, 3.834, 0.3720703, 3.834, -1.0361328, 3.834, -0.3027344, 0.1474615, 0.0438087, 3.834, 0.0786133, 3.834, -0.9863281, 3.834, 0.0756836, , , , , , , , , , , , , , , , , , , , , , 
0.1479808, 0.0626078, 3.8475, -0.5908203, 3.8475, -0.8945312, 3.8475, 0.1489258, 0.1479808, -0.0080568, 3.8475, 0.4208984, 3.8475, -0.5761719, 3.8475, 0.0014648, 0.1479808, -0.0085603, 3.8475, 0.2978516, 3.8475, -0.8496094, 3.8475, -0.2421875, 0.1479808, 0.0528725, 3.8475, 0.0463867, 3.8475, -0.9628906, 3.8475, 0.262207, , , , , , , , , , , , , , , , , , , , , , 
0.1485, 0.079057, 3.861, -0.3261719, 3.861, -0.9536133, 3.861, 0.1826172, 0.1485, -0.008896, 3.861, 0.2949219, 3.861, -0.9433594, 3.861, -0.0722656, 0.1485, -0.0072175, 3.861, 0.1591797, 3.861, -0.847168, 3.861, -0.2827148, 0.1485, 0.0595865, 3.861, 0.1923828, 3.861, -0.8100586, 3.861, 0.2402344, , , , , , , , , , , , , , , , , , , , , , 
0.1490192, 0.0951705, 3.8745, -0.1269531, 3.8745, -0.9443359, 3.8745, 0.1362305, 0.1490192, -0.0078889, 3.8745, 0.3876953, 3.8745, -0.9331055, 3.8745, -0.0424805, 0.1490192, -0.0043641, 3.8745, 0.1914062, 3.8745, -0.9262695, 3.8745, -0.3129883, 0.1490192, 0.0632792, 3.8745, 0.2460938, 3.8745, -0.777832, 3.8745, -0.012207, , , , , , , , , , , , , , , , , , , , , , 
0.1495385, 0.1085985, 3.888, -0.3759766, 3.888, -1.0058594, 3.888, 0.1030273, 0.1495385, -0.0082246, 3.888, 0.5698242, 3.888, -0.8842773, 3.888, 0.0390625, 0.1495385, -0.002182, 3.888, 0.2773438, 3.888, -0.9228516, 3.888, -0.3808594, 0.1495385, 0.0639506, 3.888, 0.3178711, 3.888, -0.949707, 3.888, -0.0151367, , , , , , , , , , , , , , , , , , , , , , 
0.1500577, 0.1106126, 3.9015, -0.515625, 3.9015, -1.0073242, 3.9015, 0.0830078, 0.1500577, -0.010071, 3.9015, 0.5073242, 3.9015, -1.0473633, 3.9015, -0.0727539, 0.1500577, -0.0028534, 3.9015, 0.3657227, 3.9015, -0.9633789, 3.9015, -0.3457031, 0.1500577, 0.0602579, 3.9015, 0.4121094, 3.9015, -1.0966797, 3.9015, 0.112793, , , , , , , , , , , , , , , , , , , , , , 
0.1505769, 0.0995346, 3.915, -0.3886719, 3.915, -0.9658203, 3.915, 0.1801758, 0.1505769, -0.0109102, 3.915, 0.3642578, 3.915, -1.0361328, 3.915, -0.0751953, 0.1505769, -0.0045319, 3.915, 0.3720703, 3.915, -0.9863281, 3.915, -0.3974609, 0.1505769, 0.0505226, 3.915, 0.4282227, 3.915, -1.0595703, 3.915, 0.1635742, , , , , , , , , , , , , , , , , , , , , , 
0.1510962, 0.085771, 3.9285, -0.2397461, 3.9285, -1.03125, 3.9285, 0.2709961, 0.1510962, -0.0097353, 3.9285, 0.4487305, 3.9285, -0.8525391, 3.9285, -0.0332031, 0.1510962, -0.005539, 3.9285, 0.3110352, 3.9285, -0.9506836, 3.9285, -0.2529297, 0.1510962, 0.0397803, 3.9285, 0.3369141, 3.9285, -0.9404297, 3.9285, 0.2456055, , , , , , , , , , , , , , , , , , , , , , 
0.1516154, 0.0760357, 3.942, -0.3266602, 3.942, -0.8779297, 3.942, 0.0283203, 0.1516154, -0.0082246, 3.942, 0.394043, 3.942, -0.9604492, 3.942, 0.0185547, 0.1516154, -0.0041962, 3.942, 0.402832, 3.942, -0.9824219, 3.942, -0.4648438, 0.1516154, 0.03122, 3.942, 0.1660156, 3.942, -0.9116211, 3.942, 0.2773438, , , , , , , , , , , , , , , , , , , , , , 
0.1521346, 0.0666361, 3.9555, -0.3676758, 3.9555, -1.0908203, 3.9555, 0.0507812, 0.1521346, -0.0090639, 3.9555, 0.3828125, 3.9555, -1.1362305, 3.9555, -0.046875, 0.1521346, -0.0028534, 3.9555, 0.4189453, 3.9555, -0.9975586, 3.9555, -0.3984375, 0.1521346, 0.026688, 3.9555, 0.1542969, 3.9555, -0.9741211, 3.9555, 0.1933594, , , , , , , , , , , , , , , , , , , , , , 
0.1526538, 0.0585794, 3.969, -0.2548828, 3.969, -1.0864258, 3.969, 0.1723633, 0.1526538, -0.0095674, 3.969, 0.3208008, 3.969, -1.1157227, 3.969, 0.012207, 0.1526538, -0.0041962, 3.969, 0.2119141, 3.969, -0.9306641, 3.969, -0.3383789, 0.1526538, 0.0240024, 3.969, 0.3286133, 3.969, -1.050293, 3.969, 0.1225586, , , , , , , , , , , , , , , , , , , , , , 
0.1531731, 0.0505226, 3.9825, -0.2924805, 3.9825, -0.8442383, 3.9825, 0.1811523, 0.1531731, -0.0085603, 3.9825, 0.3720703, 3.9825, -0.8447266, 3.9825, -0.0595703, 0.1531731, -0.0072175, 3.9825, 0.222168, 3.9825, -0.9121094, 3.9825, -0.2675781, 0.1531731, 0.0199741, 3.9825, 0.3769531, 3.9825, -0.9775391, 3.9825, 0.0463867, , , , , , , , , , , , , , , , , , , , , , 
0.1536923, 0.0433051, 3.996, -0.4404297, 3.996, -0.8911133, 3.996, 0.1186523, 0.1536923, -0.0078889, 3.996, 0.5083008, 3.996, -0.7514648, 3.996, -0.0263672, 0.1536923, -0.0082246, 3.996, 0.3208008, 3.996, -0.9487305, 3.996, -0.3217773, 0.1536923, 0.0146029, 3.996, 0.2895508, 3.996, -0.8774414, 3.996, 0.0102539, , , , , , , , , , , , , , , , , , , , , , 
0.1542115, 0.0411231, 4.0095, -0.4272461, 4.0095, -0.9711914, 4.0095, 0.0405273, 0.1542115, -0.0075532, 4.0095, 0.5092773, 4.0095, -0.9072266, 4.0095, 0.0336914, 0.1542115, -0.008896, 4.0095, 0.2797852, 4.0095, -0.9560547, 4.0095, -0.2685547, 0.1542115, 0.0105745, 4.0095, 0.2558594, 4.0095, -0.8710938, 4.0095, 0.043457, , , , , , , , , , , , , , , , , , , , , , 
0.1547308, 0.0370947, 4.023, -0.2939453, 4.023, -1.0546875, 4.023, 0.0214844, 0.1547308, -0.0090639, 4.023, 0.3862305, 4.023, -1.0263672, 4.023, -0.0087891, 0.1547308, -0.0102388, 4.023, 0.2080078, 4.023, -0.9550781, 4.023, -0.3833008, 0.1547308, 0.0065461, 4.023, 0.2358398, 4.023, -0.9648438, 4.023, 0.1098633, , , , , , , , , , , , , , , , , , , , , , 
0.15525, 0.0280308, 4.0365, -0.2158203, 4.0365, -1.1064453, 4.0365, 0.0712891, 0.15525, -0.0099031, 4.0365, 0.2993164, 4.0365, -1.0175781, 4.0365, -0.0073242, 0.15525, -0.011078, 4.0365, 0.2241211, 4.0365, -0.9741211, 4.0365, -0.3886719, 0.15525, 0.0035248, 4.0365, 0.3007812, 4.0365, -1.0400391, 4.0365, 0.1137695, , , , , , , , , , , , , , , , , , , , , , 
0.1557692, 0.023331, 4.05, -0.25, 4.05, -1.0844727, 4.05, 0.0825195, 0.1557692, -0.008896, 4.05, 0.3203125, 4.05, -1.0341797, 4.05, -0.0942383, 0.1557692, -0.0095674, 4.05, 0.3457031, 4.05, -1.0063477, 4.05, -0.394043, 0.1557692, 0.002182, 4.05, 0.4360352, 4.05, -1.0263672, 4.05, 0.0688477, , , , , , , , , , , , , , , , , , , , , , 
0.1562885, 0.0219883, 4.0635, -0.3110352, 4.0635, -1.105957, 4.0635, 0.0917969, 0.1562885, -0.0085603, 4.0635, 0.3979492, 4.0635, -1.1030273, 4.0635, -0.0537109, 0.1562885, -0.008896, 4.0635, 0.3876953, 4.0635, -1.0126953, 4.0635, -0.3867188, 0.1562885, 0.0018463, 4.0635, 0.53125, 4.0635, -1.0117188, 4.0635, 0.0600586, , , , , , , , , , , , , , , , , , , , , , 
0.1568077, 0.0159457, 4.077, -0.3071289, 4.077, -1.0996094, 4.077, 0.0683594, 0.1568077, -0.008896, 4.077, 0.4169922, 4.077, -1.1577148, 4.077, -0.0141602, 0.1568077, -0.0102388, 4.077, 0.4111328, 4.077, -1.0151367, 4.077, -0.3823242, 0.1568077, 0.0025177, 4.077, 0.4960938, 4.077, -1.0439453, 4.077, 0.0698242, , , , , , , , , , , , , , , , , , , , , , 
0.1573269, 0.0099031, 4.0905, -0.3198242, 4.0905, -1.081543, 4.0905, 0.0800781, 0.1573269, -0.0083925, 4.0905, 0.4213867, 4.0905, -1.1083984, 4.0905, -0.0014648, 0.1573269, -0.0095674, 4.0905, 0.3671875, 4.0905, -1.0595703, 4.0905, -0.3354492, 0.1573269, 0.0038605, 4.0905, 0.3417969, 4.0905, -1.0766602, 4.0905, 0.0869141, , , , , , , , , , , , , , , , , , , , , , 
0.1578462, 0.0078889, 4.104, -0.3808594, 4.104, -1.0200195, 4.104, 0.112793, 0.1578462, -0.0085603, 4.104, 0.4536133, 4.104, -0.878418, 4.104, -0.0234375, 0.1578462, -0.0072175, 4.104, 0.2319336, 4.104, -1.0541992, 4.104, -0.3154297, 0.1578462, 0.0025177, 4.104, 0.2431641, 4.104, -1.0795898, 4.104, 0.1186523, , , , , , , , , , , , , , , , , , , , , , 
0.1583654, 0.0072175, 4.1175, -0.4365234, 4.1175, -1.0166016, 4.1175, 0.1289062, 0.1583654, -0.0085603, 4.1175, 0.4023438, 4.1175, -0.9633789, 4.1175, -0.0727539, 0.1583654, -0.0062104, 4.1175, 0.2319336, 4.1175, -1.0161133, 4.1175, -0.3320312, 0.1583654, 0.0008392, 4.1175, 0.0996094, 4.1175, -1.078125, 4.1175, 0.1938477, , , , , , , , , , , , , , , , , , , , , , 
0.1588846, 0.005539, 4.131, -0.3242188, 4.131, -1.0859375, 4.131, 0.2524414, 0.1588846, -0.0090639, 4.131, 0.3652344, 4.131, -1.0571289, 4.131, -0.0229492, 0.1588846, -0.0082246, 4.131, 0.3393555, 4.131, -1.0126953, 4.131, -0.347168, 0.1588846, 0.0001678, 4.131, 0.1435547, 4.131, -1.0722656, 4.131, 0.25, , , , , , , , , , , , , , , , , , , , , , 
0.1594038, 0.0028534, 4.1445, -0.2529297, 4.1445, -1.1308594, 4.1445, 0.1733398, 0.1594038, -0.0097353, 4.1445, 0.3647461, 4.1445, -1.1049805, 4.1445, 0.0019531, 0.1594038, -0.0082246, 4.1445, 0.4541016, 4.1445, -1.0175781, 4.1445, -0.3613281, 0.1594038, -0.0003357, 4.1445, 0.2758789, 4.1445, -1.0639648, 4.1445, 0.2250977, , , , , , , , , , , , , , , , , , , , , , 
0.1599231, -0.0070497, 4.158, -0.2890625, 4.158, -1.1074219, 4.158, 0.1606445, 0.1599231, -0.0109102, 4.158, 0.3544922, 4.158, -1.1137695, 4.158, 0.03125, 0.1599231, -0.0082246, 4.158, 0.3969727, 4.158, -1.0322266, 4.158, -0.3227539, 0.1599231, -0.0026856, 4.158, 0.3662109, 4.158, -1.1040039, 4.158, 0.1938477, , , , , , , , , , , , , , , , , , , , , , 
0.1604423, -0.0292058, 4.1715, -0.4052734, 4.1715, -1.0175781, 4.1715, 0.1264648, 0.1604423, -0.0092317, 4.1715, 0.3710938, 4.1715, -1.1308594, 4.1715, 0.0351562, 0.1604423, -0.0085603, 4.1715, 0.3339844, 4.1715, -1.0322266, 4.1715, -0.328125, 0.1604423, -0.0129244, 4.1715, 0.3266602, 4.1715, -1.1044922, 4.1715, 0.171875, , , , , , , , , , , , , , , , , , , , , , 
0.1609615, -0.051194, 4.185, -0.3457031, 4.185, -1.046875, 4.185, 0.1079102, 0.1609615, -0.0068818, 4.185, 0.2631836, 4.185, -1.2412109, 4.185, 0.0268555, 0.1609615, -0.0082246, 4.185, 0.3271484, 4.185, -1.0439453, 4.185, -0.3154297, 0.1609615, -0.0243381, 4.185, 0.2148438, 4.185, -1.0712891, 4.185, 0.1503906, , , , , , , , , , , , , , , , , , , , , , 
0.1614808, -0.0622721, 4.1985, -0.3388672, 4.1985, -1.1171875, 4.1985, -0.0268555, 0.1614808, -0.0065461, 4.1985, 0.6811523, 4.1985, -1.2626953, 4.1985, 0.03125, 0.1614808, -0.0068818, 4.1985, 0.2197266, 4.1985, -1.0268555, 4.1985, -0.3891602, 0.1614808, -0.0292058, 4.1985, 0.2138672, 4.1985, -1.019043, 4.1985, 0.1674805, , , , , , , , , , , , , , , , , , , , , , 
0.162, -0.070161, 4.212, -0.2744141, 4.212, -1.1977539, 4.212, 0.0893555, 0.162, -0.0072175, 4.212, 0.6557617, 4.212, -1.2436523, 4.212, -0.0322266, 0.162, -0.0082246, 4.212, 0.2167969, 4.212, -1.0307617, 4.212, -0.3862305, 0.162, -0.0307164, 4.212, 0.2719727, 4.212, -1.0170898, 4.212, 0.0986328, , , , , , , , , , , , , , , , , , , , , , 
0.1625192, -0.0807355, 4.2255, -0.1035156, 4.2255, -1.2460938, 4.2255, 0.0991211, 0.1625192, -0.0072175, 4.2255, 0.3320312, 4.2255, -0.980957, 4.2255, -0.0400391, 0.1625192, -0.0102388, 4.2255, 0.2382812, 4.2255, -1.0336914, 4.2255, -0.4580078, 0.1625192, -0.0327306, 4.2255, 0.4199219, 4.2255, -1.0927734, 4.2255, 0.0405273, , , , , , , , , , , , , , , , , , , , , , 
0.1630385, -0.0844282, 4.239, -0.1577148, 4.239, -1.1572266, 4.239, 0.0922852, 0.1630385, -0.0062104, 4.239, 0.387207, 4.239, -0.9697266, 4.239, -0.0581055, 0.1630385, -0.011078, 4.239, 0.3422852, 4.239, -1.0239258, 4.239, -0.3564453, 0.1630385, -0.0313878, 4.239, 0.5214844, 4.239, -1.0761719, 4.239, 0.0126953, , , , , , , , , , , , , , , , , , , , , , 
0.1635577, -0.0803998, 4.2525, -0.4726562, 4.2525, -1.0898438, 4.2525, 0.2084961, 0.1635577, -0.0075532, 4.2525, 0.3984375, 4.2525, -1.1582031, 4.2525, -0.0043945, 0.1635577, -0.0129244, 4.2525, 0.390625, 4.2525, -1.0546875, 4.2525, -0.3901367, 0.1635577, -0.0250095, 4.2525, 0.5351562, 4.2525, -1.0439453, 4.2525, 0.0141602, , , , , , , , , , , , , , , , , , , , , , 
0.1640769, -0.0693217, 4.266, -0.4326172, 4.266, -1.105957, 4.266, 0.1323242, 0.1640769, -0.0090639, 4.266, 0.1577148, 4.266, -1.1274414, 4.266, -0.1054688, 0.1640769, -0.0127565, 4.266, 0.4301758, 4.266, -1.0634766, 4.266, -0.3710938, 0.1640769, -0.0159457, 4.266, 0.4956055, 4.266, -1.0327148, 4.266, 0.0512695, , , , , , , , , , , , , , , , , , , , , , 
0.1645962, -0.0572366, 4.2795, -0.394043, 4.2795, -1.1523438, 4.2795, 0.1782227, 0.1645962, -0.0092317, 4.2795, 0.4023438, 4.2795, -0.9663086, 4.2795, -0.1533203, 0.1645962, -0.0112459, 4.2795, 0.3823242, 4.2795, -1.0820312, 4.2795, -0.3730469, 0.1645962, -0.005539, 4.2795, 0.4008789, 4.2795, -1.0942383, 4.2795, 0.1196289, , , , , , , , , , , , , , , , , , , , , , 
0.1651154, -0.0454871, 4.293, -0.2807617, 4.293, -1.128418, 4.293, 0.0957031, 0.1651154, -0.0082246, 4.293, 0.6181641, 4.293, -1.0688477, 4.293, 0.0063477, 0.1651154, -0.0109102, 4.293, 0.3359375, 4.293, -1.0766602, 4.293, -0.3798828, 0.1651154, 0.0041962, 4.293, 0.3051758, 4.293, -1.1611328, 4.293, 0.1816406, , , , , , , , , , , , , , , , , , , , , , 
0.1656346, -0.0283665, 4.3065, -0.3447266, 4.3065, -1.1513672, 4.3065, 0.2099609, 0.1656346, -0.0072175, 4.3065, 0.5532227, 4.3065, -1.1469727, 4.3065, -0.159668, 0.1656346, -0.0112459, 4.3065, 0.315918, 4.3065, -1.0893555, 4.3065, -0.2304688, 0.1656346, 0.0125887, 4.3065, 0.2124023, 4.3065, -1.1450195, 4.3065, 0.1582031, , , , , , , , , , , , , , , , , , , , , , 
0.1661538, -0.0082246, 4.32, -0.4272461, 4.32, -0.9824219, 4.32, 0.2192383, 0.1661538, -0.008896, 4.32, 0.4179688, 4.32, -0.8554688, 4.32, -0.0205078, 0.1661538, -0.0102388, 4.32, 0.199707, 4.32, -1.059082, 4.32, -0.3808594, 0.1661538, 0.0221561, 4.32, 0.1572266, 4.32, -1.0712891, 4.32, 0.1464844, , , , , , , , , , , , , , , , , , , , , , 
0.1666731, 0.0130922, 4.3335, -0.4692383, 4.3335, -1.1445312, 4.3335, 0.0981445, 0.1666731, -0.0090639, 4.3335, 0.4858398, 4.3335, -1.0395508, 4.3335, -0.1547852, 0.1666731, -0.0095674, 4.3335, 0.2373047, 4.3335, -1.0048828, 4.3335, -0.4306641, 0.1666731, 0.035584, 4.3335, 0.1225586, 4.3335, -1.0839844, 4.3335, 0.2460938, , , , , , , , , , , , , , , , , , , , , , 
0.1671923, 0.0354162, 4.347, -0.3139648, 4.347, -1.2099609, 4.347, 0.1992188, 0.1671923, -0.0078889, 4.347, 0.4682617, 4.347, -1.2294922, 4.347, -0.1352539, 0.1671923, -0.008896, 4.347, 0.4658203, 4.347, -1.081543, 4.347, -0.3383789, 0.1671923, 0.04448, 4.347, 0.2822266, 4.347, -1.125, 4.347, 0.2236328, , , , , , , , , , , , , , , , , , , , , , 
0.1677115, 0.057908, 4.3605, -0.1640625, 4.3605, -1.2602539, 4.3605, 0.1181641, 0.1677115, -0.0082246, 4.3605, 0.3959961, 4.3605, -1.2470703, 4.3605, -0.0449219, 0.1677115, -0.0082246, 4.3605, 0.4477539, 4.3605, -1.1162109, 4.3605, -0.4199219, 0.1677115, 0.0505226, 4.3605, 0.4291992, 4.3605, -1.1606445, 4.3605, 0.1235352, , , , , , , , , , , , , , , , , , , , , , 
0.1682308, 0.0803998, 4.374, -0.3325195, 4.374, -1.1582031, 4.374, 0.1137695, 0.1682308, -0.0090639, 4.374, 0.4604492, 4.374, -1.1230469, 4.374, 0.0288086, 0.1682308, -0.0072175, 4.374, 0.3027344, 4.374, -1.1176758, 4.374, -0.315918, 0.1682308, 0.0572366, 4.374, 0.4013672, 4.374, -1.1791992, 4.374, 0.09375, , , , , , , , , , , , , , , , , , , , , , 
0.16875, 0.0978561, 4.3875, -0.4936523, 4.3875, -1.0371094, 4.3875, 0.0478516, 0.16875, -0.0095674, 4.3875, 0.5195312, 4.3875, -1.0546875, 4.3875, 0.0478516, 0.16875, -0.0068818, 4.3875, 0.2861328, 4.3875, -1.1347656, 4.3875, -0.2944336, 0.16875, 0.0609293, 4.3875, 0.3276367, 4.3875, -1.15625, 4.3875, 0.078125, , , , , , , , , , , , , , , , , , , , , , 
0.1692692, 0.1079271, 4.401, -0.4692383, 4.401, -1.0463867, 4.401, 0.0600586, 0.1692692, -0.0099031, 4.401, 0.4833984, 4.401, -1.0371094, 4.401, 0.059082, 0.1692692, -0.0063783, 4.401, 0.362793, 4.401, -1.1303711, 4.401, -0.3813477, 0.1692692, 0.0626078, 4.401, 0.2973633, 4.401, -1.1235352, 4.401, 0.0556641, , , , , , , , , , , , , , , , , , , , , , 
0.1697885, 0.1122911, 4.4145, -0.3769531, 4.4145, -1.1254883, 4.4145, 0.1459961, 0.1697885, -0.0109102, 4.4145, 0.4960938, 4.4145, -1.0239258, 4.4145, 0.0380859, 0.1697885, -0.0028534, 4.4145, 0.2856445, 4.4145, -1.1083984, 4.4145, -0.2641602, 0.1697885, 0.0619364, 4.4145, 0.2895508, 4.4145, -1.0664062, 4.4145, 0.0351562, , , , , , , , , , , , , , , , , , , , , , 
0.1703077, 0.1065843, 4.428, -0.3398438, 4.428, -0.9780273, 4.428, 0.0581055, 0.1703077, -0.008896, 4.428, 0.4570312, 4.428, -0.9248047, 4.428, 0.0214844, 0.1703077, 0.0011749, 4.428, 0.1914062, 4.428, -1.0644531, 4.428, -0.2744141, 0.1703077, 0.0569009, 4.428, 0.300293, 4.428, -1.0512695, 4.428, 0.0551758, , , , , , , , , , , , , , , , , , , , , , 
0.1708269, 0.0958419, 4.4415, -0.4135742, 4.4415, -0.8881836, 4.4415, 0.03125, 0.1708269, -0.0082246, 4.4415, 0.2758789, 4.4415, -0.8652344, 4.4415, 0.0112305, 0.1708269, 0.0005035, 4.4415, 0.2001953, 4.4415, -1.0078125, 4.4415, -0.296875, 0.1708269, 0.0469978, 4.4415, 0.2109375, 4.4415, -1.0366211, 4.4415, 0.0288086, , , , , , , , , , , , , , , , , , , , , , 
