Application:, Trigno Discover (2.0.1.2)
Date/Time:, 5/14/2025 1:08:32 PM
Collection Length (seconds):, 36.342
Forearm 2 (83169), , , , , , , , Forearm 1 (82633), , , , , , , , Biceps (83254), , , , , , , , Triceps (83087)
sensor mode: 45, , , , , , , , sensor mode: 45, , , , , , , , sensor mode: 45, , , , , , , , sensor mode: 45
EMG 1 Time Series (s), EMG 1 (mV), ACC X Time Series (s), ACC X (G), ACC Y Time Series (s), ACC Y (G), ACC Z Time Series (s), ACC Z (G), EMG 1 Time Series (s), EMG 1 (mV), ACC X Time Series (s), ACC X (G), ACC Y Time Series (s), ACC Y (G), ACC Z Time Series (s), ACC Z (G), EMG 1 Time Series (s), EMG 1 (mV), ACC X Time Series (s), ACC X (G), ACC Y Time Series (s), ACC Y (G), ACC Z Time Series (s), ACC Z (G), EMG 1 Time Series (s), EMG 1 (mV), ACC X Time Series (s), ACC X (G), ACC Y Time Series (s), ACC Y (G), ACC Z Time Series (s), ACC Z (G)
, 1925.9259 Hz, , 74.0741 Hz, , 74.0741 Hz, , 74.0741 Hz, , 1925.9259 Hz, , 74.0741 Hz, , 74.0741 Hz, , 74.0741 Hz, , 1925.9259 Hz, , 74.0741 Hz, , 74.0741 Hz, , 74.0741 Hz, , 1925.9259 Hz, , 74.0741 Hz, , 74.0741 Hz, , 74.0741 Hz
, 0.0005192307692307692 s, , 0.0135 s, , 0.0135 s, , 0.0135 s, , 0.0005192307692307692 s, , 0.0135 s, , 0.0135 s, , 0.0135 s, , 0.0005192307692307692 s, , 0.0135 s, , 0.0135 s, , 0.0135 s, , 0.0005192307692307692 s, , 0.0135 s, , 0.0135 s, , 0.0135 s, , Type, Name, Label, Time (s), , Pair, E1, E2, T1, T2, V1, V2, Sensor, Channel, Units, Delta T, RMS, PKPK, Peak Value, TPK, Integral
0, 0.0251774, 0, -0.2182617, 0, -0.984375, 0, 0.0922852, 0, -0.0092317, 0, 0.2568359, 0, -0.9541016, 0, -0.2138672, 0, -0.0068818, 0, 0.1567383, 0, -0.9799805, 0, -0.0405273, 0, 0.0246738, 0, -0.1601562, 0, -0.9892578, 0, 0.074707, , , , , , , , , , , , , , , , , , , , , , 
0.0005192, 0.0256809, 0.0135, -0.2119141, 0.0135, -0.9775391, 0.0135, 0.0932617, 0.0005192, -0.0102388, 0.0135, 0.2587891, 0.0135, -0.9394531, 0.0135, -0.2207031, 0.0005192, -0.0065461, 0.0135, 0.1547852, 0.0135, -0.9790039, 0.0135, -0.0390625, 0.0005192, 0.0243381, 0.0135, -0.1630859, 0.0135, -0.9819336, 0.0135, 0.0703125, , , , , , , , , , , , , , , , , , , , , , 
0.0010385, 0.0260166, 0.027, -0.2148438, 0.027, -0.9775391, 0.027, 0.0957031, 0.0010385, -0.0105745, 0.027, 0.2641602, 0.027, -0.9375, 0.027, -0.2202148, 0.0010385, -0.0041962, 0.027, 0.152832, 0.027, -0.9814453, 0.027, -0.0375977, 0.0010385, 0.0206455, 0.027, -0.1625977, 0.027, -0.9726562, 0.027, 0.065918, , , , , , , , , , , , , , , , , , , , , , 
0.0015577, 0.0236667, 0.0405, -0.2163086, 0.0405, -0.9765625, 0.0405, 0.0986328, 0.0015577, -0.0095674, 0.0405, 0.2705078, 0.0405, -0.9375, 0.0405, -0.2182617, 0.0015577, -0.0031891, 0.0405, 0.1547852, 0.0405, -0.9824219, 0.0405, -0.0327148, 0.0015577, 0.0179599, 0.0405, -0.1489258, 0.0405, -0.9785156, 0.0405, 0.0629883, , , , , , , , , , , , , , , , , , , , , , 
0.0020769, 0.0186313, 0.054, -0.2197266, 0.054, -0.980957, 0.054, 0.1015625, 0.0020769, -0.0062104, 0.054, 0.28125, 0.054, -0.9399414, 0.054, -0.2158203, 0.0020769, -0.0041962, 0.054, 0.1567383, 0.054, -0.9882812, 0.054, -0.0249023, 0.0020769, 0.0172885, 0.054, -0.1391602, 0.054, -0.9873047, 0.054, 0.0585938, , , , , , , , , , , , , , , , , , , , , , 
0.0025962, 0.0146029, 0.0675, -0.2255859, 0.0675, -0.9833984, 0.0675, 0.1074219, 0.0025962, -0.0035248, 0.0675, 0.2885742, 0.0675, -0.9448242, 0.0675, -0.2167969, 0.0025962, -0.0062104, 0.0675, 0.1518555, 0.0675, -0.9931641, 0.0675, -0.0214844, 0.0025962, 0.0162814, 0.0675, -0.1494141, 0.0675, -0.9853516, 0.0675, 0.0493164, , , , , , , , , , , , , , , , , , , , , , 
0.0031154, 0.012253, 0.081, -0.2280273, 0.081, -0.9873047, 0.081, 0.1132812, 0.0031154, -0.0028534, 0.081, 0.2939453, 0.081, -0.9448242, 0.081, -0.2177734, 0.0031154, -0.0065461, 0.081, 0.1503906, 0.081, -0.9970703, 0.081, -0.0170898, 0.0031154, 0.0159457, 0.081, -0.1616211, 0.081, -0.987793, 0.081, 0.0444336, , , , , , , , , , , , , , , , , , , , , , 
0.0036346, 0.0132601, 0.0945, -0.2265625, 0.0945, -0.9882812, 0.0945, 0.1191406, 0.0036346, -0.0030213, 0.0945, 0.3012695, 0.0945, -0.9467773, 0.0945, -0.2172852, 0.0036346, -0.005539, 0.0945, 0.1474609, 0.0945, -1.0043945, 0.0945, -0.0087891, 0.0036346, 0.0159457, 0.0945, -0.1723633, 0.0945, -0.9960938, 0.0945, 0.0454102, , , , , , , , , , , , , , , , , , , , , , 
0.0041538, 0.0172885, 0.108, -0.2329102, 0.108, -0.9941406, 0.108, 0.1230469, 0.0041538, -0.0048676, 0.108, 0.3085938, 0.108, -0.9458008, 0.108, -0.2167969, 0.0041538, -0.0092317, 0.108, 0.1416016, 0.108, -1.0102539, 0.108, 0.0014648, 0.0041538, 0.0139315, 0.108, -0.1811523, 0.108, -1, 0.108, 0.0400391, , , , , , , , , , , , , , , , , , , , , , 
0.0046731, 0.0152743, 0.1215, -0.237793, 0.1215, -0.9960938, 0.1215, 0.1196289, 0.0046731, -0.0045319, 0.1215, 0.3261719, 0.1215, -0.9462891, 0.1215, -0.2119141, 0.0046731, -0.0115816, 0.1215, 0.1264648, 0.1215, -1.0146484, 0.1215, 0.0053711, 0.0046731, 0.0132601, 0.1215, -0.1938477, 0.1215, -0.9946289, 0.1215, 0.0385742, , , , , , , , , , , , , , , , , , , , , , 
0.0051923, 0.0109102, 0.135, -0.2260742, 0.135, -0.9931641, 0.135, 0.1240234, 0.0051923, -0.0035248, 0.135, 0.3330078, 0.135, -0.9477539, 0.135, -0.2089844, 0.0051923, -0.0099031, 0.135, 0.1225586, 0.135, -1.0107422, 0.135, 0.003418, 0.0051923, 0.0125887, 0.135, -0.1953125, 0.135, -0.9916992, 0.135, 0.043457, , , , , , , , , , , , , , , , , , , , , , 
0.0057115, 0.0125887, 0.1485, -0.2177734, 0.1485, -0.9902344, 0.1485, 0.1303711, 0.0057115, -0.0030213, 0.1485, 0.3232422, 0.1485, -0.9443359, 0.1485, -0.215332, 0.0057115, -0.0057069, 0.1485, 0.1279297, 0.1485, -1.0048828, 0.1485, -0.0073242, 0.0057115, 0.0119173, 0.1485, -0.1879883, 0.1485, -0.9946289, 0.1485, 0.0483398, , , , , , , , , , , , , , , , , , , , , , 
0.0062308, 0.0146029, 0.162, -0.2231445, 0.162, -0.9912109, 0.162, 0.1313477, 0.0062308, -0.0057069, 0.162, 0.3188477, 0.162, -0.9379883, 0.162, -0.2246094, 0.0062308, -0.005539, 0.162, 0.1381836, 0.162, -1.0078125, 0.162, -0.0083008, 0.0062308, 0.0085603, 0.162, -0.1850586, 0.162, -0.9975586, 0.162, 0.0493164, , , , , , , , , , , , , , , , , , , , , , 
0.00675, 0.0112459, 0.1755, -0.2387695, 0.1755, -0.9951172, 0.1755, 0.1279297, 0.00675, -0.0082246, 0.1755, 0.3125, 0.1755, -0.9438477, 0.1755, -0.2270508, 0.00675, -0.0065461, 0.1755, 0.1342773, 0.1755, -1.0126953, 0.1755, -0.0024414, 0.00675, 0.0073854, 0.1755, -0.1889648, 0.1755, -1, 0.1755, 0.046875, , , , , , , , , , , , , , , , , , , , , , 
0.0072692, 0.0085603, 0.189, -0.2446289, 0.189, -0.9951172, 0.189, 0.1254883, 0.0072692, -0.0065461, 0.189, 0.3022461, 0.189, -0.9477539, 0.189, -0.2250977, 0.0072692, -0.0072175, 0.189, 0.1308594, 0.189, -1.0083008, 0.189, -0.003418, 0.0072692, 0.0087282, 0.189, -0.1889648, 0.189, -0.9926758, 0.189, 0.0449219, , , , , , , , , , , , , , , , , , , , , , 
0.0077885, 0.0107424, 0.2025, -0.2319336, 0.2025, -0.9912109, 0.2025, 0.1254883, 0.0077885, -0.0057069, 0.2025, 0.2988281, 0.2025, -0.9414062, 0.2025, -0.2275391, 0.0077885, -0.008896, 0.2025, 0.1362305, 0.2025, -1.0019531, 0.2025, -0.0117188, 0.0077885, 0.0082246, 0.2025, -0.1796875, 0.2025, -0.9863281, 0.2025, 0.0488281, , , , , , , , , , , , , , , , , , , , , , 
0.0083077, 0.0052033, 0.216, -0.2124023, 0.216, -0.9863281, 0.216, 0.1308594, 0.0083077, -0.0060426, 0.216, 0.3046875, 0.216, -0.9331055, 0.216, -0.2353516, 0.0083077, -0.0105745, 0.216, 0.1518555, 0.216, -0.9921875, 0.216, -0.0209961, 0.0083077, 0.0065461, 0.216, -0.1621094, 0.216, -0.9863281, 0.216, 0.0507812, , , , , , , , , , , , , , , , , , , , , , 
0.0088269, 0.0005035, 0.2295, -0.2050781, 0.2295, -0.9833984, 0.2295, 0.1337891, 0.0088269, -0.0072175, 0.2295, 0.309082, 0.2295, -0.9287109, 0.2295, -0.2368164, 0.0088269, -0.0115816, 0.2295, 0.1635742, 0.2295, -0.9882812, 0.2295, -0.0258789, 0.0088269, 0.0058747, 0.2295, -0.1464844, 0.2295, -0.9838867, 0.2295, 0.0493164, , , , , , , , , , , , , , , , , , , , , , 
0.0093462, 0.002182, 0.243, -0.2114258, 0.243, -0.9814453, 0.243, 0.1279297, 0.0093462, -0.0068818, 0.243, 0.3139648, 0.243, -0.9228516, 0.243, -0.2338867, 0.0093462, -0.0119173, 0.243, 0.1606445, 0.243, -0.9902344, 0.243, -0.0234375, 0.0093462, 0.0035248, 0.243, -0.1450195, 0.243, -0.9824219, 0.243, 0.046875, , , , , , , , , , , , , , , , , , , , , , 
0.0098654, -0.0001678, 0.2565, -0.2148438, 0.2565, -0.9853516, 0.2565, 0.1264648, 0.0098654, -0.0062104, 0.2565, 0.3144531, 0.2565, -0.9262695, 0.2565, -0.2270508, 0.0098654, -0.012253, 0.2565, 0.1499023, 0.2565, -0.9931641, 0.2565, -0.0185547, 0.0098654, 0.0011749, 0.2565, -0.1494141, 0.2565, -0.9814453, 0.2565, 0.0400391, , , , , , , , , , , , , , , , , , , , , , 
0.0103846, -0.0068818, 0.27, -0.2124023, 0.27, -0.9892578, 0.27, 0.1230469, 0.0103846, -0.0050355, 0.27, 0.3100586, 0.27, -0.9301758, 0.27, -0.2265625, 0.0103846, -0.008896, 0.27, 0.1464844, 0.27, -0.9946289, 0.27, -0.0166016, 0.0103846, 0.0018463, 0.27, -0.15625, 0.27, -0.9829102, 0.27, 0.0429688, , , , , , , , , , , , , , , , , , , , , , 
0.0109038, -0.0099031, 0.2835, -0.2080078, 0.2835, -0.9931641, 0.2835, 0.1279297, 0.0109038, -0.0048676, 0.2835, 0.3085938, 0.2835, -0.9384766, 0.2835, -0.2294922, 0.0109038, -0.0065461, 0.2835, 0.1445312, 0.2835, -0.9995117, 0.2835, -0.0175781, 0.0109038, 0.0028534, 0.2835, -0.1567383, 0.2835, -0.9916992, 0.2835, 0.0424805, , , , , , , , , , , , , , , , , , , , , , 
0.0114231, -0.0058747, 0.297, -0.2197266, 0.297, -0.9946289, 0.297, 0.1274414, 0.0114231, -0.0068818, 0.297, 0.3105469, 0.297, -0.9433594, 0.297, -0.2280273, 0.0114231, -0.008896, 0.297, 0.1464844, 0.297, -1.0053711, 0.297, -0.0146484, 0.0114231, 0.002182, 0.297, -0.1591797, 0.297, -0.996582, 0.297, 0.0444336, , , , , , , , , , , , , , , , , , , , , , 
0.0119423, -0.0041962, 0.3105, -0.2329102, 0.3105, -0.9946289, 0.3105, 0.1259766, 0.0119423, -0.0075532, 0.3105, 0.3061523, 0.3105, -0.9443359, 0.3105, -0.2265625, 0.0119423, -0.0105745, 0.3105, 0.1479492, 0.3105, -1.0092773, 0.3105, -0.0117188, 0.0119423, 0.002182, 0.3105, -0.1669922, 0.3105, -0.9995117, 0.3105, 0.0415039, , , , , , , , , , , , , , , , , , , , , , 
0.0124615, -0.0065461, 0.324, -0.2368164, 0.324, -0.996582, 0.324, 0.1279297, 0.0124615, -0.0068818, 0.324, 0.3085938, 0.324, -0.9472656, 0.324, -0.2265625, 0.0124615, -0.011078, 0.324, 0.1464844, 0.324, -1.015625, 0.324, -0.0068359, 0.0124615, 0.0045319, 0.324, -0.1723633, 0.324, -0.9995117, 0.324, 0.0410156, , , , , , , , , , , , , , , , , , , , , , 
0.0129808, -0.0072175, 0.3375, -0.2382812, 0.3375, -1.0029297, 0.3375, 0.1274414, 0.0129808, -0.0082246, 0.3375, 0.315918, 0.3375, -0.9536133, 0.3375, -0.2246094, 0.0129808, -0.0099031, 0.3375, 0.1367188, 0.3375, -1.0200195, 0.3375, -0.003418, 0.0129808, 0.0065461, 0.3375, -0.1870117, 0.3375, -1.0053711, 0.3375, 0.0493164, , , , , , , , , , , , , , , , , , , , , , 
0.0135, -0.0052033, 0.351, -0.230957, 0.351, -1.0053711, 0.351, 0.1318359, 0.0135, -0.0082246, 0.351, 0.3193359, 0.351, -0.9550781, 0.351, -0.2241211, 0.0135, -0.0082246, 0.351, 0.1323242, 0.351, -1.0200195, 0.351, -0.0087891, 0.0135, 0.0072175, 0.351, -0.190918, 0.351, -1.0063477, 0.351, 0.0551758, , , , , , , , , , , , , , , , , , , , , , 
0.0140192, -0.0062104, 0.3645, -0.2197266, 0.3645, -0.9990234, 0.3645, 0.1357422, 0.0140192, -0.0063783, 0.3645, 0.3222656, 0.3645, -0.9506836, 0.3645, -0.2265625, 0.0140192, -0.0078889, 0.3645, 0.1376953, 0.3645, -1.0136719, 0.3645, -0.0107422, 0.0140192, 0.0072175, 0.3645, -0.1865234, 0.3645, -0.9990234, 0.3645, 0.0532227, , , , , , , , , , , , , , , , , , , , , , 
0.0145385, -0.002182, 0.378, -0.2167969, 0.378, -0.9980469, 0.378, 0.1328125, 0.0145385, -0.0058747, 0.378, 0.3271484, 0.378, -0.9433594, 0.378, -0.2280273, 0.0145385, -0.0082246, 0.378, 0.1416016, 0.378, -1.0078125, 0.378, -0.0126953, 0.0145385, 0.0068818, 0.378, -0.1855469, 0.378, -0.9946289, 0.378, 0.0527344, , , , , , , , , , , , , , , , , , , , , , 
0.0150577, 0.0112459, 0.3915, -0.2192383, 0.3915, -0.9951172, 0.3915, 0.128418, 0.0150577, -0.0058747, 0.3915, 0.3193359, 0.3915, -0.9423828, 0.3915, -0.230957, 0.0150577, -0.0072175, 0.3915, 0.1469727, 0.3915, -1.0039062, 0.3915, -0.0136719, 0.0150577, 0.0068818, 0.3915, -0.1791992, 0.3915, -0.9926758, 0.3915, 0.0517578, , , , , , , , , , , , , , , , , , , , , , 
0.0155769, 0.0169528, 0.405, -0.2211914, 0.405, -0.9912109, 0.405, 0.1279297, 0.0155769, -0.0075532, 0.405, 0.3037109, 0.405, -0.9389648, 0.405, -0.2333984, 0.0155769, -0.0078889, 0.405, 0.1503906, 0.405, -1.0029297, 0.405, -0.012207, 0.0155769, 0.0083925, 0.405, -0.168457, 0.405, -0.9926758, 0.405, 0.0522461, , , , , , , , , , , , , , , , , , , , , , 
0.0160962, 0.0159457, 0.4185, -0.2294922, 0.4185, -0.987793, 0.4185, 0.1279297, 0.0160962, -0.0109102, 0.4185, 0.2958984, 0.4185, -0.9365234, 0.4185, -0.2338867, 0.0160962, -0.0077211, 0.4185, 0.1552734, 0.4185, -0.9990234, 0.4185, -0.0068359, 0.0160962, 0.0112459, 0.4185, -0.1655273, 0.4185, -0.9897461, 0.4185, 0.0483398, , , , , , , , , , , , , , , , , , , , , , 
0.0166154, 0.0199741, 0.432, -0.2319336, 0.432, -0.9858398, 0.432, 0.1303711, 0.0166154, -0.011078, 0.432, 0.2978516, 0.432, -0.9331055, 0.432, -0.2329102, 0.0166154, -0.005539, 0.432, 0.1494141, 0.432, -1.0019531, 0.432, -0.0131836, 0.0166154, 0.0146029, 0.432, -0.1655273, 0.432, -0.987793, 0.432, 0.0419922, , , , , , , , , , , , , , , , , , , , , , 
0.0171346, 0.0243381, 0.4455, -0.230957, 0.4455, -0.9873047, 0.4455, 0.1293945, 0.0171346, -0.008896, 0.4455, 0.3085938, 0.4455, -0.9345703, 0.4455, -0.2299805, 0.0171346, -0.0048676, 0.4455, 0.1455078, 0.4455, -1.0024414, 0.4455, -0.0141602, 0.0171346, 0.0186313, 0.4455, -0.1699219, 0.4455, -0.9902344, 0.4455, 0.0439453, , , , , , , , , , , , , , , , , , , , , , 
0.0176538, 0.0265202, 0.459, -0.2260742, 0.459, -0.9892578, 0.459, 0.1323242, 0.0176538, -0.0063783, 0.459, 0.3178711, 0.459, -0.9370117, 0.459, -0.2285156, 0.0176538, -0.0035248, 0.459, 0.1381836, 0.459, -1.003418, 0.459, -0.0151367, 0.0176538, 0.0206455, 0.459, -0.1723633, 0.459, -0.9916992, 0.459, 0.0473633, , , , , , , , , , , , , , , , , , , , , , 
0.0181731, 0.0287022, 0.4725, -0.2182617, 0.4725, -0.9912109, 0.4725, 0.1328125, 0.0181731, -0.0057069, 0.4725, 0.3198242, 0.4725, -0.9375, 0.4725, -0.2250977, 0.0181731, -0.0043641, 0.4725, 0.1367188, 0.4725, -1.0039062, 0.4725, -0.012207, 0.0181731, 0.0213169, 0.4725, -0.1723633, 0.4725, -0.9921875, 0.4725, 0.046875, , , , , , , , , , , , , , , , , , , , , , 
0.0186923, 0.0285344, 0.486, -0.2207031, 0.486, -0.9916992, 0.486, 0.1328125, 0.0186923, -0.0048676, 0.486, 0.3251953, 0.486, -0.9355469, 0.486, -0.2250977, 0.0186923, -0.0075532, 0.486, 0.1401367, 0.486, -1.0024414, 0.486, -0.0107422, 0.0186923, 0.0219883, 0.486, -0.1796875, 0.486, -0.9868164, 0.486, 0.0463867, , , , , , , , , , , , , , , , , , , , , , 
0.0192115, 0.0250095, 0.4995, -0.2246094, 0.4995, -0.9951172, 0.4995, 0.1328125, 0.0192115, -0.0063783, 0.4995, 0.3222656, 0.4995, -0.9389648, 0.4995, -0.2260742, 0.0192115, -0.0095674, 0.4995, 0.1435547, 0.4995, -1.0053711, 0.4995, -0.0068359, 0.0192115, 0.0213169, 0.4995, -0.1835938, 0.4995, -0.9912109, 0.4995, 0.0439453, , , , , , , , , , , , , , , , , , , , , , 
0.0197308, 0.024506, 0.513, -0.2299805, 0.513, -0.9951172, 0.513, 0.1342773, 0.0197308, -0.0075532, 0.513, 0.3178711, 0.513, -0.9438477, 0.513, -0.2299805, 0.0197308, -0.0102388, 0.513, 0.1499023, 0.513, -1.0097656, 0.513, -0.0043945, 0.0197308, 0.0206455, 0.513, -0.1796875, 0.513, -0.9975586, 0.513, 0.0410156, , , , , , , , , , , , , , , , , , , , , , 
0.02025, 0.0229953, 0.5265, -0.2314453, 0.5265, -0.9970703, 0.5265, 0.1362305, 0.02025, -0.0075532, 0.5265, 0.3125, 0.5265, -0.9458008, 0.5265, -0.2290039, 0.02025, -0.0083925, 0.5265, 0.1479492, 0.5265, -1.012207, 0.5265, -0.0039062, 0.02025, 0.0206455, 0.5265, -0.1757812, 0.5265, -0.9956055, 0.5265, 0.0498047, , , , , , , , , , , , , , , , , , , , , , 
0.0207692, 0.024506, 0.54, -0.2338867, 0.54, -0.9926758, 0.54, 0.1328125, 0.0207692, -0.0068818, 0.54, 0.3134766, 0.54, -0.9418945, 0.54, -0.2299805, 0.0207692, -0.0052033, 0.54, 0.1391602, 0.54, -1.0131836, 0.54, -0.0083008, 0.0207692, 0.0193027, 0.54, -0.1791992, 0.54, -0.9960938, 0.54, 0.0507812, , , , , , , , , , , , , , , , , , , , , , 
0.0212885, 0.0310521, 0.5535, -0.234375, 0.5535, -0.9887695, 0.5535, 0.1352539, 0.0212885, -0.0063783, 0.5535, 0.3154297, 0.5535, -0.9438477, 0.5535, -0.2285156, 0.0212885, -0.002182, 0.5535, 0.1435547, 0.5535, -1.0087891, 0.5535, -0.0087891, 0.0212885, 0.0151064, 0.5535, -0.1826172, 0.5535, -0.9956055, 0.5535, 0.0507812, , , , , , , , , , , , , , , , , , , , , , 
0.0218077, 0.0285344, 0.567, -0.2333984, 0.567, -0.9897461, 0.567, 0.1347656, 0.0218077, -0.0062104, 0.567, 0.3139648, 0.567, -0.9404297, 0.567, -0.2285156, 0.0218077, -0.0028534, 0.567, 0.1430664, 0.567, -1.0043945, 0.567, -0.0083008, 0.0218077, 0.0115816, 0.567, -0.1918945, 0.567, -0.9907227, 0.567, 0.0517578, , , , , , , , , , , , , , , , , , , , , , 
0.0223269, 0.0224918, 0.5805, -0.2333984, 0.5805, -0.9892578, 0.5805, 0.1337891, 0.0223269, -0.0068818, 0.5805, 0.3178711, 0.5805, -0.9360352, 0.5805, -0.2294922, 0.0223269, -0.005539, 0.5805, 0.1352539, 0.5805, -1.0024414, 0.5805, -0.0078125, 0.0223269, 0.0115816, 0.5805, -0.1918945, 0.5805, -0.9892578, 0.5805, 0.0522461, , , , , , , , , , , , , , , , , , , , , , 
0.0228462, 0.0231632, 0.594, -0.2294922, 0.594, -0.9907227, 0.594, 0.1303711, 0.0228462, -0.0075532, 0.594, 0.3232422, 0.594, -0.9350586, 0.594, -0.2260742, 0.0228462, -0.0072175, 0.594, 0.1298828, 0.594, -1.0004883, 0.594, -0.0073242, 0.0228462, 0.0139315, 0.594, -0.1889648, 0.594, -0.9882812, 0.594, 0.0463867, , , , , , , , , , , , , , , , , , , , , , 
0.0233654, 0.0273594, 0.6075, -0.2260742, 0.6075, -0.9892578, 0.6075, 0.1298828, 0.0233654, -0.0085603, 0.6075, 0.3251953, 0.6075, -0.9379883, 0.6075, -0.2231445, 0.0233654, -0.0077211, 0.6075, 0.1347656, 0.6075, -1.0039062, 0.6075, -0.0146484, 0.0233654, 0.0142672, 0.6075, -0.1738281, 0.6075, -0.9863281, 0.6075, 0.0439453, , , , , , , , , , , , , , , , , , , , , , 
0.0238846, 0.0263523, 0.621, -0.2250977, 0.621, -0.9863281, 0.621, 0.1342773, 0.0238846, -0.0082246, 0.621, 0.3193359, 0.621, -0.9355469, 0.621, -0.2255859, 0.0238846, -0.0070497, 0.621, 0.1479492, 0.621, -1, 0.621, -0.0136719, 0.0238846, 0.0129244, 0.621, -0.1660156, 0.621, -0.9853516, 0.621, 0.0444336, , , , , , , , , , , , , , , , , , , , , , 
0.0244038, 0.0213169, 0.6345, -0.2275391, 0.6345, -0.9780273, 0.6345, 0.1357422, 0.0244038, -0.0062104, 0.6345, 0.3198242, 0.6345, -0.9296875, 0.6345, -0.2255859, 0.0244038, -0.0072175, 0.6345, 0.1577148, 0.6345, -0.9970703, 0.6345, -0.0048828, 0.0244038, 0.0119173, 0.6345, -0.159668, 0.6345, -0.9887695, 0.6345, 0.0449219, , , , , , , , , , , , , , , , , , , , , , 
0.0249231, 0.0179599, 0.648, -0.2290039, 0.648, -0.9765625, 0.648, 0.1362305, 0.0249231, -0.005539, 0.648, 0.3242188, 0.648, -0.9189453, 0.648, -0.2231445, 0.0249231, -0.0097353, 0.648, 0.1616211, 0.648, -0.987793, 0.648, 0.0004883, 0.0249231, 0.0105745, 0.648, -0.1625977, 0.648, -0.9814453, 0.648, 0.0458984, , , , , , , , , , , , , , , , , , , , , , 
0.0254423, 0.0184634, 0.6615, -0.2250977, 0.6615, -0.9746094, 0.6615, 0.1376953, 0.0254423, -0.0058747, 0.6615, 0.324707, 0.6615, -0.9179688, 0.6615, -0.2241211, 0.0254423, -0.0115816, 0.6615, 0.1591797, 0.6615, -0.9838867, 0.6615, -0.0014648, 0.0254423, 0.008896, 0.6615, -0.1728516, 0.6615, -0.9707031, 0.6615, 0.0473633, , , , , , , , , , , , , , , , , , , , , , 
0.0259615, 0.0176242, 0.675, -0.2143555, 0.675, -0.9716797, 0.675, 0.1401367, 0.0259615, -0.0065461, 0.675, 0.3173828, 0.675, -0.9213867, 0.675, -0.2314453, 0.0259615, -0.0114137, 0.675, 0.1513672, 0.675, -0.980957, 0.675, -0.0068359, 0.0259615, 0.0099031, 0.675, -0.175293, 0.675, -0.9707031, 0.675, 0.0463867, , , , , , , , , , , , , , , , , , , , , , 
0.0264808, 0.0137636, 0.6885, -0.2133789, 0.6885, -0.96875, 0.6885, 0.1396484, 0.0264808, -0.0082246, 0.6885, 0.3134766, 0.6885, -0.9165039, 0.6885, -0.2333984, 0.0264808, -0.0115816, 0.6885, 0.1401367, 0.6885, -0.9824219, 0.6885, -0.0063477, 0.0264808, 0.0142672, 0.6885, -0.1801758, 0.6885, -0.9702148, 0.6885, 0.0537109, , , , , , , , , , , , , , , , , , , , , , 
0.027, 0.0104067, 0.702, -0.2299805, 0.702, -0.9682617, 0.702, 0.140625, 0.027, -0.0083925, 0.702, 0.3129883, 0.702, -0.9125977, 0.702, -0.2329102, 0.027, -0.0102388, 0.702, 0.1328125, 0.702, -0.9848633, 0.702, -0.0039062, 0.027, 0.0159457, 0.702, -0.1845703, 0.702, -0.9667969, 0.702, 0.0517578, , , , , , , , , , , , , , , , , , , , , , 
0.0275192, 0.0102388, 0.7155, -0.2426758, 0.7155, -0.972168, 0.7155, 0.1367188, 0.0275192, -0.0099031, 0.7155, 0.3139648, 0.7155, -0.9160156, 0.7155, -0.2275391, 0.0275192, -0.0112459, 0.7155, 0.1347656, 0.7155, -0.9892578, 0.7155, -0.0009766, 0.0275192, 0.0146029, 0.7155, -0.1865234, 0.7155, -0.9726562, 0.7155, 0.0527344, , , , , , , , , , , , , , , , , , , , , , 
0.0280385, 0.0132601, 0.729, -0.2407227, 0.729, -0.9736328, 0.729, 0.1367188, 0.0280385, -0.0105745, 0.729, 0.3154297, 0.729, -0.9204102, 0.729, -0.2231445, 0.0280385, -0.0129244, 0.729, 0.1411133, 0.729, -0.9912109, 0.729, -0.0004883, 0.0280385, 0.01561, 0.729, -0.1831055, 0.729, -0.9755859, 0.729, 0.0517578, , , , , , , , , , , , , , , , , , , , , , 
0.0285577, 0.0172885, 0.7425, -0.2216797, 0.7425, -0.9726562, 0.7425, 0.1396484, 0.0285577, -0.0075532, 0.7425, 0.3212891, 0.7425, -0.9248047, 0.7425, -0.2241211, 0.0285577, -0.0124208, 0.7425, 0.1450195, 0.7425, -0.9868164, 0.7425, 0.0004883, 0.0285577, 0.0146029, 0.7425, -0.1772461, 0.7425, -0.9750977, 0.7425, 0.0546875, , , , , , , , , , , , , , , , , , , , , , 
0.0290769, 0.0186313, 0.756, -0.2109375, 0.756, -0.9667969, 0.756, 0.1430664, 0.0290769, -0.0058747, 0.756, 0.3286133, 0.756, -0.9174805, 0.756, -0.2236328, 0.0290769, -0.0095674, 0.756, 0.1523438, 0.756, -0.9731445, 0.756, 0.0063477, 0.0290769, 0.0090639, 0.756, -0.1748047, 0.756, -0.9746094, 0.756, 0.0517578, , , , , , , , , , , , , , , , , , , , , , 
0.0295962, 0.0112459, 0.7695, -0.2143555, 0.7695, -0.9702148, 0.7695, 0.1420898, 0.0295962, -0.0075532, 0.7695, 0.3291016, 0.7695, -0.9145508, 0.7695, -0.2285156, 0.0295962, -0.0072175, 0.7695, 0.1586914, 0.7695, -0.9716797, 0.7695, 0.0102539, 0.0295962, 0.0058747, 0.7695, -0.1806641, 0.7695, -0.9726562, 0.7695, 0.0517578, , , , , , , , , , , , , , , , , , , , , , 
0.0301154, 0.0052033, 0.783, -0.2167969, 0.783, -0.9677734, 0.783, 0.1347656, 0.0301154, -0.0065461, 0.783, 0.3164062, 0.783, -0.9179688, 0.783, -0.2319336, 0.0301154, -0.0070497, 0.783, 0.1557617, 0.783, -0.9707031, 0.783, 0.0175781, 0.0301154, 0.0062104, 0.783, -0.1953125, 0.783, -0.9697266, 0.783, 0.0522461, , , , , , , , , , , , , , , , , , , , , , 
0.0306346, 0.0025177, 0.7965, -0.2265625, 0.7965, -0.9575195, 0.7965, 0.1391602, 0.0306346, -0.0057069, 0.7965, 0.3007812, 0.7965, -0.9169922, 0.7965, -0.2290039, 0.0306346, -0.0070497, 0.7965, 0.1518555, 0.7965, -0.9702148, 0.7965, 0.019043, 0.0306346, 0.0048676, 0.7965, -0.2075195, 0.7965, -0.9648438, 0.7965, 0.0566406, , , , , , , , , , , , , , , , , , , , , , 
0.0311538, 0.0018463, 0.81, -0.2353516, 0.81, -0.9418945, 0.81, 0.1430664, 0.0311538, -0.0077211, 0.81, 0.296875, 0.81, -0.9033203, 0.81, -0.2275391, 0.0311538, -0.0048676, 0.81, 0.1411133, 0.81, -0.9663086, 0.81, 0.0288086, 0.0311538, 0.0031891, 0.81, -0.2167969, 0.81, -0.9555664, 0.81, 0.0620117, , , , , , , , , , , , , , , , , , , , , , 
0.0316731, -0.0011749, 0.8235, -0.2431641, 0.8235, -0.9316406, 0.8235, 0.1450195, 0.0316731, -0.0082246, 0.8235, 0.3076172, 0.8235, -0.8876953, 0.8235, -0.2250977, 0.0316731, -0.005539, 0.8235, 0.137207, 0.8235, -0.9604492, 0.8235, 0.0395508, 0.0316731, 0.0023499, 0.8235, -0.2280273, 0.8235, -0.9472656, 0.8235, 0.0610352, , , , , , , , , , , , , , , , , , , , , , 
0.0321923, -0.0041962, 0.837, -0.2460938, 0.837, -0.9272461, 0.837, 0.1411133, 0.0321923, -0.0068818, 0.837, 0.3222656, 0.837, -0.8818359, 0.837, -0.2163086, 0.0321923, -0.0078889, 0.837, 0.1289062, 0.837, -0.956543, 0.837, 0.0419922, 0.0321923, 0.0016785, 0.837, -0.2426758, 0.837, -0.9365234, 0.837, 0.0610352, , , , , , , , , , , , , , , , , , , , , , 
0.0327115, -0.0028534, 0.8505, -0.2431641, 0.8505, -0.9204102, 0.8505, 0.1376953, 0.0327115, -0.0072175, 0.8505, 0.3256836, 0.8505, -0.8789062, 0.8505, -0.2109375, 0.0327115, -0.0078889, 0.8505, 0.1152344, 0.8505, -0.9501953, 0.8505, 0.043457, 0.0327115, 0.003357, 0.8505, -0.2460938, 0.8505, -0.9238281, 0.8505, 0.0649414, , , , , , , , , , , , , , , , , , , , , , 
0.0332308, 0.0008392, 0.864, -0.2373047, 0.864, -0.9106445, 0.864, 0.1499023, 0.0332308, -0.008896, 0.864, 0.3276367, 0.864, -0.8710938, 0.864, -0.2060547, 0.0332308, -0.0050355, 0.864, 0.1166992, 0.864, -0.9404297, 0.864, 0.0458984, 0.0332308, 0.0075532, 0.864, -0.2358398, 0.864, -0.9189453, 0.864, 0.0605469, , , , , , , , , , , , , , , , , , , , , , 
0.03375, 0.0015106, 0.8775, -0.230957, 0.8775, -0.9072266, 0.8775, 0.144043, 0.03375, -0.0115816, 0.8775, 0.3359375, 0.8775, -0.8579102, 0.8775, -0.2084961, 0.03375, -0.0023499, 0.8775, 0.1337891, 0.8775, -0.9345703, 0.8775, 0.0522461, 0.03375, 0.0109102, 0.8775, -0.2255859, 0.8775, -0.9189453, 0.8775, 0.0522461, , , , , , , , , , , , , , , , , , , , , , 
0.0342692, 0.0038605, 0.891, -0.234375, 0.891, -0.9160156, 0.891, 0.1376953, 0.0342692, -0.0135958, 0.891, 0.3491211, 0.891, -0.8652344, 0.891, -0.2084961, 0.0342692, -0.0035248, 0.891, 0.1450195, 0.891, -0.9360352, 0.891, 0.0532227, 0.0342692, 0.0134279, 0.891, -0.2163086, 0.891, -0.9277344, 0.891, 0.0458984, , , , , , , , , , , , , , , , , , , , , , 
0.0347885, 0.0090639, 0.9045, -0.237793, 0.9045, -0.9174805, 0.9045, 0.1318359, 0.0347885, -0.0135958, 0.9045, 0.3364258, 0.9045, -0.8793945, 0.9045, -0.1972656, 0.0347885, -0.0060426, 0.9045, 0.1499023, 0.9045, -0.9423828, 0.9045, 0.0507812, 0.0347885, 0.0151064, 0.9045, -0.2045898, 0.9045, -0.9311523, 0.9045, 0.0444336, , , , , , , , , , , , , , , , , , , , , , 
0.0353077, 0.0078889, 0.918, -0.2412109, 0.918, -0.9135742, 0.918, 0.1289062, 0.0353077, -0.0142672, 0.918, 0.3085938, 0.918, -0.8774414, 0.918, -0.1948242, 0.0353077, -0.0078889, 0.918, 0.1474609, 0.918, -0.9379883, 0.918, 0.0478516, 0.0353077, 0.0164492, 0.918, -0.2006836, 0.918, -0.9243164, 0.918, 0.046875, , , , , , , , , , , , , , , , , , , , , , 
0.0358269, 0.0078889, 0.9315, -0.2275391, 0.9315, -0.9125977, 0.9315, 0.1293945, 0.0358269, -0.01561, 0.9315, 0.3032227, 0.9315, -0.8696289, 0.9315, -0.2055664, 0.0358269, -0.0082246, 0.9315, 0.1508789, 0.9315, -0.9316406, 0.9315, 0.046875, 0.0358269, 0.0179599, 0.9315, -0.2036133, 0.9315, -0.9165039, 0.9315, 0.0493164, , , , , , , , , , , , , , , , , , , , , , 
0.0363462, 0.012253, 0.945, -0.2202148, 0.945, -0.9038086, 0.945, 0.1196289, 0.0363462, -0.0151064, 0.945, 0.300293, 0.945, -0.8618164, 0.945, -0.2104492, 0.0363462, -0.005539, 0.945, 0.1557617, 0.945, -0.9155273, 0.945, 0.0400391, 0.0363462, 0.0193027, 0.945, -0.2050781, 0.945, -0.9130859, 0.945, 0.0556641, , , , , , , , , , , , , , , , , , , , , , 
0.0368654, 0.0169528, 0.9585, -0.2192383, 0.9585, -0.8833008, 0.9585, 0.109375, 0.0368654, -0.0129244, 0.9585, 0.2856445, 0.9585, -0.8520508, 0.9585, -0.199707, 0.0368654, -0.0050355, 0.9585, 0.1518555, 0.9585, -0.9013672, 0.9585, 0.0341797, 0.0368654, 0.0209812, 0.9585, -0.2001953, 0.9585, -0.8999023, 0.9585, 0.0605469, , , , , , , , , , , , , , , , , , , , , , 
0.0373846, 0.0223239, 0.972, -0.206543, 0.972, -0.8569336, 0.972, 0.0996094, 0.0373846, -0.0099031, 0.972, 0.2758789, 0.972, -0.8398438, 0.972, -0.1928711, 0.0373846, -0.0041962, 0.972, 0.1396484, 0.972, -0.8789062, 0.972, 0.027832, 0.0373846, 0.0223239, 0.972, -0.1899414, 0.972, -0.8681641, 0.972, 0.0644531, , , , , , , , , , , , , , , , , , , , , , 
0.0379038, 0.0253452, 0.9855, -0.1704102, 0.9855, -0.8354492, 0.9855, 0.0888672, 0.0379038, -0.0085603, 0.9855, 0.2607422, 0.9855, -0.8027344, 0.9855, -0.1875, 0.0379038, -0.0018463, 0.9855, 0.1367188, 0.9855, -0.8266602, 0.9855, 0.019043, 0.0379038, 0.0240024, 0.9855, -0.1865234, 0.9855, -0.8237305, 0.9855, 0.0576172, , , , , , , , , , , , , , , , , , , , , , 
0.0384231, 0.026688, 0.999, -0.1503906, 0.999, -0.828125, 0.999, 0.0874023, 0.0384231, -0.0085603, 0.999, 0.2514648, 0.999, -0.7734375, 0.999, -0.2006836, 0.0384231, 0.0015106, 0.999, 0.1494141, 0.999, -0.7836914, 0.999, -0.0029297, 0.0384231, 0.0256809, 0.999, -0.1762695, 0.999, -0.7954102, 0.999, 0.0512695, , , , , , , , , , , , , , , , , , , , , , 
0.0389423, 0.0280308, 1.0125, -0.128418, 1.0125, -0.8129883, 1.0125, 0.0834961, 0.0389423, -0.0085603, 1.0125, 0.2412109, 1.0125, -0.7587891, 1.0125, -0.2036133, 0.0389423, 0.0025177, 1.0125, 0.1459961, 1.0125, -0.7626953, 1.0125, -0.0214844, 0.0389423, 0.0243381, 1.0125, -0.1459961, 1.0125, -0.7729492, 1.0125, 0.0561523, , , , , , , , , , , , , , , , , , , , , , 
0.0394615, 0.0305486, 1.026, -0.1201172, 1.026, -0.765625, 1.026, 0.0649414, 0.0394615, -0.0072175, 1.026, 0.2250977, 1.026, -0.7299805, 1.026, -0.1850586, 0.0394615, -0.0023499, 1.026, 0.1318359, 1.026, -0.7441406, 1.026, -0.0375977, 0.0394615, 0.0223239, 1.026, -0.109375, 1.026, -0.7504883, 1.026, 0.0634766, , , , , , , , , , , , , , , , , , , , , , 
0.0399808, 0.0313878, 1.0395, -0.1391602, 1.0395, -0.7270508, 1.0395, 0.0541992, 0.0399808, -0.0058747, 1.0395, 0.1894531, 1.0395, -0.6948242, 1.0395, -0.1796875, 0.0399808, -0.0075532, 1.0395, 0.1235352, 1.0395, -0.7114258, 1.0395, -0.0507812, 0.0399808, 0.0184634, 1.0395, -0.0732422, 1.0395, -0.7285156, 1.0395, 0.0668945, , , , , , , , , , , , , , , , , , , , , , 
0.0405, 0.0293736, 1.053, -0.15625, 1.053, -0.7045898, 1.053, 0.0332031, 0.0405, -0.0062104, 1.053, 0.1445312, 1.053, -0.6635742, 1.053, -0.1811523, 0.0405, -0.0078889, 1.053, 0.1235352, 1.053, -0.6943359, 1.053, -0.0537109, 0.0405, 0.0172885, 1.053, -0.0595703, 1.053, -0.6938477, 1.053, 0.0512695, , , , , , , , , , , , , , , , , , , , , , 
0.0410192, 0.0265202, 1.0665, -0.1464844, 1.0665, -0.6748047, 1.0665, 0.015625, 0.0410192, -0.0072175, 1.0665, 0.1088867, 1.0665, -0.6298828, 1.0665, -0.184082, 0.0410192, -0.0078889, 1.0665, 0.1191406, 1.0665, -0.6567383, 1.0665, -0.0537109, 0.0410192, 0.0157778, 1.0665, -0.0625, 1.0665, -0.6723633, 1.0665, 0.0385742, , , , , , , , , , , , , , , , , , , , , , 
0.0415385, 0.0271916, 1.08, -0.1103516, 1.08, -0.644043, 1.08, 0.0126953, 0.0415385, -0.0072175, 1.08, 0.1113281, 1.08, -0.5947266, 1.08, -0.1723633, 0.0415385, -0.008896, 1.08, 0.1191406, 1.08, -0.6171875, 1.08, -0.0507812, 0.0415385, 0.0112459, 1.08, -0.0737305, 1.08, -0.6308594, 1.08, 0.0209961, , , , , , , , , , , , , , , , , , , , , , 
0.0420577, 0.0256809, 1.0935, -0.0761719, 1.0935, -0.6254883, 1.0935, 0.0161133, 0.0420577, -0.0062104, 1.0935, 0.1376953, 1.0935, -0.5620117, 1.0935, -0.1669922, 0.0420577, -0.0095674, 1.0935, 0.1030273, 1.0935, -0.5791016, 1.0935, -0.0605469, 0.0420577, 0.0078889, 1.0935, -0.0654297, 1.0935, -0.5942383, 1.0935, 0.0151367, , , , , , , , , , , , , , , , , , , , , , 
0.0425769, 0.0226596, 1.107, -0.0820312, 1.107, -0.6069336, 1.107, 0.0327148, 0.0425769, -0.0075532, 1.107, 0.1464844, 1.107, -0.5507812, 1.107, -0.1679688, 0.0425769, -0.0095674, 1.107, 0.0913086, 1.107, -0.5551758, 1.107, -0.0708008, 0.0425769, 0.0095674, 1.107, -0.0405273, 1.107, -0.5649414, 1.107, 0.0024414, , , , , , , , , , , , , , , , , , , , , , 
0.0430962, 0.018967, 1.1205, -0.0795898, 1.1205, -0.581543, 1.1205, 0.0117188, 0.0430962, -0.008896, 1.1205, 0.1445312, 1.1205, -0.5351562, 1.1205, -0.1689453, 0.0430962, -0.0078889, 1.1205, 0.0927734, 1.1205, -0.5439453, 1.1205, -0.0859375, 0.0430962, 0.0112459, 1.1205, -0.0141602, 1.1205, -0.5488281, 1.1205, -0.0078125, , , , , , , , , , , , , , , , , , , , , , 
0.0436154, 0.0182956, 1.134, -0.0712891, 1.134, -0.5683594, 1.134, 0.0063477, 0.0436154, -0.0073854, 1.134, 0.1381836, 1.134, -0.5224609, 1.134, -0.1704102, 0.0436154, -0.0075532, 1.134, 0.0947266, 1.134, -0.5498047, 1.134, -0.0981445, 0.0436154, 0.0095674, 1.134, 0.0087891, 1.134, -0.5512695, 1.134, -0.0024414, , , , , , , , , , , , , , , , , , , , , , 
0.0441346, 0.0224918, 1.1475, -0.0727539, 1.1475, -0.581543, 1.1475, 0.0063477, 0.0441346, -0.0062104, 1.1475, 0.1396484, 1.1475, -0.5263672, 1.1475, -0.1533203, 0.0441346, -0.0068818, 1.1475, 0.1005859, 1.1475, -0.5639648, 1.1475, -0.1123047, 0.0441346, 0.0092317, 1.1475, 0.0327148, 1.1475, -0.5507812, 1.1475, 0.0029297, , , , , , , , , , , , , , , , , , , , , , 
0.0446538, 0.0240024, 1.161, -0.0854492, 1.161, -0.5864258, 1.161, -0.0014648, 0.0446538, -0.0068818, 1.161, 0.1352539, 1.161, -0.5361328, 1.161, -0.1333008, 0.0446538, -0.005539, 1.161, 0.1230469, 1.161, -0.5668945, 1.161, -0.1123047, 0.0446538, 0.0115816, 1.161, 0.0522461, 1.161, -0.5449219, 1.161, 0.0029297, , , , , , , , , , , , , , , , , , , , , , 
0.0451731, 0.0203098, 1.1745, -0.0913086, 1.1745, -0.5927734, 1.1745, -0.0219727, 0.0451731, -0.0068818, 1.1745, 0.1279297, 1.1745, -0.5478516, 1.1745, -0.1269531, 0.0451731, -0.0046998, 1.1745, 0.1489258, 1.1745, -0.5444336, 1.1745, -0.1416016, 0.0451731, 0.0115816, 1.1745, 0.0756836, 1.1745, -0.5395508, 1.1745, -0.0014648, , , , , , , , , , , , , , , , , , , , , , 
0.0456923, 0.0181277, 1.188, -0.0898438, 1.188, -0.6035156, 1.188, -0.0180664, 0.0456923, -0.0052033, 1.188, 0.1147461, 1.188, -0.5576172, 1.188, -0.1303711, 0.0456923, -0.0082246, 1.188, 0.152832, 1.188, -0.5371094, 1.188, -0.1621094, 0.0456923, 0.0082246, 1.188, 0.1123047, 1.188, -0.5483398, 1.188, -0.0004883, , , , , , , , , , , , , , , , , , , , , , 
0.0462115, 0.0172885, 1.2015, -0.0791016, 1.2015, -0.6025391, 1.2015, -0.0170898, 0.0462115, -0.005539, 1.2015, 0.0908203, 1.2015, -0.5585938, 1.2015, -0.1499023, 0.0462115, -0.0104067, 1.2015, 0.1386719, 1.2015, -0.5454102, 1.2015, -0.1806641, 0.0462115, 0.0077211, 1.2015, 0.1259766, 1.2015, -0.5644531, 1.2015, 0.0063477, , , , , , , , , , , , , , , , , , , , , , 
0.0467308, 0.0152743, 1.215, -0.074707, 1.215, -0.6230469, 1.215, -0.0327148, 0.0467308, -0.0075532, 1.215, 0.0791016, 1.215, -0.5800781, 1.215, -0.1748047, 0.0467308, -0.010071, 1.215, 0.1137695, 1.215, -0.5820312, 1.215, -0.1923828, 0.0467308, 0.0078889, 1.215, 0.112793, 1.215, -0.5952148, 1.215, 0.0087891, , , , , , , , , , , , , , , , , , , , , , 
0.04725, 0.0112459, 1.2285, -0.0922852, 1.2285, -0.668457, 1.2285, -0.0229492, 0.04725, -0.0078889, 1.2285, 0.0786133, 1.2285, -0.6005859, 1.2285, -0.1728516, 0.04725, -0.0078889, 1.2285, 0.0820312, 1.2285, -0.6464844, 1.2285, -0.1943359, 0.04725, 0.0058747, 1.2285, 0.1069336, 1.2285, -0.6137695, 1.2285, 0.0068359, , , , , , , , , , , , , , , , , , , , , , 
0.0477692, 0.0112459, 1.242, -0.097168, 1.242, -0.7084961, 1.242, -0.0332031, 0.0477692, -0.0062104, 1.242, 0.0981445, 1.242, -0.6489258, 1.242, -0.1357422, 0.0477692, -0.0065461, 1.242, 0.0864258, 1.242, -0.6801758, 1.242, -0.1914062, 0.0477692, 0.0038605, 1.242, 0.1044922, 1.242, -0.6416016, 1.242, 0.0019531, , , , , , , , , , , , , , , , , , , , , , 
0.0482885, 0.0159457, 1.2555, -0.0986328, 1.2555, -0.734375, 1.2555, -0.0449219, 0.0482885, -0.005539, 1.2555, 0.1303711, 1.2555, -0.6796875, 1.2555, -0.1098633, 0.0482885, -0.0082246, 1.2555, 0.0981445, 1.2555, -0.6831055, 1.2555, -0.2055664, 0.0482885, 0.0050355, 1.2555, 0.1103516, 1.2555, -0.6572266, 1.2555, -0.0107422, , , , , , , , , , , , , , , , , , , , , , 
0.0488077, 0.0105745, 1.269, -0.074707, 1.269, -0.737793, 1.269, -0.0546875, 0.0488077, -0.0063783, 1.269, 0.1503906, 1.269, -0.6831055, 1.269, -0.1171875, 0.0488077, -0.0095674, 1.269, 0.0859375, 1.269, -0.6557617, 1.269, -0.2685547, 0.0488077, 0.0078889, 1.269, 0.1499023, 1.269, -0.6586914, 1.269, -0.0302734, , , , , , , , , , , , , , , , , , , , , , 
0.0493269, 0.0038605, 1.2825, -0.0249023, 1.2825, -0.715332, 1.2825, -0.0390625, 0.0493269, -0.0090639, 1.2825, 0.1455078, 1.2825, -0.6601562, 1.2825, -0.1508789, 0.0493269, -0.0078889, 1.2825, 0.065918, 1.2825, -0.612793, 1.2825, -0.3320312, 0.0493269, 0.008896, 1.2825, 0.2084961, 1.2825, -0.6459961, 1.2825, -0.0390625, , , , , , , , , , , , , , , , , , , , , , 
0.0498462, -0.0001678, 1.296, -0.0234375, 1.296, -0.7299805, 1.296, -0.015625, 0.0498462, -0.0102388, 1.296, 0.0917969, 1.296, -0.6479492, 1.296, -0.1918945, 0.0498462, -0.0065461, 1.296, 0.0629883, 1.296, -0.6201172, 1.296, -0.3530273, 0.0498462, 0.0092317, 1.296, 0.2636719, 1.296, -0.6459961, 1.296, -0.0356445, , , , , , , , , , , , , , , , , , , , , , 
0.0503654, -0.0031891, 1.3095, -0.0825195, 1.3095, -0.7607422, 1.3095, -0.0063477, 0.0503654, -0.0095674, 1.3095, 0.0292969, 1.3095, -0.6904297, 1.3095, -0.2006836, 0.0503654, -0.0105745, 1.3095, 0.0795898, 1.3095, -0.6772461, 1.3095, -0.3339844, 0.0503654, 0.0065461, 1.3095, 0.2822266, 1.3095, -0.6533203, 1.3095, -0.0307617, , , , , , , , , , , , , , , , , , , , , , 
0.0508846, -0.0052033, 1.323, -0.15625, 1.323, -0.7792969, 1.323, -0.0175781, 0.0508846, -0.0099031, 1.323, 0.015625, 1.323, -0.7392578, 1.323, -0.1899414, 0.0508846, -0.0159457, 1.323, 0.0869141, 1.323, -0.7133789, 1.323, -0.3212891, 0.0508846, 0.0035248, 1.323, 0.2602539, 1.323, -0.6811523, 1.323, -0.0166016, , , , , , , , , , , , , , , , , , , , , , 
0.0514038, -0.0035248, 1.3365, -0.1772461, 1.3365, -0.7949219, 1.3365, -0.0214844, 0.0514038, -0.0112459, 1.3365, 0.0610352, 1.3365, -0.7573242, 1.3365, -0.1933594, 0.0514038, -0.0142672, 1.3365, 0.0961914, 1.3365, -0.7592773, 1.3365, -0.3017578, 0.0514038, 0.0025177, 1.3365, 0.2368164, 1.3365, -0.7299805, 1.3365, -0.0039062, , , , , , , , , , , , , , , , , , , , , , 
0.0519231, -0.002182, 1.35, -0.1542969, 1.35, -0.8266602, 1.35, -0.0175781, 0.0519231, -0.0095674, 1.35, 0.1000977, 1.35, -0.7592773, 1.35, -0.1928711, 0.0519231, -0.0099031, 1.35, 0.1245117, 1.35, -0.7636719, 1.35, -0.3125, 0.0519231, 0.002182, 1.35, 0.2231445, 1.35, -0.7695312, 1.35, 0.0039062, , , , , , , , , , , , , , , , , , , , , , 
0.0524423, 0.0018463, 1.3635, -0.0844727, 1.3635, -0.8647461, 1.3635, 0.0229492, 0.0524423, -0.0075532, 1.3635, 0.1787109, 1.3635, -0.7661133, 1.3635, -0.1762695, 0.0524423, -0.0102388, 1.3635, 0.1738281, 1.3635, -0.7568359, 1.3635, -0.3120117, 0.0524423, 0.0035248, 1.3635, 0.246582, 1.3635, -0.8012695, 1.3635, 0.0029297, , , , , , , , , , , , , , , , , , , , , , 
0.0529615, 0.0058747, 1.377, -0.0546875, 1.377, -0.9033203, 1.377, 0.0458984, 0.0529615, -0.0075532, 1.377, 0.2275391, 1.377, -0.8037109, 1.377, -0.1699219, 0.0529615, -0.0095674, 1.377, 0.2138672, 1.377, -0.7929688, 1.377, -0.3115234, 0.0529615, 0.0070497, 1.377, 0.2734375, 1.377, -0.8105469, 1.377, -0.0009766, , , , , , , , , , , , , , , , , , , , , , 
0.0534808, 0.0058747, 1.3905, -0.1279297, 1.3905, -0.925293, 1.3905, 0.0385742, 0.0534808, -0.0083925, 1.3905, 0.2119141, 1.3905, -0.8720703, 1.3905, -0.1762695, 0.0534808, -0.008896, 1.3905, 0.2070312, 1.3905, -0.8754883, 1.3905, -0.3432617, 0.0534808, 0.0099031, 1.3905, 0.3295898, 1.3905, -0.8364258, 1.3905, -0.0102539, , , , , , , , , , , , , , , , , , , , , , 
0.054, 0.0005035, 1.404, -0.199707, 1.404, -0.9428711, 1.404, 0.0209961, 0.054, -0.0075532, 1.404, 0.1464844, 1.404, -0.9204102, 1.404, -0.2006836, 0.054, -0.0082246, 1.404, 0.1459961, 1.404, -0.9458008, 1.404, -0.3881836, 0.054, 0.0119173, 1.404, 0.371582, 1.404, -0.8867188, 1.404, -0.0063477, , , , , , , , , , , , , , , , , , , , , , 
0.0545192, -0.002182, 1.4175, -0.2207031, 1.4175, -1.0073242, 1.4175, 0.0292969, 0.0545192, -0.0072175, 1.4175, 0.1416016, 1.4175, -0.9453125, 1.4175, -0.1977539, 0.0545192, -0.0095674, 1.4175, 0.1015625, 1.4175, -1.0112305, 1.4175, -0.3823242, 0.0545192, 0.0159457, 1.4175, 0.362793, 1.4175, -0.9482422, 1.4175, 0.0151367, , , , , , , , , , , , , , , , , , , , , , 
0.0550385, -0.0005035, 1.431, -0.2260742, 1.431, -1.0859375, 1.431, 0.0556641, 0.0550385, -0.0075532, 1.431, 0.2104492, 1.431, -0.9902344, 1.431, -0.1655273, 0.0550385, -0.0102388, 1.431, 0.121582, 1.431, -1.0332031, 1.431, -0.3632812, 0.0550385, 0.0172885, 1.431, 0.3017578, 1.431, -0.996582, 1.431, 0.0195312, , , , , , , , , , , , , , , , , , , , , , 
0.0555577, 0.0057069, 1.4445, -0.2270508, 1.4445, -1.1108398, 1.4445, 0.0625, 0.0555577, -0.005539, 1.4445, 0.2705078, 1.4445, -1.0380859, 1.4445, -0.1616211, 0.0555577, -0.0097353, 1.4445, 0.152832, 1.4445, -1.0239258, 1.4445, -0.3574219, 0.0555577, 0.0176242, 1.4445, 0.2685547, 1.4445, -1.0112305, 1.4445, 0.0268555, , , , , , , , , , , , , , , , , , , , , , 
0.0560769, 0.0149386, 1.458, -0.1625977, 1.458, -1.0917969, 1.458, 0.0361328, 0.0560769, -0.0035248, 1.458, 0.262207, 1.458, -1.0454102, 1.458, -0.2104492, 0.0560769, -0.0095674, 1.458, 0.2167969, 1.458, -0.9868164, 1.458, -0.3583984, 0.0560769, 0.0191348, 1.458, 0.2910156, 1.458, -1.0117188, 1.458, 0.0395508, , , , , , , , , , , , , , , , , , , , , , 
0.0565962, 0.0193027, 1.4715, -0.1113281, 1.4715, -1.1113281, 1.4715, 0.0913086, 0.0565962, -0.0035248, 1.4715, 0.2426758, 1.4715, -1.0473633, 1.4715, -0.2299805, 0.0565962, -0.0109102, 1.4715, 0.2373047, 1.4715, -0.9960938, 1.4715, -0.3725586, 0.0565962, 0.0229953, 1.4715, 0.3305664, 1.4715, -1.027832, 1.4715, 0.0581055, , , , , , , , , , , , , , , , , , , , , , 
0.0571154, 0.0193027, 1.485, -0.1484375, 1.485, -1.1625977, 1.485, 0.1308594, 0.0571154, -0.0038605, 1.485, 0.2207031, 1.485, -1.0742188, 1.485, -0.230957, 0.0571154, -0.012253, 1.485, 0.2485352, 1.485, -1.0712891, 1.485, -0.3964844, 0.0571154, 0.0260166, 1.485, 0.3466797, 1.485, -1.0859375, 1.485, 0.0644531, , , , , , , , , , , , , , , , , , , , , , 
0.0576346, 0.0204776, 1.4985, -0.1933594, 1.4985, -1.1870117, 1.4985, 0.1235352, 0.0576346, -0.0050355, 1.4985, 0.2441406, 1.4985, -1.1289062, 1.4985, -0.2036133, 0.0576346, -0.0130922, 1.4985, 0.2597656, 1.4985, -1.1738281, 1.4985, -0.3798828, 0.0576346, 0.0265202, 1.4985, 0.3833008, 1.4985, -1.1606445, 1.4985, 0.0795898, , , , , , , , , , , , , , , , , , , , , , 
0.0581538, 0.0250095, 1.512, -0.2705078, 1.512, -1.2324219, 1.512, 0.0727539, 0.0581538, -0.0057069, 1.512, 0.2670898, 1.512, -1.1821289, 1.512, -0.2016602, 0.0581538, -0.0099031, 1.512, 0.2578125, 1.512, -1.2202148, 1.512, -0.3823242, 0.0581538, 0.0260166, 1.512, 0.4135742, 1.512, -1.199707, 1.512, 0.0795898, , , , , , , , , , , , , , , , , , , , , , 
0.0586731, 0.0287022, 1.5255, -0.2636719, 1.5255, -1.2788086, 1.5255, 0.0454102, 0.0586731, -0.0050355, 1.5255, 0.2773438, 1.5255, -1.2202148, 1.5255, -0.2119141, 0.0586731, -0.0072175, 1.5255, 0.246582, 1.5255, -1.203125, 1.5255, -0.3989258, 0.0586731, 0.0256809, 1.5255, 0.4038086, 1.5255, -1.2021484, 1.5255, 0.0703125, , , , , , , , , , , , , , , , , , , , , , 
0.0591923, 0.0261845, 1.539, -0.2006836, 1.539, -1.3149414, 1.539, 0.0810547, 0.0591923, -0.0048676, 1.539, 0.3032227, 1.539, -1.2416992, 1.539, -0.1762695, 0.0591923, -0.0095674, 1.539, 0.2578125, 1.539, -1.1904297, 1.539, -0.4160156, 0.0591923, 0.0255131, 1.539, 0.3588867, 1.539, -1.1899414, 1.539, 0.0566406, , , , , , , , , , , , , , , , , , , , , , 
0.0597115, 0.0179599, 1.5525, -0.1831055, 1.5525, -1.3276367, 1.5525, 0.1171875, 0.0597115, -0.0052033, 1.5525, 0.324707, 1.5525, -1.2631836, 1.5525, -0.1616211, 0.0597115, -0.0129244, 1.5525, 0.2504883, 1.5525, -1.2231445, 1.5525, -0.4370117, 0.0597115, 0.0229953, 1.5525, 0.3486328, 1.5525, -1.1972656, 1.5525, 0.0649414, , , , , , , , , , , , , , , , , , , , , , 
0.0602308, 0.0152743, 1.566, -0.2324219, 1.566, -1.3359375, 1.566, 0.1240234, 0.0602308, -0.0052033, 1.566, 0.3212891, 1.566, -1.2963867, 1.566, -0.2036133, 0.0602308, -0.0115816, 1.566, 0.2202148, 1.566, -1.2739258, 1.566, -0.4428711, 0.0602308, 0.0199741, 1.566, 0.3994141, 1.566, -1.2587891, 1.566, 0.0786133, , , , , , , , , , , , , , , , , , , , , , 
0.06075, 0.0159457, 1.5795, -0.2685547, 1.5795, -1.3764648, 1.5795, 0.0927734, 0.06075, -0.005539, 1.5795, 0.3139648, 1.5795, -1.3349609, 1.5795, -0.2104492, 0.06075, -0.008896, 1.5795, 0.2177734, 1.5795, -1.2998047, 1.5795, -0.4355469, 0.06075, 0.0204776, 1.5795, 0.4482422, 1.5795, -1.3393555, 1.5795, 0.0756836, , , , , , , , , , , , , , , , , , , , , , 
0.0612692, 0.0186313, 1.593, -0.2446289, 1.593, -1.4501953, 1.593, 0.0649414, 0.0612692, -0.005539, 1.593, 0.3193359, 1.593, -1.3852539, 1.593, -0.1982422, 0.0612692, -0.0085603, 1.593, 0.2431641, 1.593, -1.3486328, 1.593, -0.4311523, 0.0612692, 0.0226596, 1.593, 0.4785156, 1.593, -1.3798828, 1.593, 0.0571289, , , , , , , , , , , , , , , , , , , , , , 
0.0617885, 0.0253452, 1.6065, -0.1748047, 1.6065, -1.4838867, 1.6065, 0.0605469, 0.0617885, -0.0058747, 1.6065, 0.3354492, 1.6065, -1.4130859, 1.6065, -0.1723633, 0.0617885, -0.0078889, 1.6065, 0.3056641, 1.6065, -1.3510742, 1.6065, -0.4433594, 0.0617885, 0.0204776, 1.6065, 0.4775391, 1.6065, -1.3320312, 1.6065, 0.0595703, , , , , , , , , , , , , , , , , , , , , , 
0.0623077, 0.0253452, 1.62, -0.1557617, 1.62, -1.4716797, 1.62, 0.0712891, 0.0623077, -0.0068818, 1.62, 0.3632812, 1.62, -1.4663086, 1.62, -0.1220703, 0.0623077, -0.0065461, 1.62, 0.3676758, 1.62, -1.2871094, 1.62, -0.4785156, 0.0623077, 0.017792, 1.62, 0.4672852, 1.62, -1.265625, 1.62, 0.1010742, , , , , , , , , , , , , , , , , , , , , , 
0.0628269, 0.0199741, 1.6335, -0.1523438, 1.6335, -1.4389648, 1.6335, 0.0683594, 0.0628269, -0.0092317, 1.6335, 0.3867188, 1.6335, -1.4692383, 1.6335, -0.1279297, 0.0628269, -0.0065461, 1.6335, 0.3930664, 1.6335, -1.2514648, 1.6335, -0.4516602, 0.0628269, 0.0179599, 1.6335, 0.484375, 1.6335, -1.2744141, 1.6335, 0.1577148, , , , , , , , , , , , , , , , , , , , , , 
0.0633462, 0.0179599, 1.647, -0.1459961, 1.647, -1.4448242, 1.647, 0.0703125, 0.0633462, -0.0115816, 1.647, 0.3686523, 1.647, -1.4526367, 1.647, -0.1518555, 0.0633462, -0.0082246, 1.647, 0.4501953, 1.647, -1.2563477, 1.647, -0.4589844, 0.0633462, 0.017792, 1.647, 0.4873047, 1.647, -1.3349609, 1.647, 0.199707, , , , , , , , , , , , , , , , , , , , , , 
0.0638654, 0.0169528, 1.6605, -0.1943359, 1.6605, -1.4829102, 1.6605, 0.0976562, 0.0638654, -0.012253, 1.6605, 0.3125, 1.6605, -1.453125, 1.6605, -0.1699219, 0.0638654, -0.0085603, 1.6605, 0.4042969, 1.6605, -1.2661133, 1.6605, -0.5107422, 0.0638654, 0.0149386, 1.6605, 0.4677734, 1.6605, -1.3417969, 1.6605, 0.1894531, , , , , , , , , , , , , , , , , , , , , , 
0.0643846, 0.0152743, 1.674, -0.2373047, 1.674, -1.4936523, 1.674, 0.1040039, 0.0643846, -0.012253, 1.674, 0.277832, 1.674, -1.4580078, 1.674, -0.1313477, 0.0643846, -0.0078889, 1.674, 0.2373047, 1.674, -1.2675781, 1.674, -0.534668, 0.0643846, 0.0139315, 1.674, 0.4589844, 1.674, -1.3198242, 1.674, 0.1635742, , , , , , , , , , , , , , , , , , , , , , 
0.0649038, 0.0149386, 1.6875, -0.3505859, 1.6875, -1.4731445, 1.6875, 0.1054688, 0.0649038, -0.0115816, 1.6875, 0.3168945, 1.6875, -1.4633789, 1.6875, -0.0908203, 0.0649038, -0.0072175, 1.6875, 0.1630859, 1.6875, -1.2539062, 1.6875, -0.5131836, 0.0649038, 0.0132601, 1.6875, 0.4526367, 1.6875, -1.2592773, 1.6875, 0.1113281, , , , , , , , , , , , , , , , , , , , , , 
0.0654231, 0.0159457, 1.701, -0.418457, 1.701, -1.4448242, 1.701, 0.109375, 0.0654231, -0.0095674, 1.701, 0.4335938, 1.701, -1.4331055, 1.701, -0.0810547, 0.0654231, -0.0078889, 1.701, 0.2348633, 1.701, -1.2949219, 1.701, -0.4833984, 0.0654231, 0.0119173, 1.701, 0.4482422, 1.701, -1.2587891, 1.701, 0.0727539, , , , , , , , , , , , , , , , , , , , , , 
0.0659423, 0.0182956, 1.7145, -0.3994141, 1.7145, -1.4331055, 1.7145, 0.1567383, 0.0659423, -0.0095674, 1.7145, 0.5092773, 1.7145, -1.3901367, 1.7145, -0.081543, 0.0659423, -0.0075532, 1.7145, 0.2568359, 1.7145, -1.3168945, 1.7145, -0.4765625, 0.0659423, 0.0093996, 1.7145, 0.4648438, 1.7145, -1.3017578, 1.7145, 0.0415039, , , , , , , , , , , , , , , , , , , , , , 
0.0664615, 0.0162814, 1.728, -0.3115234, 1.728, -1.3837891, 1.728, 0.1118164, 0.0664615, -0.0095674, 1.728, 0.5229492, 1.728, -1.3701172, 1.728, -0.0800781, 0.0664615, -0.0068818, 1.728, 0.2734375, 1.728, -1.328125, 1.728, -0.4262695, 0.0664615, 0.0072175, 1.728, 0.4726562, 1.728, -1.3383789, 1.728, 0.0219727, , , , , , , , , , , , , , , , , , , , , , 
0.0669808, 0.0114137, 1.7415, -0.3364258, 1.7415, -1.3139648, 1.7415, 0.1557617, 0.0669808, -0.0092317, 1.7415, 0.5341797, 1.7415, -1.3530273, 1.7415, -0.0205078, 0.0669808, -0.0050355, 1.7415, 0.3486328, 1.7415, -1.3378906, 1.7415, -0.3125, 0.0669808, 0.0058747, 1.7415, 0.3876953, 1.7415, -1.328125, 1.7415, 0.0688477, , , , , , , , , , , , , , , , , , , , , , 
0.0675, 0.0109102, 1.755, -0.4433594, 1.755, -1.2319336, 1.755, 0.1298828, 0.0675, -0.0077211, 1.755, 0.5131836, 1.755, -1.3442383, 1.755, 0.0883789, 0.0675, -0.0035248, 1.755, 0.4208984, 1.755, -1.34375, 1.755, -0.2675781, 0.0675, 0.0052033, 1.755, 0.265625, 1.755, -1.3217773, 1.755, 0.1630859, , , , , , , , , , , , , , , , , , , , , , 
0.0680192, 0.0125887, 1.7685, -0.5791016, 1.7685, -1.1494141, 1.7685, 0.0527344, 0.0680192, -0.0068818, 1.7685, 0.4882812, 1.7685, -1.2885742, 1.7685, 0.1791992, 0.0680192, -0.0035248, 1.7685, 0.4233398, 1.7685, -1.3139648, 1.7685, -0.3081055, 0.0680192, 0.0045319, 1.7685, 0.2333984, 1.7685, -1.3193359, 1.7685, 0.2089844, , , , , , , , , , , , , , , , , , , , , , 
0.0685385, 0.0105745, 1.782, -0.7231445, 1.782, -1.1938477, 1.782, -0.0683594, 0.0685385, -0.0058747, 1.782, 0.4541016, 1.782, -1.2851562, 1.782, 0.2641602, 0.0685385, -0.0015106, 1.782, 0.3344727, 1.782, -1.2841797, 1.782, -0.4633789, 0.0685385, 0.0050355, 1.782, 0.2978516, 1.782, -1.309082, 1.782, 0.1943359, , , , , , , , , , , , , , , , , , , , , , 
0.0690577, 0.0052033, 1.7955, -0.90625, 1.7955, -1.2749023, 1.7955, 0.0175781, 0.0690577, -0.0052033, 1.7955, 0.5537109, 1.7955, -1.2949219, 1.7955, 0.1313477, 0.0690577, 0.0010071, 1.7955, 0.3154297, 1.7955, -1.3325195, 1.7955, -0.3994141, 0.0690577, 0.0045319, 1.7955, 0.4233398, 1.7955, -1.3193359, 1.7955, 0.0942383, , , , , , , , , , , , , , , , , , , , , , 
0.0695769, 0.0018463, 1.809, -0.7661133, 1.809, -1.2729492, 1.809, 0.2099609, 0.0695769, -0.005539, 1.809, 0.6582031, 1.809, -1.0371094, 1.809, -0.125, 0.0695769, 0.0005035, 1.809, 0.3662109, 1.809, -1.378418, 1.809, -0.3168945, 0.0695769, 0.0031891, 1.809, 0.5004883, 1.809, -1.3115234, 1.809, 0.0498047, , , , , , , , , , , , , , , , , , , , , , 
0.0700962, -0.0015106, 1.8225, -0.21875, 1.8225, -1.3120117, 1.8225, 0.0375977, 0.0700962, -0.0052033, 1.8225, 0.6435547, 1.8225, -1.0620117, 1.8225, -0.2885742, 0.0700962, -0.0025177, 1.8225, 0.3774414, 1.8225, -1.3647461, 1.8225, -0.3925781, 0.0700962, 0.0018463, 1.8225, 0.4858398, 1.8225, -1.3076172, 1.8225, 0.0366211, , , , , , , , , , , , , , , , , , , , , , 
0.0706154, -0.0045319, 1.836, 0.2592773, 1.836, -1.3535156, 1.836, 0.0776367, 0.0706154, -0.0048676, 1.836, 0.5947266, 1.836, -0.8974609, 1.836, -0.8466797, 0.0706154, -0.0035248, 1.836, 0.3950195, 1.836, -1.3613281, 1.836, -0.4204102, 0.0706154, -0.0008392, 1.836, 0.4897461, 1.836, -1.2734375, 1.836, -0.050293, , , , , , , , , , , , , , , , , , , , , , 
0.0711346, -0.0048676, 1.8495, 0.6889648, 1.8495, -1.4726562, 1.8495, 0.8417969, 0.0711346, -0.0041962, 1.8495, 0.5546875, 1.8495, -0.7832031, 1.8495, -0.8666992, 0.0711346, -0.0035248, 1.8495, 0.402832, 1.8495, -1.2636719, 1.8495, -0.5834961, 0.0711346, 0.0001678, 1.8495, 0.6572266, 1.8495, -1.2250977, 1.8495, -0.0229492, , , , , , , , , , , , , , , , , , , , , , 
0.0716538, -0.0041962, 1.863, 0.3793945, 1.863, -1.0551758, 1.863, 0.3642578, 0.0716538, -0.0045319, 1.863, 0.3398438, 1.863, -0.9306641, 1.863, 0.6347656, 0.0716538, -0.0028534, 1.863, 0.6308594, 1.863, -1.1376953, 1.863, -0.4458008, 0.0716538, 0.0005035, 1.863, 0.9013672, 1.863, -1.1171875, 1.863, 0.1083984, , , , , , , , , , , , , , , , , , , , , , 
0.0721731, -0.0018463, 1.8765, -1.0351562, 1.8765, -0.4858398, 1.8765, -0.4399414, 0.0721731, -0.0068818, 1.8765, 0.7128906, 1.8765, -0.9360352, 1.8765, 0.465332, 0.0721731, -0.0038605, 1.8765, 0.78125, 1.8765, -1.1425781, 1.8765, -0.1904297, 0.0721731, -0.0008392, 1.8765, 0.7275391, 1.8765, -1.0161133, 1.8765, 0.1274414, , , , , , , , , , , , , , , , , , , , , , 
0.0726923, 0.0025177, 1.89, -1.7871094, 1.89, -0.6313477, 1.89, -0.1855469, 0.0726923, -0.0083925, 1.89, 0.9267578, 1.89, -1.0053711, 1.89, -0.3706055, 0.0726923, -0.0070497, 1.89, 0.3725586, 1.89, -1.1430664, 1.89, -0.3891602, 0.0726923, 0.0008392, 1.89, 0.253418, 1.89, -1.043457, 1.89, 0.1494141, , , , , , , , , , , , , , , , , , , , , , 
0.0732115, 0.0060426, 1.9035, -1.4365234, 1.9035, -1.0756836, 1.9035, 0.1601562, 0.0732115, -0.0075532, 1.9035, 0.1748047, 1.9035, -1.0610352, 1.9035, 0.3037109, 0.0732115, -0.0095674, 1.9035, -0.0629883, 1.9035, -1.0390625, 1.9035, -0.3325195, 0.0732115, 0.0031891, 1.9035, -0.0644531, 1.9035, -1.1630859, 1.9035, 0.1508789, , , , , , , , , , , , , , , , , , , , , , 
0.0737308, 0.0083925, 1.917, -0.472168, 1.917, -0.9423828, 1.917, 0.2329102, 0.0737308, -0.0048676, 1.917, 0.0791016, 1.917, -0.8349609, 1.917, -0.2875977, 0.0737308, -0.0090639, 1.917, 0.0224609, 1.917, -0.9702148, 1.917, -0.3500977, 0.0737308, 0.0050355, 1.917, -0.2651367, 1.917, -1.2290039, 1.917, 0.2075195, , , , , , , , , , , , , , , , , , , , , , 
0.07425, 0.0062104, 1.9305, 0.2910156, 1.9305, -1.171875, 1.9305, 0.4223633, 0.07425, -0.0035248, 1.9305, 0.3549805, 1.9305, -0.9086914, 1.9305, -0.2407227, 0.07425, -0.0092317, 1.9305, 0.0483398, 1.9305, -0.9311523, 1.9305, -0.3540039, 0.07425, 0.0065461, 1.9305, -0.1748047, 1.9305, -1.1264648, 1.9305, 0.2524414, , , , , , , , , , , , , , , , , , , , , , 
0.0747692, 0.0082246, 1.944, 0.1791992, 1.944, -1.3300781, 1.944, 0.519043, 0.0747692, -0.0031891, 1.944, 0.9790039, 1.944, -1.1542969, 1.944, -0.125, 0.0747692, -0.0083925, 1.944, 0.3642578, 1.944, -0.8999023, 1.944, -0.3081055, 0.0747692, 0.0078889, 1.944, 0.152832, 1.944, -0.9379883, 1.944, 0.2524414, , , , , , , , , , , , , , , , , , , , , , 
0.0752885, 0.0135958, 1.9575, -0.2753906, 1.9575, -0.9008789, 1.9575, 0.1245117, 0.0752885, -0.0036927, 1.9575, 0.940918, 1.9575, -1.1362305, 1.9575, -0.0571289, 0.0752885, -0.0075532, 1.9575, 0.6235352, 1.9575, -0.9711914, 1.9575, -0.3618164, 0.0752885, 0.0075532, 1.9575, 0.4829102, 1.9575, -0.9116211, 1.9575, 0.2285156, , , , , , , , , , , , , , , , , , , , , , 
0.0758077, 0.0152743, 1.971, -0.6420898, 1.971, -0.7666016, 1.971, 0.1508789, 0.0758077, -0.0068818, 1.971, 0.7358398, 1.971, -1.0302734, 1.971, -0.1474609, 0.0758077, -0.0072175, 1.971, 0.6025391, 1.971, -0.9506836, 1.971, -0.3081055, 0.0758077, 0.0090639, 1.971, 0.5600586, 1.971, -0.9428711, 1.971, 0.2319336, , , , , , , , , , , , , , , , , , , , , , 
0.0763269, 0.0179599, 1.9845, -0.6347656, 1.9845, -0.8579102, 1.9845, 0.2475586, 0.0763269, -0.0085603, 1.9845, 0.1689453, 1.9845, -0.8120117, 1.9845, -0.1601562, 0.0763269, -0.0083925, 1.9845, 0.4794922, 1.9845, -0.8955078, 1.9845, -0.2885742, 0.0763269, 0.0112459, 1.9845, 0.449707, 1.9845, -0.9941406, 1.9845, 0.2553711, , , , , , , , , , , , , , , , , , , , , , 
0.0768462, 0.0236667, 1.998, -0.5249023, 1.998, -0.8686523, 1.998, 0.2558594, 0.0768462, -0.0082246, 1.998, 0.0820312, 1.998, -0.7099609, 1.998, -0.1552734, 0.0768462, -0.0099031, 1.998, 0.3798828, 1.998, -0.8989258, 1.998, -0.2558594, 0.0768462, 0.0137636, 1.998, 0.2241211, 1.998, -0.9790039, 1.998, 0.1850586, , , , , , , , , , , , , , , , , , , , , , 
0.0773654, 0.027863, 2.0115, -0.2910156, 2.0115, -0.8701172, 2.0115, 0.2397461, 0.0773654, -0.0075532, 2.0115, 0.4174805, 2.0115, -0.8422852, 2.0115, -0.0791016, 0.0773654, -0.0104067, 2.0115, 0.2602539, 2.0115, -0.8930664, 2.0115, -0.2719727, 0.0773654, 0.0179599, 2.0115, 0.1225586, 2.0115, -0.9296875, 2.0115, 0.1386719, , , , , , , , , , , , , , , , , , , , , , 
0.0778846, 0.0327306, 2.025, -0.409668, 2.025, -0.9135742, 2.025, 0.2885742, 0.0778846, -0.0068818, 2.025, 0.7539062, 2.025, -0.9492188, 2.025, -0.0478516, 0.0778846, -0.0105745, 2.025, 0.1928711, 2.025, -0.8574219, 2.025, -0.2348633, 0.0778846, 0.0199741, 2.025, 0.125, 2.025, -0.9052734, 2.025, 0.1088867, , , , , , , , , , , , , , , , , , , , , , 
0.0784038, 0.0347448, 2.0385, -0.5, 2.0385, -0.8779297, 2.0385, 0.2275391, 0.0784038, -0.005539, 2.0385, 0.7719727, 2.0385, -0.8276367, 2.0385, -0.0673828, 0.0784038, -0.0095674, 2.0385, 0.1757812, 2.0385, -0.9145508, 2.0385, -0.2036133, 0.0784038, 0.0208133, 2.0385, 0.121582, 2.0385, -0.902832, 2.0385, 0.0649414, , , , , , , , , , , , , , , , , , , , , , 
0.0789231, 0.0340734, 2.052, -0.3847656, 2.052, -0.8359375, 2.052, 0.1875, 0.0789231, -0.0058747, 2.052, 0.4755859, 2.052, -0.7182617, 2.052, 0.0058594, 0.0789231, -0.0082246, 2.052, 0.2109375, 2.052, -0.9179688, 2.052, -0.2089844, 0.0789231, 0.0209812, 2.052, 0.1503906, 2.052, -0.9174805, 2.052, 0.0185547, , , , , , , , , , , , , , , , , , , , , , 
0.0794423, 0.0332341, 2.0655, -0.3120117, 2.0655, -0.8081055, 2.0655, 0.1259766, 0.0794423, -0.0075532, 2.0655, 0.2939453, 2.0655, -0.7568359, 2.0655, 0.050293, 0.0794423, -0.0072175, 2.0655, 0.2163086, 2.0655, -0.9511719, 2.0655, -0.2172852, 0.0794423, 0.021149, 2.0655, 0.2392578, 2.0655, -0.9208984, 2.0655, -0.0087891, , , , , , , , , , , , , , , , , , , , , , 
0.0799615, 0.0320592, 2.079, -0.3808594, 2.079, -0.8608398, 2.079, 0.0566406, 0.0799615, -0.0058747, 2.079, 0.4135742, 2.079, -0.8510742, 2.079, 0.0742188, 0.0799615, -0.0052033, 2.079, 0.1582031, 2.079, -0.9370117, 2.079, -0.2563477, 0.0799615, 0.0199741, 2.079, 0.2851562, 2.079, -0.9121094, 2.079, -0.0302734, , , , , , , , , , , , , , , , , , , , , , 
0.0804808, 0.0263523, 2.0925, -0.4741211, 2.0925, -0.9282227, 2.0925, -0.074707, 0.0804808, -0.0025177, 2.0925, 0.4863281, 2.0925, -0.8789062, 2.0925, 0.1152344, 0.0804808, -0.005539, 2.0925, 0.1538086, 2.0925, -0.940918, 2.0925, -0.3706055, 0.0804808, 0.0196384, 2.0925, 0.3149414, 2.0925, -0.918457, 2.0925, -0.0732422, , , , , , , , , , , , , , , , , , , , , , 
0.081, 0.0199741, 2.106, -0.4501953, 2.106, -0.987793, 2.106, -0.046875, 0.081, -0.0025177, 2.106, 0.4667969, 2.106, -0.9448242, 2.106, 0.1171875, 0.081, -0.0057069, 2.106, 0.1542969, 2.106, -0.9438477, 2.106, -0.375, 0.081, 0.018967, 2.106, 0.394043, 2.106, -0.9384766, 2.106, -0.1103516, , , , , , , , , , , , , , , , , , , , , , 
0.0815192, 0.0142672, 2.1195, -0.296875, 2.1195, -1.0844727, 2.1195, -0.0786133, 0.0815192, -0.0041962, 2.1195, 0.3686523, 2.1195, -1.0019531, 2.1195, 0.0410156, 0.0815192, -0.0068818, 2.1195, 0.1660156, 2.1195, -0.9746094, 2.1195, -0.3603516, 0.0815192, 0.0169528, 2.1195, 0.4443359, 2.1195, -0.9492188, 2.1195, -0.1352539, , , , , , , , , , , , , , , , , , , , , , 
0.0820385, 0.0149386, 2.133, -0.2363281, 2.133, -1.1347656, 2.133, 0.0776367, 0.0820385, -0.0063783, 2.133, 0.3510742, 2.133, -1.0571289, 2.133, 0.0825195, 0.0820385, -0.0072175, 2.133, 0.246582, 2.133, -0.9755859, 2.133, -0.4121094, 0.0820385, 0.0132601, 2.133, 0.5454102, 2.133, -0.9765625, 2.133, -0.1582031, , , , , , , , , , , , , , , , , , , , , , 
0.0825577, 0.0186313, 2.1465, -0.3710938, 2.1465, -1.1328125, 2.1465, 0.0498047, 0.0825577, -0.0068818, 2.1465, 0.5478516, 2.1465, -1.0009766, 2.1465, 0.0576172, 0.0825577, -0.0068818, 2.1465, 0.2875977, 2.1465, -1.0708008, 2.1465, -0.3486328, 0.0825577, 0.0102388, 2.1465, 0.5708008, 2.1465, -0.9672852, 2.1465, -0.1518555, , , , , , , , , , , , , , , , , , , , , , 
0.0830769, 0.0209812, 2.16, -0.6503906, 2.16, -1.1035156, 2.16, 0.1748047, 0.0830769, -0.0075532, 2.16, 0.7348633, 2.16, -0.9272461, 2.16, 0.0444336, 0.0830769, -0.0058747, 2.16, 0.2875977, 2.16, -1.0932617, 2.16, -0.2734375, 0.0830769, 0.008896, 2.16, 0.4584961, 2.16, -1.0112305, 2.16, -0.0698242, , , , , , , , , , , , , , , , , , , , , , 
0.0835962, 0.0219883, 2.1735, -0.6352539, 2.1735, -1.0693359, 2.1735, 0.2104492, 0.0835962, -0.0095674, 2.1735, 0.6557617, 2.1735, -0.9907227, 2.1735, 0.065918, 0.0835962, -0.005539, 2.1735, 0.4326172, 2.1735, -1.125, 2.1735, -0.1767578, 0.0835962, 0.0083925, 2.1735, 0.3037109, 2.1735, -1.1391602, 2.1735, 0.0151367, , , , , , , , , , , , , , , , , , , , , , 
0.0841154, 0.0198062, 2.187, -0.4995117, 2.187, -0.855957, 2.187, 0.1982422, 0.0841154, -0.0112459, 2.187, 0.5688477, 2.187, -0.8754883, 2.187, 0.0224609, 0.0841154, -0.0068818, 2.187, 0.4379883, 2.187, -1.1103516, 2.187, -0.1347656, 0.0841154, 0.0083925, 2.187, 0.2250977, 2.187, -1.1694336, 2.187, 0.0571289, , , , , , , , , , , , , , , , , , , , , , 
0.0846346, 0.0179599, 2.2005, -0.5493164, 2.2005, -0.7094727, 2.2005, 0.2475586, 0.0846346, -0.0125887, 2.2005, 0.5708008, 2.2005, -0.6777344, 2.2005, -0.0371094, 0.0846346, -0.0082246, 2.2005, 0.3198242, 2.2005, -1.0444336, 2.2005, -0.1162109, 0.0846346, 0.0092317, 2.2005, 0.0942383, 2.2005, -1.0820312, 2.2005, 0.1230469, , , , , , , , , , , , , , , , , , , , , , 
0.0851538, 0.0186313, 2.214, -0.7060547, 2.214, -0.7412109, 2.214, 0.2241211, 0.0851538, -0.0125887, 2.214, 0.5556641, 2.214, -0.7817383, 2.214, 0.0205078, 0.0851538, -0.0058747, 2.214, 0.328125, 2.214, -1.0498047, 2.214, -0.1660156, 0.0851538, 0.0102388, 2.214, -0.0175781, 2.214, -1.0458984, 2.214, 0.206543, , , , , , , , , , , , , , , , , , , , , , 
0.0856731, 0.0182956, 2.2275, -0.7392578, 2.2275, -0.878418, 2.2275, 0.2124023, 0.0856731, -0.0095674, 2.2275, 0.5810547, 2.2275, -0.8916016, 2.2275, -0.065918, 0.0856731, -0.0043641, 2.2275, 0.3266602, 2.2275, -1.0634766, 2.2275, -0.1474609, 0.0856731, 0.0142672, 2.2275, -0.0805664, 2.2275, -1.0952148, 2.2275, 0.2304688, , , , , , , , , , , , , , , , , , , , , , 
0.0861923, 0.0132601, 2.241, -0.4667969, 2.241, -1.0625, 2.241, 0.1879883, 0.0861923, -0.0082246, 2.241, 0.4765625, 2.241, -1.0361328, 2.241, -0.0629883, 0.0861923, -0.0041962, 2.241, 0.2929688, 2.241, -1.0419922, 2.241, -0.2089844, 0.0861923, 0.0164492, 2.241, 0.0039062, 2.241, -1.1625977, 2.241, 0.2324219, , , , , , , , , , , , , , , , , , , , , , 
0.0867115, 0.0095674, 2.2545, -0.324707, 2.2545, -1.1713867, 2.2545, 0.1738281, 0.0867115, -0.0087282, 2.2545, 0.4707031, 2.2545, -1.0922852, 2.2545, -0.0029297, 0.0867115, -0.005539, 2.2545, 0.2407227, 2.2545, -1.0327148, 2.2545, -0.3237305, 0.0867115, 0.01561, 2.2545, 0.1293945, 2.2545, -1.1416016, 2.2545, 0.1582031, , , , , , , , , , , , , , , , , , , , , , 
0.0872308, 0.0082246, 2.268, -0.4506836, 2.268, -1.0263672, 2.268, 0.0068359, 0.0872308, -0.0070497, 2.268, 0.5449219, 2.268, -1.0429688, 2.268, 0.1137695, 0.0872308, -0.005539, 2.268, 0.2446289, 2.268, -1.0654297, 2.268, -0.2744141, 0.0872308, 0.0129244, 2.268, 0.2255859, 2.268, -1.0854492, 2.268, 0.0649414, , , , , , , , , , , , , , , , , , , , , , 
0.08775, 0.0063783, 2.2815, -0.6674805, 2.2815, -1.0195312, 2.2815, -0.0024414, 0.08775, -0.0073854, 2.2815, 0.5292969, 2.2815, -1.0664062, 2.2815, 0.1206055, 0.08775, -0.0062104, 2.2815, 0.2250977, 2.2815, -1.1699219, 2.2815, -0.2871094, 0.08775, 0.0102388, 2.2815, 0.2788086, 2.2815, -1.0830078, 2.2815, -0.0014648, , , , , , , , , , , , , , , , , , , , , , 
0.0882692, 0.008896, 2.295, -0.6049805, 2.295, -1.1376953, 2.295, 0.0341797, 0.0882692, -0.0082246, 2.295, 0.440918, 2.295, -1.1748047, 2.295, 0.0634766, 0.0882692, -0.005539, 2.295, 0.2553711, 2.295, -1.1352539, 2.295, -0.2978516, 0.0882692, 0.0087282, 2.295, 0.3950195, 2.295, -1.1757812, 2.295, -0.0800781, , , , , , , , , , , , , , , , , , , , , , 
0.0887885, 0.0102388, 2.3085, -0.4038086, 2.3085, -1.2314453, 2.3085, 0.1689453, 0.0887885, -0.0082246, 2.3085, 0.4208984, 2.3085, -1.1704102, 2.3085, -0.0356445, 0.0887885, -0.005539, 2.3085, 0.4140625, 2.3085, -1.1191406, 2.3085, -0.359375, 0.0887885, 0.0048676, 2.3085, 0.4604492, 2.3085, -1.2592773, 2.3085, -0.0527344, , , , , , , , , , , , , , , , , , , , , , 
0.0893077, 0.0018463, 2.322, -0.3886719, 2.322, -1.3476562, 2.322, 0.2104492, 0.0893077, -0.0082246, 2.322, 0.5556641, 2.322, -1.2504883, 2.322, -0.0073242, 0.0893077, -0.0083925, 2.322, 0.5117188, 2.322, -1.1743164, 2.322, -0.3710938, 0.0893077, -0.0001678, 2.322, 0.546875, 2.322, -1.1845703, 2.322, -0.0048828, , , , , , , , , , , , , , , , , , , , , , 
0.0898269, -0.0065461, 2.3355, -0.4648438, 2.3355, -1.34375, 2.3355, 0.2373047, 0.0898269, -0.008896, 2.3355, 0.7368164, 2.3355, -1.3427734, 2.3355, 0.0039062, 0.0898269, -0.0114137, 2.3355, 0.4707031, 2.3355, -1.3037109, 2.3355, -0.3466797, 0.0898269, -0.0023499, 2.3355, 0.5952148, 2.3355, -1.1728516, 2.3355, 0.0327148, , , , , , , , , , , , , , , , , , , , , , 
0.0903462, -0.0115816, 2.349, -0.7026367, 2.349, -1.2724609, 2.349, 0.2670898, 0.0903462, -0.0105745, 2.349, 0.8037109, 2.349, -1.3413086, 2.349, -0.0463867, 0.0903462, -0.011078, 2.349, 0.5385742, 2.349, -1.3251953, 2.349, -0.3212891, 0.0903462, -0.0001678, 2.349, 0.4150391, 2.349, -1.3798828, 2.349, 0.1494141, , , , , , , , , , , , , , , , , , , , , , 
0.0908654, -0.0115816, 2.3625, -0.6401367, 2.3625, -1.2973633, 2.3625, 0.4584961, 0.0908654, -0.0119173, 2.3625, 0.8432617, 2.3625, -1.3027344, 2.3625, -0.2490234, 0.0908654, -0.0092317, 2.3625, 0.6054688, 2.3625, -1.3212891, 2.3625, -0.2905273, 0.0908654, 0.0041962, 2.3625, 0.1743164, 2.3625, -1.5737305, 2.3625, 0.269043, , , , , , , , , , , , , , , , , , , , , , 
0.0913846, -0.0083925, 2.376, -0.3852539, 2.376, -1.3051758, 2.376, 0.4921875, 0.0913846, -0.0119173, 2.376, 0.7324219, 2.376, -1.2167969, 2.376, -0.2084961, 0.0913846, -0.0092317, 2.376, 0.6391602, 2.376, -1.2485352, 2.376, -0.2514648, 0.0913846, 0.0063783, 2.376, 0.059082, 2.376, -1.503418, 2.376, 0.3974609, , , , , , , , , , , , , , , , , , , , , , 
0.0919038, -0.0048676, 2.3895, -0.4814453, 2.3895, -1.2338867, 2.3895, 0.378418, 0.0919038, -0.0132601, 2.3895, 0.7236328, 2.3895, -1.1860352, 2.3895, -0.0698242, 0.0919038, -0.0125887, 2.3895, 0.5302734, 2.3895, -1.2514648, 2.3895, -0.2060547, 0.0919038, 0.0062104, 2.3895, -0.0180664, 2.3895, -1.328125, 2.3895, 0.4013672, , , , , , , , , , , , , , , , , , , , , , 
0.0924231, -0.0043641, 2.403, -0.706543, 2.403, -1.1762695, 2.403, 0.2041016, 0.0924231, -0.0129244, 2.403, 0.753418, 2.403, -1.1958008, 2.403, 0.0708008, 0.0924231, -0.0149386, 2.403, 0.3061523, 2.403, -1.3188477, 2.403, -0.2290039, 0.0924231, 0.0062104, 2.403, -0.0908203, 2.403, -1.3535156, 2.403, 0.3286133, , , , , , , , , , , , , , , , , , , , , , 
0.0929423, -0.0045319, 2.4165, -0.7827148, 2.4165, -1.1611328, 2.4165, 0.1889648, 0.0929423, -0.0102388, 2.4165, 0.7241211, 2.4165, -1.2172852, 2.4165, 0.0712891, 0.0929423, -0.0137636, 2.4165, 0.2084961, 2.4165, -1.2924805, 2.4165, -0.2646484, 0.0929423, 0.0068818, 2.4165, -0.0756836, 2.4165, -1.4306641, 2.4165, 0.2563477, , , , , , , , , , , , , , , , , , , , , , 
0.0934615, -0.0008392, 2.43, -0.6464844, 2.43, -1.1870117, 2.43, 0.2558594, 0.0934615, -0.0102388, 2.43, 0.6547852, 2.43, -1.1572266, 2.43, 0.0268555, 0.0934615, -0.0114137, 2.43, 0.2993164, 2.43, -1.2851562, 2.43, -0.2314453, 0.0934615, 0.0105745, 2.43, -0.0097656, 2.43, -1.4121094, 2.43, 0.1933594, , , , , , , , , , , , , , , , , , , , , , 
0.0939808, 0.0041962, 2.4435, -0.5532227, 2.4435, -1.1821289, 2.4435, 0.2490234, 0.0939808, -0.0102388, 2.4435, 0.6616211, 2.4435, -1.0869141, 2.4435, 0.0932617, 0.0939808, -0.0082246, 2.4435, 0.3945312, 2.4435, -1.2773438, 2.4435, -0.2553711, 0.0939808, 0.0149386, 2.4435, 0.1796875, 2.4435, -1.2822266, 2.4435, 0.0268555, , , , , , , , , , , , , , , , , , , , , , 
0.0945, 0.0078889, 2.457, -0.6079102, 2.457, -1.1118164, 2.457, 0.1586914, 0.0945, -0.0115816, 2.457, 0.7363281, 2.457, -1.050293, 2.457, 0.1420898, 0.0945, -0.0060426, 2.457, 0.3862305, 2.457, -1.2685547, 2.457, -0.2299805, 0.0945, 0.0182956, 2.457, 0.3349609, 2.457, -1.2001953, 2.457, -0.0776367, , , , , , , , , , , , , , , , , , , , , , 
0.0950192, 0.0092317, 2.4705, -0.6074219, 2.4705, -1.0263672, 2.4705, 0.0957031, 0.0950192, -0.0109102, 2.4705, 0.7124023, 2.4705, -1.0322266, 2.4705, 0.1640625, 0.0950192, -0.0048676, 2.4705, 0.3491211, 2.4705, -1.2099609, 2.4705, -0.2255859, 0.0950192, 0.0196384, 2.4705, 0.4238281, 2.4705, -1.2211914, 2.4705, -0.0693359, , , , , , , , , , , , , , , , , , , , , , 
0.0955385, 0.0140993, 2.484, -0.5986328, 2.484, -1.0097656, 2.484, 0.1533203, 0.0955385, -0.008896, 2.484, 0.5996094, 2.484, -0.9902344, 2.484, 0.184082, 0.0955385, -0.0015106, 2.484, 0.375, 2.484, -1.1298828, 2.484, -0.2089844, 0.0955385, 0.0196384, 2.484, 0.4116211, 2.484, -1.1958008, 2.484, -0.0292969, , , , , , , , , , , , , , , , , , , , , , 
0.0960577, 0.0213169, 2.4975, -0.5898438, 2.4975, -1.0249023, 2.4975, 0.2045898, 0.0960577, -0.0077211, 2.4975, 0.5839844, 2.4975, -0.9775391, 2.4975, 0.0737305, 0.0960577, -0.0005035, 2.4975, 0.4101562, 2.4975, -1.1220703, 2.4975, -0.2143555, 0.0960577, 0.0203098, 2.4975, 0.362793, 2.4975, -1.0981445, 2.4975, -0.0263672, , , , , , , , , , , , , , , , , , , , , , 
0.0965769, 0.0261845, 2.511, -0.5708008, 2.511, -1.0292969, 2.511, 0.2148438, 0.0965769, -0.0068818, 2.511, 0.6484375, 2.511, -0.949707, 2.511, 0.1245117, 0.0965769, -0.0045319, 2.511, 0.3935547, 2.511, -1.1210938, 2.511, -0.2382812, 0.0965769, 0.0240024, 2.511, 0.309082, 2.511, -1.078125, 2.511, -0.0151367, , , , , , , , , , , , , , , , , , , , , , 
0.0970962, 0.0283665, 2.5245, -0.6054688, 2.5245, -1.0400391, 2.5245, 0.2001953, 0.0970962, -0.0075532, 2.5245, 0.7255859, 2.5245, -0.972168, 2.5245, 0.0922852, 0.0970962, -0.0082246, 2.5245, 0.3232422, 2.5245, -1.1142578, 2.5245, -0.2705078, 0.0970962, 0.0283665, 2.5245, 0.2207031, 2.5245, -1.1503906, 2.5245, 0.0361328, , , , , , , , , , , , , , , , , , , , , , 
0.0976154, 0.0332341, 2.538, -0.6176758, 2.538, -1.0537109, 2.538, 0.2084961, 0.0976154, -0.0085603, 2.538, 0.6523438, 2.538, -1.0273438, 2.538, 0.0839844, 0.0976154, -0.008896, 2.538, 0.2749023, 2.538, -1.1337891, 2.538, -0.2495117, 0.0976154, 0.0287022, 2.538, 0.1704102, 2.538, -1.2148438, 2.538, 0.0878906, , , , , , , , , , , , , , , , , , , , , , 
0.0981346, 0.0379339, 2.5515, -0.6230469, 2.5515, -0.9760742, 2.5515, 0.2333984, 0.0981346, -0.0092317, 2.5515, 0.5766602, 2.5515, -0.9819336, 2.5515, 0.0551758, 0.0981346, -0.0090639, 2.5515, 0.2319336, 2.5515, -1.1391602, 2.5515, -0.2763672, 0.0981346, 0.0280308, 2.5515, 0.1430664, 2.5515, -1.2011719, 2.5515, 0.1557617, , , , , , , , , , , , , , , , , , , , , , 
0.0986538, 0.036759, 2.565, -0.6386719, 2.565, -0.9365234, 2.565, 0.2104492, 0.0986538, -0.0085603, 2.565, 0.5786133, 2.565, -0.9365234, 2.565, 0.0820312, 0.0986538, -0.0099031, 2.565, 0.3295898, 2.565, -1.1606445, 2.565, -0.3120117, 0.0986538, 0.0270237, 2.565, 0.1298828, 2.565, -1.1538086, 2.565, 0.2021484, , , , , , , , , , , , , , , , , , , , , , 
0.0991731, 0.0323949, 2.5785, -0.6298828, 2.5785, -1.0498047, 2.5785, 0.2001953, 0.0991731, -0.0085603, 2.5785, 0.6640625, 2.5785, -1.0375977, 2.5785, 0.1264648, 0.0991731, -0.0109102, 2.5785, 0.4228516, 2.5785, -1.1577148, 2.5785, -0.2661133, 0.0991731, 0.0253452, 2.5785, 0.1391602, 2.5785, -1.1567383, 2.5785, 0.2133789, , , , , , , , , , , , , , , , , , , , , , 
0.0996923, 0.0293736, 2.592, -0.5517578, 2.592, -1.0742188, 2.592, 0.1625977, 0.0996923, -0.0092317, 2.592, 0.6811523, 2.592, -1.0698242, 2.592, 0.152832, 0.0996923, -0.0092317, 2.592, 0.4111328, 2.592, -1.1323242, 2.592, -0.3022461, 0.0996923, 0.0219883, 2.592, 0.1914062, 2.592, -1.2075195, 2.592, 0.1958008, , , , , , , , , , , , , , , , , , , , , , 
0.1002115, 0.0280308, 2.6055, -0.550293, 2.6055, -1.0415039, 2.6055, 0.1484375, 0.1002115, -0.0095674, 2.6055, 0.6621094, 2.6055, -1.0253906, 2.6055, 0.1342773, 0.1002115, -0.008896, 2.6055, 0.2387695, 2.6055, -1.0869141, 2.6055, -0.2890625, 0.1002115, 0.0209812, 2.6055, 0.253418, 2.6055, -1.215332, 2.6055, 0.1542969, , , , , , , , , , , , , , , , , , , , , , 
0.1007308, 0.0253452, 2.619, -0.5756836, 2.619, -0.9819336, 2.619, 0.1425781, 0.1007308, -0.0092317, 2.619, 0.5756836, 2.619, -0.9624023, 2.619, 0.1650391, 0.1007308, -0.0117494, 2.619, 0.1865234, 2.619, -1.0864258, 2.619, -0.2504883, 0.1007308, 0.0213169, 2.619, 0.2563477, 2.619, -1.1152344, 2.619, 0.1113281, , , , , , , , , , , , , , , , , , , , , , 
0.10125, 0.0260166, 2.6325, -0.6049805, 2.6325, -0.9423828, 2.6325, 0.1884766, 0.10125, -0.0095674, 2.6325, 0.5727539, 2.6325, -0.9482422, 2.6325, 0.1054688, 0.10125, -0.0139315, 2.6325, 0.2397461, 2.6325, -1.074707, 2.6325, -0.3867188, 0.10125, 0.0184634, 2.6325, 0.1953125, 2.6325, -1.0019531, 2.6325, 0.0859375, , , , , , , , , , , , , , , , , , , , , , 
0.1017692, 0.0280308, 2.646, -0.6235352, 2.646, -0.9814453, 2.646, 0.2495117, 0.1017692, -0.0095674, 2.646, 0.6157227, 2.646, -0.9594727, 2.646, 0.0302734, 0.1017692, -0.0146029, 2.646, 0.3813477, 2.646, -1.0737305, 2.646, -0.3637695, 0.1017692, 0.0157778, 2.646, 0.2685547, 2.646, -1.0112305, 2.646, 0.0893555, , , , , , , , , , , , , , , , , , , , , , 
0.1022885, 0.0256809, 2.6595, -0.5463867, 2.6595, -1.0151367, 2.6595, 0.1845703, 0.1022885, -0.0078889, 2.6595, 0.5922852, 2.6595, -0.9731445, 2.6595, 0.0629883, 0.1022885, -0.0135958, 2.6595, 0.4150391, 2.6595, -1.050293, 2.6595, -0.4033203, 0.1022885, 0.0152743, 2.6595, 0.4394531, 2.6595, -1.1054688, 2.6595, 0.0952148, , , , , , , , , , , , , , , , , , , , , , 
0.1028077, 0.0209812, 2.673, -0.5039062, 2.673, -1.0097656, 2.673, 0.1674805, 0.1028077, -0.0072175, 2.673, 0.5283203, 2.673, -0.9697266, 2.673, 0.1591797, 0.1028077, -0.0129244, 2.673, 0.3710938, 2.673, -1.0473633, 2.673, -0.2929688, 0.1028077, 0.0146029, 2.673, 0.4584961, 2.673, -1.1669922, 2.673, 0.090332, , , , , , , , , , , , , , , , , , , , , , 
0.1033269, 0.0213169, 2.6865, -0.5336914, 2.6865, -0.96875, 2.6865, 0.0239258, 0.1033269, -0.0095674, 2.6865, 0.5722656, 2.6865, -0.9155273, 2.6865, 0.2504883, 0.1033269, -0.0129244, 2.6865, 0.2602539, 2.6865, -1.0673828, 2.6865, -0.4487305, 0.1033269, 0.0132601, 2.6865, 0.3222656, 2.6865, -1.0996094, 2.6865, 0.0683594, , , , , , , , , , , , , , , , , , , , , , 
0.1038462, 0.0231632, 2.7, -0.6293945, 2.7, -0.9550781, 2.7, -0.0112305, 0.1038462, -0.0109102, 2.7, 0.5126953, 2.7, -0.9414062, 2.7, 0.199707, 0.1038462, -0.0125887, 2.7, 0.1689453, 2.7, -1.0532227, 2.7, -0.40625, 0.1038462, 0.0114137, 2.7, 0.2939453, 2.7, -0.980957, 2.7, 0.0019531, , , , , , , , , , , , , , , , , , , , , , 
0.1043654, 0.0206455, 2.7135, -0.597168, 2.7135, -0.9951172, 2.7135, 0.090332, 0.1043654, -0.0109102, 2.7135, 0.4335938, 2.7135, -0.9619141, 2.7135, 0.1201172, 0.1043654, -0.0102388, 2.7135, 0.1298828, 2.7135, -0.9907227, 2.7135, -0.4697266, 0.1043654, 0.0117494, 2.7135, 0.449707, 2.7135, -0.9272461, 2.7135, -0.0463867, , , , , , , , , , , , , , , , , , , , , , 
0.1048846, 0.017792, 2.727, -0.4726562, 2.727, -0.9604492, 2.727, 0.1323242, 0.1048846, -0.0112459, 2.727, 0.4345703, 2.727, -0.9418945, 2.727, 0.1069336, 0.1048846, -0.0077211, 2.727, 0.2285156, 2.727, -0.9550781, 2.727, -0.3994141, 0.1048846, 0.0112459, 2.727, 0.519043, 2.727, -0.9316406, 2.727, -0.0610352, , , , , , , , , , , , , , , , , , , , , , 
0.1054038, 0.0139315, 2.7405, -0.4135742, 2.7405, -0.890625, 2.7405, 0.125, 0.1054038, -0.0102388, 2.7405, 0.4799805, 2.7405, -0.8608398, 2.7405, 0.0673828, 0.1054038, -0.0072175, 2.7405, 0.2700195, 2.7405, -0.9208984, 2.7405, -0.3759766, 0.1054038, 0.0105745, 2.7405, 0.5512695, 2.7405, -0.9604492, 2.7405, -0.0180664, , , , , , , , , , , , , , , , , , , , , , 
0.1059231, 0.0099031, 2.754, -0.4248047, 2.754, -0.7978516, 2.754, 0.1132812, 0.1059231, -0.0095674, 2.754, 0.4570312, 2.754, -0.8320312, 2.754, 0.0708008, 0.1059231, -0.0057069, 2.754, 0.2973633, 2.754, -0.8999023, 2.754, -0.3535156, 0.1059231, 0.0115816, 2.754, 0.4033203, 2.754, -0.9404297, 2.754, 0.0595703, , , , , , , , , , , , , , , , , , , , , , 
0.1064423, 0.008896, 2.7675, -0.4736328, 2.7675, -0.8925781, 2.7675, 0.1362305, 0.1064423, -0.010071, 2.7675, 0.4804688, 2.7675, -0.8798828, 2.7675, 0.1264648, 0.1064423, -0.0031891, 2.7675, 0.3417969, 2.7675, -0.8325195, 2.7675, -0.4697266, 0.1064423, 0.0125887, 2.7675, 0.2763672, 2.7675, -0.8544922, 2.7675, 0.1064453, , , , , , , , , , , , , , , , , , , , , , 
0.1069615, 0.012253, 2.781, -0.5585938, 2.781, -0.9384766, 2.781, 0.1318359, 0.1069615, -0.0095674, 2.781, 0.5253906, 2.781, -0.8823242, 2.781, 0.0361328, 0.1069615, -0.002182, 2.781, 0.3325195, 2.781, -0.815918, 2.781, -0.4233398, 0.1069615, 0.0125887, 2.781, 0.3242188, 2.781, -0.8071289, 2.781, 0.1201172, , , , , , , , , , , , , , , , , , , , , , 
0.1074808, 0.0159457, 2.7945, -0.5063477, 2.7945, -0.8964844, 2.7945, 0.0991211, 0.1074808, -0.0092317, 2.7945, 0.4702148, 2.7945, -0.8208008, 2.7945, 0.0546875, 0.1074808, -0.0041962, 2.7945, 0.3266602, 2.7945, -0.8920898, 2.7945, -0.4692383, 0.1074808, 0.0146029, 2.7945, 0.4462891, 2.7945, -0.9023438, 2.7945, 0.105957, , , , , , , , , , , , , , , , , , , , , , 
0.108, 0.0169528, 2.808, -0.3691406, 2.808, -0.8886719, 2.808, 0.0727539, 0.108, -0.0099031, 2.808, 0.3652344, 2.808, -0.8354492, 2.808, 0.1137695, 0.108, -0.0062104, 2.808, 0.2705078, 2.808, -0.9335938, 2.808, -0.2915039, 0.108, 0.0146029, 2.808, 0.4506836, 2.808, -1.0107422, 2.808, 0.0878906, , , , , , , , , , , , , , , , , , , , , , 
0.1085192, 0.0102388, 2.8215, -0.456543, 2.8215, -0.8193359, 2.8215, 0.0615234, 0.1085192, -0.0099031, 2.8215, 0.453125, 2.8215, -0.8095703, 2.8215, 0.2753906, 0.1085192, -0.0082246, 2.8215, 0.2529297, 2.8215, -0.96875, 2.8215, -0.234375, 0.1085192, 0.0115816, 2.8215, 0.2734375, 2.8215, -1.0043945, 2.8215, 0.0708008, , , , , , , , , , , , , , , , , , , , , , 
0.1090385, 0.0038605, 2.835, -0.7783203, 2.835, -0.737793, 2.835, 0.0361328, 0.1090385, -0.0085603, 2.835, 0.6704102, 2.835, -0.7529297, 2.835, 0.3183594, 0.1090385, -0.0097353, 2.835, 0.184082, 2.835, -1.0688477, 2.835, -0.2861328, 0.1090385, 0.0072175, 2.835, 0.0864258, 2.835, -0.9672852, 2.835, 0.0371094, , , , , , , , , , , , , , , , , , , , , , 
0.1095577, 0.0001678, 2.8485, -0.8393555, 2.8485, -0.668457, 2.8485, 0.0302734, 0.1095577, -0.0062104, 2.8485, 0.6914062, 2.8485, -0.7036133, 2.8485, 0.1777344, 0.1095577, -0.0095674, 2.8485, 0.1850586, 2.8485, -1.0766602, 2.8485, -0.234375, 0.1095577, 0.0018463, 2.8485, 0.1005859, 2.8485, -0.9702148, 2.8485, 0.0253906, , , , , , , , , , , , , , , , , , , , , , 
0.1100769, -0.0018463, 2.862, -0.6860352, 2.862, -0.5800781, 2.862, 0.1489258, 0.1100769, -0.0048676, 2.862, 0.5175781, 2.862, -0.5800781, 2.862, -0.0004883, 0.1100769, -0.008896, 2.862, 0.1806641, 2.862, -0.8935547, 2.862, -0.3662109, 0.1100769, -0.0005035, 2.862, 0.2304688, 2.862, -0.8886719, 2.862, 0.0385742, , , , , , , , , , , , , , , , , , , , , , 
0.1105962, -0.0041962, 2.8755, -0.2539062, 2.8755, -0.6601562, 2.8755, 0.1210938, 0.1105962, -0.0041962, 2.8755, 0.2553711, 2.8755, -0.5390625, 2.8755, 0.0639648, 0.1105962, -0.008896, 2.8755, 0.2114258, 2.8755, -0.6787109, 2.8755, -0.3115234, 0.1105962, 0.0015106, 2.8755, 0.269043, 2.8755, -0.8222656, 2.8755, 0.0537109, , , , , , , , , , , , , , , , , , , , , , 
0.1111154, -0.0031891, 2.889, -0.2456055, 2.889, -0.746582, 2.889, 0.0756836, 0.1111154, -0.0062104, 2.889, 0.2583008, 2.889, -0.6928711, 2.889, 0.2070312, 0.1111154, -0.0099031, 2.889, 0.2163086, 2.889, -0.6210938, 2.889, -0.2480469, 0.1111154, 0.0036927, 2.889, 0.2646484, 2.889, -0.7089844, 2.889, 0.0776367, , , , , , , , , , , , , , , , , , , , , , 
0.1116346, 0.0003357, 2.9025, -0.5141602, 2.9025, -0.7324219, 2.9025, -0.0454102, 0.1116346, -0.0082246, 2.9025, 0.5170898, 2.9025, -0.7802734, 2.9025, 0.0986328, 0.1116346, -0.0112459, 2.9025, 0.1391602, 2.9025, -0.6772461, 2.9025, -0.2685547, 0.1116346, 0.0031891, 2.9025, 0.1513672, 2.9025, -0.6811523, 2.9025, 0.0932617, , , , , , , , , , , , , , , , , , , , , , 
0.1121538, -0.0001678, 2.916, -0.5717773, 2.916, -0.5844727, 2.916, 0.0239258, 0.1121538, -0.0070497, 2.916, 0.4604492, 2.916, -0.6533203, 2.916, 0.1201172, 0.1121538, -0.008896, 2.916, 0.1108398, 2.916, -0.8115234, 2.916, -0.2182617, 0.1121538, 0.0046998, 2.916, 0.0585938, 2.916, -0.7275391, 2.916, 0.0649414, , , , , , , , , , , , , , , , , , , , , , 
0.1126731, -0.0050355, 2.9295, -0.3994141, 2.9295, -0.5864258, 2.9295, 0.140625, 0.1126731, -0.0065461, 2.9295, 0.3237305, 2.9295, -0.5327148, 2.9295, -0.0151367, 0.1126731, -0.0063783, 2.9295, 0.1733398, 2.9295, -0.7382812, 2.9295, -0.3657227, 0.1126731, 0.0058747, 2.9295, 0.1655273, 2.9295, -0.6977539, 2.9295, 0.0742188, , , , , , , , , , , , , , , , , , , , , , 
0.1131923, -0.0048676, 2.943, -0.2504883, 2.943, -0.8530273, 2.943, 0.0996094, 0.1131923, -0.0078889, 2.943, 0.2666016, 2.943, -0.715332, 2.943, 0.0087891, 0.1131923, -0.0062104, 2.943, 0.2773438, 2.943, -0.5673828, 2.943, -0.4150391, 0.1131923, 0.0052033, 2.943, 0.3959961, 2.943, -0.6347656, 2.943, 0.0849609, , , , , , , , , , , , , , , , , , , , , , 
0.1137115, 0.0008392, 2.9565, -0.3261719, 2.9565, -0.9658203, 2.9565, 0.0610352, 0.1137115, -0.0085603, 2.9565, 0.3759766, 2.9565, -0.9213867, 2.9565, 0.3183594, 0.1137115, -0.0068818, 2.9565, 0.3818359, 2.9565, -0.5834961, 2.9565, -0.3984375, 0.1137115, 0.0075532, 2.9565, 0.5063477, 2.9565, -0.690918, 2.9565, 0.0751953, , , , , , , , , , , , , , , , , , , , , , 
0.1142308, 0.0031891, 2.97, -0.6337891, 2.97, -0.7700195, 2.97, -0.0541992, 0.1142308, -0.0082246, 2.97, 0.5185547, 2.97, -0.8925781, 2.97, 0.2783203, 0.1142308, -0.0075532, 2.97, 0.2324219, 2.97, -0.8676758, 2.97, -0.2924805, 0.1142308, 0.0099031, 2.97, 0.3413086, 2.97, -0.8701172, 2.97, 0.0688477, , , , , , , , , , , , , , , , , , , , , , 
0.11475, 0.0031891, 2.9835, -0.6289062, 2.9835, -0.6606445, 2.9835, -0.03125, 0.11475, -0.0082246, 2.9835, 0.6196289, 2.9835, -0.6884766, 2.9835, 0.1176758, 0.11475, -0.0082246, 2.9835, 0.1240234, 2.9835, -1.0629883, 2.9835, -0.3417969, 0.11475, 0.0115816, 2.9835, 0.159668, 2.9835, -0.9667969, 2.9835, 0.0073242, , , , , , , , , , , , , , , , , , , , , , 
0.1152692, 0.0065461, 2.997, -0.2841797, 2.997, -0.7700195, 2.997, 0.0029297, 0.1152692, -0.0092317, 2.997, 0.3769531, 2.997, -0.6181641, 2.997, 0.0830078, 0.1152692, -0.0075532, 2.997, 0.137207, 2.997, -0.8813477, 2.997, -0.355957, 0.1152692, 0.0112459, 2.997, 0.2705078, 2.997, -0.8330078, 2.997, -0.0263672, , , , , , , , , , , , , , , , , , , , , , 
0.1157885, 0.0125887, 3.0105, -0.2172852, 3.0105, -0.8144531, 3.0105, 0.0810547, 0.1157885, -0.0099031, 3.0105, 0.2207031, 3.0105, -0.7333984, 3.0105, 0.0888672, 0.1157885, -0.0085603, 3.0105, 0.1655273, 3.0105, -0.7236328, 3.0105, -0.3330078, 0.1157885, 0.0129244, 3.0105, 0.4487305, 3.0105, -0.6850586, 3.0105, 0.0371094, , , , , , , , , , , , , , , , , , , , , , 
0.1163077, 0.0112459, 3.024, -0.3012695, 3.024, -0.7724609, 3.024, 0.0830078, 0.1163077, -0.0102388, 3.024, 0.3081055, 3.024, -0.7646484, 3.024, 0.1157227, 0.1163077, -0.0095674, 3.024, 0.3139648, 3.024, -0.53125, 3.024, -0.3076172, 0.1163077, 0.0169528, 3.024, 0.4506836, 3.024, -0.6489258, 3.024, 0.0532227, , , , , , , , , , , , , , , , , , , , , , 
0.1168269, 0.0127565, 3.0375, -0.4755859, 3.0375, -0.6811523, 3.0375, -0.0253906, 0.1168269, -0.0082246, 3.0375, 0.5078125, 3.0375, -0.6870117, 3.0375, 0.2822266, 0.1168269, -0.0070497, 3.0375, 0.3676758, 3.0375, -0.6352539, 3.0375, -0.2851562, 0.1168269, 0.0226596, 3.0375, 0.3012695, 3.0375, -0.6743164, 3.0375, 0.0302734, , , , , , , , , , , , , , , , , , , , , , 
0.1173462, 0.0179599, 3.051, -0.6791992, 3.051, -0.5976562, 3.051, -0.0048828, 0.1173462, -0.0062104, 3.051, 0.5917969, 3.051, -0.6328125, 3.051, 0.2192383, 0.1173462, -0.005539, 3.051, 0.2416992, 3.051, -0.8945312, 3.051, -0.1816406, 0.1173462, 0.0276951, 3.051, 0.112793, 3.051, -0.8242188, 3.051, 0.0175781, , , , , , , , , , , , , , , , , , , , , , 
0.1178654, 0.0196384, 3.0645, -0.6035156, 3.0645, -0.625, 3.0645, 0.0898438, 0.1178654, -0.0057069, 3.0645, 0.6044922, 3.0645, -0.5683594, 3.0645, 0.0415039, 0.1178654, -0.0068818, 3.0645, 0.121582, 3.0645, -0.9731445, 3.0645, -0.2363281, 0.1178654, 0.0293736, 3.0645, 0.0351562, 3.0645, -0.9257812, 3.0645, 0.0498047, , , , , , , , , , , , , , , , , , , , , , 
0.1183846, 0.0216526, 3.078, -0.3144531, 3.078, -0.7421875, 3.078, 0.2104492, 0.1183846, -0.0068818, 3.078, 0.3208008, 3.078, -0.65625, 3.078, 0.0239258, 0.1183846, -0.0083925, 3.078, 0.1083984, 3.078, -0.8344727, 3.078, -0.2104492, 0.1183846, 0.0297093, 3.078, 0.0766602, 3.078, -0.8637695, 3.078, 0.0893555, , , , , , , , , , , , , , , , , , , , , , 
0.1189038, 0.0256809, 3.0915, -0.2470703, 3.0915, -0.7207031, 3.0915, 0.2182617, 0.1189038, -0.0072175, 3.0915, 0.2744141, 3.0915, -0.6918945, 3.0915, 0.0581055, 0.1189038, -0.0085603, 3.0915, 0.2802734, 3.0915, -0.6787109, 3.0915, -0.1474609, 0.1189038, 0.026688, 3.0915, 0.1313477, 3.0915, -0.7714844, 3.0915, 0.1147461, , , , , , , , , , , , , , , , , , , , , , 
0.1194231, 0.0253452, 3.105, -0.5166016, 3.105, -0.5288086, 3.105, 0.1098633, 0.1194231, -0.0062104, 3.105, 0.4213867, 3.105, -0.6235352, 3.105, 0.1801758, 0.1194231, -0.0077211, 3.105, 0.3510742, 3.105, -0.6987305, 3.105, -0.121582, 0.1194231, 0.0240024, 3.105, 0.059082, 3.105, -0.7285156, 3.105, 0.1313477, , , , , , , , , , , , , , , , , , , , , , 
0.1199423, 0.0223239, 3.1185, -0.8129883, 3.1185, -0.5356445, 3.1185, 0.0263672, 0.1199423, -0.0048676, 3.1185, 0.7026367, 3.1185, -0.5166016, 3.1185, 0.2099609, 0.1199423, -0.0062104, 3.1185, 0.2089844, 3.1185, -0.8569336, 3.1185, -0.1157227, 0.1199423, 0.0213169, 3.1185, -0.0927734, 3.1185, -0.7680664, 3.1185, 0.1279297, , , , , , , , , , , , , , , , , , , , , , 
0.1204615, 0.0240024, 3.132, -0.5307617, 3.132, -0.5541992, 3.132, 0.0600586, 0.1204615, -0.0045319, 3.132, 0.5883789, 3.132, -0.5649414, 3.132, 0.0854492, 0.1204615, -0.005539, 3.132, 0.1489258, 3.132, -0.8999023, 3.132, -0.1279297, 0.1204615, 0.0193027, 3.132, -0.137207, 3.132, -0.8237305, 3.132, 0.112793, , , , , , , , , , , , , , , , , , , , , , 
0.1209808, 0.0265202, 3.1455, -0.237793, 3.1455, -0.6157227, 3.1455, 0.1694336, 0.1209808, -0.0052033, 3.1455, 0.2338867, 3.1455, -0.5620117, 3.1455, 0.105957, 0.1209808, -0.0062104, 3.1455, 0.1157227, 3.1455, -0.8422852, 3.1455, -0.1430664, 0.1209808, 0.0159457, 3.1455, -0.0083008, 3.1455, -0.7763672, 3.1455, 0.128418, , , , , , , , , , , , , , , , , , , , , , 
0.1215, 0.0246738, 3.159, -0.28125, 3.159, -0.6074219, 3.159, 0.1318359, 0.1215, -0.0045319, 3.159, 0.2504883, 3.159, -0.5463867, 3.159, 0.0820312, 0.1215, -0.005539, 3.159, 0.0957031, 3.159, -0.6606445, 3.159, -0.1918945, 0.1215, 0.0132601, 3.159, 0.0810547, 3.159, -0.6640625, 3.159, 0.1210938, , , , , , , , , , , , , , , , , , , , , , 
0.1220192, 0.0243381, 3.1725, -0.3955078, 3.1725, -0.5913086, 3.1725, 0.0898438, 0.1220192, -0.0031891, 3.1725, 0.4604492, 3.1725, -0.5561523, 3.1725, 0.1479492, 0.1220192, -0.0068818, 3.1725, 0.1806641, 3.1725, -0.5722656, 3.1725, -0.1870117, 0.1220192, 0.0109102, 3.1725, 0.0859375, 3.1725, -0.6289062, 3.1725, 0.0996094, , , , , , , , , , , , , , , , , , , , , , 
0.1225385, 0.0260166, 3.186, -0.5947266, 3.186, -0.5913086, 3.186, 0.0585938, 0.1225385, -0.002182, 3.186, 0.5703125, 3.186, -0.6079102, 3.186, 0.1645508, 0.1225385, -0.0095674, 3.186, 0.2558594, 3.186, -0.7050781, 3.186, -0.1323242, 0.1225385, 0.0092317, 3.186, 0.0512695, 3.186, -0.6772461, 3.186, 0.0483398, , , , , , , , , , , , , , , , , , , , , , 
0.1230577, 0.0251774, 3.1995, -0.5634766, 3.1995, -0.6157227, 3.1995, 0.0986328, 0.1230577, -0.0008392, 3.1995, 0.4750977, 3.1995, -0.6459961, 3.1995, 0.0820312, 0.1230577, -0.0119173, 3.1995, 0.2397461, 3.1995, -0.8608398, 3.1995, -0.1010742, 0.1230577, 0.0075532, 3.1995, 0.0512695, 3.1995, -0.8115234, 3.1995, 0.0517578, , , , , , , , , , , , , , , , , , , , , , 
0.1235769, 0.0246738, 3.213, -0.3686523, 3.213, -0.6694336, 3.213, 0.140625, 0.1235769, -0.0015106, 3.213, 0.4091797, 3.213, -0.6518555, 3.213, 0.0527344, 0.1235769, -0.0135958, 3.213, 0.2607422, 3.213, -0.8388672, 3.213, -0.1181641, 0.1235769, 0.0062104, 3.213, 0.105957, 3.213, -0.8730469, 3.213, 0.078125, , , , , , , , , , , , , , , , , , , , , , 
0.1240962, 0.0229953, 3.2265, -0.3242188, 3.2265, -0.7324219, 3.2265, 0.1835938, 0.1240962, -0.0015106, 3.2265, 0.3867188, 3.2265, -0.6601562, 3.2265, 0.0356445, 0.1240962, -0.0135958, 3.2265, 0.2753906, 3.2265, -0.703125, 3.2265, -0.1865234, 0.1240962, 0.0072175, 3.2265, 0.168457, 3.2265, -0.8217773, 3.2265, 0.1079102, , , , , , , , , , , , , , , , , , , , , , 
0.1246154, 0.0186313, 3.24, -0.4160156, 3.24, -0.7529297, 3.24, 0.1625977, 0.1246154, -0.002182, 3.24, 0.453125, 3.24, -0.7060547, 3.24, 0.0654297, 0.1246154, -0.0119173, 3.24, 0.2919922, 3.24, -0.6499023, 3.24, -0.1782227, 0.1246154, 0.0062104, 3.24, 0.1508789, 3.24, -0.7543945, 3.24, 0.1279297, , , , , , , , , , , , , , , , , , , , , , 
0.1251346, 0.0146029, 3.2535, -0.5541992, 3.2535, -0.7368164, 3.2535, 0.0932617, 0.1251346, -0.0028534, 3.2535, 0.5610352, 3.2535, -0.7514648, 3.2535, 0.1704102, 0.1251346, -0.0095674, 3.2535, 0.2695312, 3.2535, -0.7792969, 3.2535, -0.1694336, 0.1251346, 0.0062104, 3.2535, 0.0410156, 3.2535, -0.7753906, 3.2535, 0.1176758, , , , , , , , , , , , , , , , , , , , , , 
0.1256538, 0.0152743, 3.267, -0.5483398, 3.267, -0.7670898, 3.267, 0.1005859, 0.1256538, -0.0041962, 3.267, 0.5834961, 3.267, -0.7597656, 3.267, 0.1108398, 0.1256538, -0.0072175, 3.267, 0.2607422, 3.267, -0.9375, 3.267, -0.2324219, 0.1256538, 0.005539, 3.267, -0.0551758, 3.267, -0.8891602, 3.267, 0.1201172, , , , , , , , , , , , , , , , , , , , , , 
0.1261731, 0.0172885, 3.2805, -0.4257812, 3.2805, -0.8544922, 3.2805, 0.1132812, 0.1261731, -0.0045319, 3.2805, 0.503418, 3.2805, -0.8076172, 3.2805, 0.1088867, 0.1261731, -0.0082246, 3.2805, 0.2177734, 3.2805, -0.9614258, 3.2805, -0.1835938, 0.1261731, 0.0058747, 3.2805, 0.0307617, 3.2805, -0.9643555, 3.2805, 0.1171875, , , , , , , , , , , , , , , , , , , , , , 
0.1266923, 0.0162814, 3.294, -0.3710938, 3.294, -0.8393555, 3.294, 0.1884766, 0.1266923, -0.0041962, 3.294, 0.4165039, 3.294, -0.7978516, 3.294, 0.1025391, 0.1266923, -0.0104067, 3.294, 0.2026367, 3.294, -0.8837891, 3.294, -0.1577148, 0.1266923, 0.0065461, 3.294, 0.1416016, 3.294, -0.9355469, 3.294, 0.1293945, , , , , , , , , , , , , , , , , , , , , , 
0.1272115, 0.0132601, 3.3075, -0.543457, 3.3075, -0.7822266, 3.3075, 0.1967773, 0.1272115, -0.0041962, 3.3075, 0.5229492, 3.3075, -0.7324219, 3.3075, 0.1113281, 0.1272115, -0.011078, 3.3075, 0.2670898, 3.3075, -0.8066406, 3.3075, -0.1494141, 0.1272115, 0.0085603, 3.3075, 0.0761719, 3.3075, -0.8984375, 3.3075, 0.1118164, , , , , , , , , , , , , , , , , , , , , , 
0.1277308, 0.0112459, 3.321, -0.6616211, 3.321, -0.6982422, 3.321, 0.2250977, 0.1277308, -0.0045319, 3.321, 0.6733398, 3.321, -0.6699219, 3.321, 0.0922852, 0.1277308, -0.0095674, 3.321, 0.2807617, 3.321, -0.8974609, 3.321, -0.0649414, 0.1277308, 0.0104067, 3.321, -0.0068359, 3.321, -0.8925781, 3.321, 0.1206055, , , , , , , , , , , , , , , , , , , , , , 
0.12825, 0.0112459, 3.3345, -0.5620117, 3.3345, -0.7197266, 3.3345, 0.2207031, 0.12825, -0.0028534, 3.3345, 0.6640625, 3.3345, -0.6918945, 3.3345, 0.0546875, 0.12825, -0.0078889, 3.3345, 0.3930664, 3.3345, -0.909668, 3.3345, -0.1010742, 0.12825, 0.0092317, 3.3345, -0.0073242, 3.3345, -0.8823242, 3.3345, 0.1420898, , , , , , , , , , , , , , , , , , , , , , 
0.1287692, 0.0109102, 3.348, -0.4833984, 3.348, -0.7651367, 3.348, 0.2460938, 0.1287692, -0.002182, 3.348, 0.6108398, 3.348, -0.7397461, 3.348, 0.0683594, 0.1287692, -0.0070497, 3.348, 0.3945312, 3.348, -0.8271484, 3.348, -0.1201172, 0.1287692, 0.0090639, 3.348, 0.0166016, 3.348, -0.8891602, 3.348, 0.1748047, , , , , , , , , , , , , , , , , , , , , , 
0.1292885, 0.0099031, 3.3615, -0.4121094, 3.3615, -0.8486328, 3.3615, 0.1870117, 0.1292885, -0.0045319, 3.3615, 0.5307617, 3.3615, -0.824707, 3.3615, 0.1235352, 0.1292885, -0.0062104, 3.3615, 0.3505859, 3.3615, -0.8525391, 3.3615, -0.0947266, 0.1292885, 0.0062104, 3.3615, 0.0180664, 3.3615, -0.9428711, 3.3615, 0.1650391, , , , , , , , , , , , , , , , , , , , , , 
0.1298077, 0.0025177, 3.375, -0.5571289, 3.375, -0.8417969, 3.375, 0.1992188, 0.1298077, -0.005539, 3.375, 0.5795898, 3.375, -0.8481445, 3.375, 0.125, 0.1298077, -0.005539, 3.375, 0.2729492, 3.375, -0.9667969, 3.375, -0.137207, 0.1298077, 0.0045319, 3.375, -0.0356445, 3.375, -1.0078125, 3.375, 0.171875, , , , , , , , , , , , , , , , , , , , , , 
0.1303269, -0.0041962, 3.3885, -0.6137695, 3.3885, -0.7519531, 3.3885, 0.2363281, 0.1303269, -0.0052033, 3.3885, 0.640625, 3.3885, -0.7475586, 3.3885, 0.065918, 0.1303269, -0.0058747, 3.3885, 0.2529297, 3.3885, -0.9873047, 3.3885, -0.0639648, 0.1303269, 0.0048676, 3.3885, -0.0708008, 3.3885, -0.9936523, 3.3885, 0.1777344, , , , , , , , , , , , , , , , , , , , , , 
0.1308462, -0.0050355, 3.402, -0.578125, 3.402, -0.7133789, 3.402, 0.2504883, 0.1308462, -0.0038605, 3.402, 0.6499023, 3.402, -0.6337891, 3.402, 0.0898438, 0.1308462, -0.0068818, 3.402, 0.2573242, 3.402, -0.9428711, 3.402, -0.0673828, 0.1308462, 0.0025177, 3.402, -0.0512695, 3.402, -0.9130859, 3.402, 0.1601562, , , , , , , , , , , , , , , , , , , , , , 
0.1313654, -0.0041962, 3.4155, -0.5273438, 3.4155, -0.7124023, 3.4155, 0.2329102, 0.1313654, -0.0028534, 3.4155, 0.5546875, 3.4155, -0.6625977, 3.4155, 0.0419922, 0.1313654, -0.0083925, 3.4155, 0.2827148, 3.4155, -0.855957, 3.4155, -0.0791016, 0.1313654, 0.0018463, 3.4155, -0.0673828, 3.4155, -0.8740234, 3.4155, 0.1430664, , , , , , , , , , , , , , , , , , , , , , 
0.1318846, -0.0028534, 3.429, -0.4775391, 3.429, -0.7275391, 3.429, 0.1870117, 0.1318846, -0.0035248, 3.429, 0.5126953, 3.429, -0.7426758, 3.429, 0.1450195, 0.1318846, -0.0078889, 3.429, 0.3071289, 3.429, -0.8574219, 3.429, -0.078125, 0.1318846, 0.0030213, 3.429, -0.1083984, 3.429, -0.8798828, 3.429, 0.1435547, , , , , , , , , , , , , , , , , , , , , , 
0.1324038, -0.0025177, 3.4425, -0.5126953, 3.4425, -0.7265625, 3.4425, 0.1547852, 0.1324038, -0.0048676, 3.4425, 0.5332031, 3.4425, -0.746582, 3.4425, 0.1191406, 0.1324038, -0.0060426, 3.4425, 0.2250977, 3.4425, -0.9116211, 3.4425, -0.0649414, 0.1324038, 0.0031891, 3.4425, -0.0957031, 3.4425, -0.9150391, 3.4425, 0.152832, , , , , , , , , , , , , , , , , , , , , , 
0.1329231, -0.0010071, 3.456, -0.5493164, 3.456, -0.6914062, 3.456, 0.2426758, 0.1329231, -0.0052033, 3.456, 0.6533203, 3.456, -0.6381836, 3.456, 0.1518555, 0.1329231, -0.0060426, 3.456, 0.2163086, 3.456, -0.8930664, 3.456, -0.1015625, 0.1329231, 0.0072175, 3.456, -0.0224609, 3.456, -0.8867188, 3.456, 0.1489258, , , , , , , , , , , , , , , , , , , , , , 
0.1334423, 0.0035248, 3.4695, -0.5454102, 3.4695, -0.6782227, 3.4695, 0.1826172, 0.1334423, -0.0068818, 3.4695, 0.7236328, 3.4695, -0.5859375, 3.4695, 0.0932617, 0.1334423, -0.0075532, 3.4695, 0.1870117, 3.4695, -0.7841797, 3.4695, -0.0991211, 0.1334423, 0.0142672, 3.4695, 0.0361328, 3.4695, -0.8339844, 3.4695, 0.1337891, , , , , , , , , , , , , , , , , , , , , , 
0.1339615, 0.0065461, 3.483, -0.5151367, 3.483, -0.7290039, 3.483, 0.2338867, 0.1339615, -0.0068818, 3.483, 0.5629883, 3.483, -0.6210938, 3.483, 0.0893555, 0.1339615, -0.0085603, 3.483, 0.2807617, 3.483, -0.7861328, 3.483, -0.1381836, 0.1339615, 0.0186313, 3.483, 0.0415039, 3.483, -0.8476562, 3.483, 0.1347656, , , , , , , , , , , , , , , , , , , , , , 
0.1344808, 0.005539, 3.4965, -0.5234375, 3.4965, -0.7929688, 3.4965, 0.2363281, 0.1344808, -0.0058747, 3.4965, 0.5185547, 3.4965, -0.7885742, 3.4965, 0.1206055, 0.1344808, -0.0072175, 3.4965, 0.4257812, 3.4965, -0.8808594, 3.4965, -0.0756836, 0.1344808, 0.0172885, 3.4965, 0.0380859, 3.4965, -0.9204102, 3.4965, 0.0864258, , , , , , , , , , , , , , , , , , , , , , 
0.135, 0.0052033, 3.51, -0.5366211, 3.51, -0.7485352, 3.51, 0.2055664, 0.135, -0.005539, 3.51, 0.6054688, 3.51, -0.8017578, 3.51, 0.1748047, 0.135, -0.0058747, 3.51, 0.4492188, 3.51, -0.9682617, 3.51, -0.0322266, 0.135, 0.0166171, 3.51, 0.0390625, 3.51, -0.9755859, 3.51, 0.0839844, , , , , , , , , , , , , , , , , , , , , , 
0.1355192, 0.0092317, 3.5235, -0.6333008, 3.5235, -0.6303711, 3.5235, 0.2192383, 0.1355192, -0.0068818, 3.5235, 0.6806641, 3.5235, -0.6381836, 3.5235, 0.1728516, 0.1355192, -0.0058747, 3.5235, 0.3110352, 3.5235, -1.0117188, 3.5235, -0.0546875, 0.1355192, 0.0193027, 3.5235, -0.0244141, 3.5235, -0.9912109, 3.5235, 0.1386719, , , , , , , , , , , , , , , , , , , , , , 
0.1360385, 0.0152743, 3.537, -0.6972656, 3.537, -0.6142578, 3.537, 0.1586914, 0.1360385, -0.0082246, 3.537, 0.6694336, 3.537, -0.5800781, 3.537, 0.1679688, 0.1360385, -0.0052033, 3.537, 0.2368164, 3.537, -1.0053711, 3.537, -0.0717773, 0.1360385, 0.0223239, 3.537, -0.0927734, 3.537, -0.9501953, 3.537, 0.15625, , , , , , , , , , , , , , , , , , , , , , 
0.1365577, 0.01561, 3.5505, -0.5771484, 3.5505, -0.6689453, 3.5505, 0.2192383, 0.1365577, -0.0072175, 3.5505, 0.5288086, 3.5505, -0.6513672, 3.5505, 0.1064453, 0.1365577, -0.0043641, 3.5505, 0.1713867, 3.5505, -0.9228516, 3.5505, -0.0869141, 0.1365577, 0.0256809, 3.5505, -0.0927734, 3.5505, -0.8774414, 3.5505, 0.1435547, , , , , , , , , , , , , , , , , , , , , , 
0.1370769, 0.0124208, 3.564, -0.4609375, 3.564, -0.6333008, 3.564, 0.2104492, 0.1370769, -0.0068818, 3.564, 0.480957, 3.564, -0.6484375, 3.564, 0.0893555, 0.1370769, -0.0045319, 3.564, 0.199707, 3.564, -0.8139648, 3.564, -0.0634766, 0.1370769, 0.0290379, 3.564, -0.1308594, 3.564, -0.8129883, 3.564, 0.128418, , , , , , , , , , , , , , , , , , , , , , 
0.1375962, 0.0135958, 3.5775, -0.4697266, 3.5775, -0.5161133, 3.5775, 0.1708984, 0.1375962, -0.0082246, 3.5775, 0.4633789, 3.5775, -0.5317383, 3.5775, 0.2275391, 0.1375962, -0.005539, 3.5775, 0.1772461, 3.5775, -0.7871094, 3.5775, -0.0234375, 0.1375962, 0.0320592, 3.5775, -0.2294922, 3.5775, -0.7924805, 3.5775, 0.105957, , , , , , , , , , , , , , , , , , , , , , 
0.1381154, 0.0209812, 3.591, -0.6391602, 3.591, -0.4672852, 3.591, 0.1484375, 0.1381154, -0.0109102, 3.591, 0.5229492, 3.591, -0.480957, 3.591, 0.2578125, 0.1381154, -0.005539, 3.591, 0.1147461, 3.591, -0.8408203, 3.591, -0.0444336, 0.1381154, 0.0347448, 3.591, -0.2749023, 3.591, -0.8486328, 3.591, 0.1289062, , , , , , , , , , , , , , , , , , , , , , 
0.1386346, 0.0280308, 3.6045, -0.7470703, 3.6045, -0.6479492, 3.6045, 0.1772461, 0.1386346, -0.0112459, 3.6045, 0.6987305, 3.6045, -0.5390625, 3.6045, 0.2075195, 0.1386346, -0.005539, 3.6045, 0.0839844, 3.6045, -0.9101562, 3.6045, -0.0888672, 0.1386346, 0.0342412, 3.6045, -0.1660156, 3.6045, -0.9174805, 3.6045, 0.1010742, , , , , , , , , , , , , , , , , , , , , , 
0.1391538, 0.0292058, 3.618, -0.6640625, 3.618, -0.7719727, 3.618, 0.25, 0.1391538, -0.011078, 3.618, 0.769043, 3.618, -0.7075195, 3.618, 0.1835938, 0.1391538, -0.005539, 3.618, 0.1455078, 3.618, -0.9575195, 3.618, -0.0380859, 0.1391538, 0.0305486, 3.618, -0.0170898, 3.618, -0.9580078, 3.618, 0.0830078, , , , , , , , , , , , , , , , , , , , , , 
0.1396731, 0.026688, 3.6315, -0.628418, 3.6315, -0.7099609, 3.6315, 0.3310547, 0.1396731, -0.0105745, 3.6315, 0.7182617, 3.6315, -0.7202148, 3.6315, 0.1928711, 0.1396731, -0.0063783, 3.6315, 0.2597656, 3.6315, -0.9887695, 3.6315, -0.0488281, 0.1396731, 0.0246738, 3.6315, 0.0131836, 3.6315, -0.965332, 3.6315, 0.1040039, , , , , , , , , , , , , , , , , , , , , , 
0.1401923, 0.0236667, 3.645, -0.6948242, 3.645, -0.5791016, 3.645, 0.3305664, 0.1401923, -0.0109102, 3.645, 0.809082, 3.645, -0.6245117, 3.645, 0.1855469, 0.1401923, -0.0058747, 3.645, 0.4052734, 3.645, -0.9970703, 3.645, 0.0776367, 0.1401923, 0.0191348, 3.645, -0.0268555, 3.645, -0.9453125, 3.645, 0.0776367, , , , , , , , , , , , , , , , , , , , , , 
0.1407115, 0.0206455, 3.6585, -0.7700195, 3.6585, -0.3837891, 3.6585, 0.3393555, 0.1407115, -0.012253, 3.6585, 0.8300781, 3.6585, -0.4541016, 3.6585, 0.1572266, 0.1407115, -0.0052033, 3.6585, 0.4472656, 3.6585, -1.0004883, 3.6585, 0.0219727, 0.1407115, 0.0176242, 3.6585, -0.1103516, 3.6585, -0.9589844, 3.6585, 0.1298828, , , , , , , , , , , , , , , , , , , , , , 
0.1412308, 0.0191348, 3.672, -0.7172852, 3.672, -0.4204102, 3.672, 0.3183594, 0.1412308, -0.0125887, 3.672, 0.7172852, 3.672, -0.3652344, 3.672, 0.0952148, 0.1412308, -0.005539, 3.672, 0.4052734, 3.672, -1.003418, 3.672, -0.0146484, 0.1412308, 0.01561, 3.672, -0.1518555, 3.672, -0.9736328, 3.672, 0.1923828, , , , , , , , , , , , , , , , , , , , , , 
0.14175, 0.0199741, 3.6855, -0.6650391, 3.6855, -0.5136719, 3.6855, 0.3178711, 0.14175, -0.0115816, 3.6855, 0.628418, 3.6855, -0.5073242, 3.6855, 0.1621094, 0.14175, -0.0052033, 3.6855, 0.2944336, 3.6855, -0.9711914, 3.6855, -0.0263672, 0.14175, 0.0135958, 3.6855, -0.1318359, 3.6855, -0.940918, 3.6855, 0.1826172, , , , , , , , , , , , , , , , , , , , , , 
0.1422692, 0.023331, 3.699, -0.6586914, 3.699, -0.6806641, 3.699, 0.3178711, 0.1422692, -0.0109102, 3.699, 0.6977539, 3.699, -0.7104492, 3.699, 0.1567383, 0.1422692, -0.0063783, 3.699, 0.1918945, 3.699, -0.9199219, 3.699, -0.0776367, 0.1422692, 0.011078, 3.699, -0.0947266, 3.699, -0.9355469, 3.699, 0.159668, , , , , , , , , , , , , , , , , , , , , , 
0.1427885, 0.0276951, 3.7125, -0.6303711, 3.7125, -0.7470703, 3.7125, 0.2744141, 0.1427885, -0.0109102, 3.7125, 0.746582, 3.7125, -0.769043, 3.7125, 0.1547852, 0.1427885, -0.0078889, 3.7125, 0.1899414, 3.7125, -0.9233398, 3.7125, -0.0522461, 0.1427885, 0.0082246, 3.7125, -0.0805664, 3.7125, -0.9257812, 3.7125, 0.090332, , , , , , , , , , , , , , , , , , , , , , 
0.1433077, 0.0223239, 3.726, -0.5283203, 3.726, -0.6958008, 3.726, 0.2792969, 0.1433077, -0.0115816, 3.726, 0.7265625, 3.726, -0.7138672, 3.726, 0.1635742, 0.1433077, -0.0075532, 3.726, 0.2060547, 3.726, -0.9370117, 3.726, -0.0751953, 0.1433077, 0.0062104, 3.726, -0.0473633, 3.726, -0.9267578, 3.726, 0.0986328, , , , , , , , , , , , , , , , , , , , , , 
0.1438269, 0.0159457, 3.7395, -0.5195312, 3.7395, -0.6337891, 3.7395, 0.2539062, 0.1438269, -0.0115816, 3.7395, 0.6704102, 3.7395, -0.5947266, 3.7395, 0.1777344, 0.1438269, -0.0068818, 3.7395, 0.2807617, 3.7395, -0.9140625, 3.7395, -0.0766602, 0.1438269, 0.005539, 3.7395, -0.0024414, 3.7395, -0.9282227, 3.7395, 0.0854492, , , , , , , , , , , , , , , , , , , , , , 
0.1443462, 0.0142672, 3.753, -0.6162109, 3.753, -0.5585938, 3.753, 0.1298828, 0.1443462, -0.0092317, 3.753, 0.6206055, 3.753, -0.5825195, 3.753, 0.1816406, 0.1443462, -0.0068818, 3.753, 0.3701172, 3.753, -0.9291992, 3.753, 0.003418, 0.1443462, 0.0085603, 3.753, -0.0014648, 3.753, -0.9321289, 3.753, 0.0834961, , , , , , , , , , , , , , , , , , , , , , 
0.1448654, 0.0129244, 3.7665, -0.6269531, 3.7665, -0.5249023, 3.7665, 0.1977539, 0.1448654, -0.0095674, 3.7665, 0.4604492, 3.7665, -0.578125, 3.7665, 0.2631836, 0.1448654, -0.0072175, 3.7665, 0.328125, 3.7665, -0.909668, 3.7665, -0.1572266, 0.1448654, 0.0119173, 3.7665, -0.0688477, 3.7665, -0.9077148, 3.7665, 0.1601562, , , , , , , , , , , , , , , , , , , , , , 
0.1453846, 0.0112459, 3.78, -0.6826172, 3.78, -0.8237305, 3.78, 0.2636719, 0.1453846, -0.0129244, 3.78, 0.6323242, 3.78, -0.7333984, 3.78, 0.1254883, 0.1453846, -0.0072175, 3.78, 0.2133789, 3.78, -0.8999023, 3.78, -0.059082, 0.1453846, 0.0112459, 3.78, -0.1113281, 3.78, -0.9125977, 3.78, 0.1083984, , , , , , , , , , , , , , , , , , , , , , 
0.1459038, 0.0112459, 3.7935, -0.6870117, 3.7935, -0.8774414, 3.7935, 0.2583008, 0.1459038, -0.0130922, 3.7935, 0.7124023, 3.7935, -0.8481445, 3.7935, 0.2143555, 0.1459038, -0.005539, 3.7935, 0.1928711, 3.7935, -0.9584961, 3.7935, -0.0297852, 0.1459038, 0.0070497, 3.7935, -0.1079102, 3.7935, -1.0146484, 3.7935, 0.0600586, , , , , , , , , , , , , , , , , , , , , , 
0.1464231, 0.0129244, 3.807, -0.6411133, 3.807, -0.7236328, 3.807, 0.3789062, 0.1464231, -0.0112459, 3.807, 0.8261719, 3.807, -0.7402344, 3.807, 0.0683594, 0.1464231, -0.0028534, 3.807, 0.2109375, 3.807, -1.0805664, 3.807, -0.0683594, 0.1464231, 0.0063783, 3.807, -0.0932617, 3.807, -1.1108398, 3.807, 0.1835938, , , , , , , , , , , , , , , , , , , , , , 
0.1469423, 0.0137636, 3.8205, -0.6704102, 3.8205, -0.7617188, 3.8205, 0.3886719, 0.1469423, -0.0092317, 3.8205, 0.8330078, 3.8205, -0.7329102, 3.8205, 0.0869141, 0.1469423, -0.0035248, 3.8205, 0.3217773, 3.8205, -1.074707, 3.8205, -0.0620117, 0.1469423, 0.0072175, 3.8205, -0.1103516, 3.8205, -1.0493164, 3.8205, 0.1689453, , , , , , , , , , , , , , , , , , , , , , 
0.1474615, 0.0146029, 3.834, -0.800293, 3.834, -0.7958984, 3.834, 0.387207, 0.1474615, -0.0068818, 3.834, 0.8237305, 3.834, -0.7597656, 3.834, 0.1088867, 0.1474615, -0.0068818, 3.834, 0.4013672, 3.834, -1.0209961, 3.834, -0.0253906, 0.1474615, 0.0078889, 3.834, -0.0810547, 3.834, -1.0317383, 3.834, 0.2080078, , , , , , , , , , , , , , , , , , , , , , 
0.1479808, 0.0127565, 3.8475, -0.8066406, 3.8475, -0.777832, 3.8475, 0.3833008, 0.1479808, -0.0082246, 3.8475, 0.8037109, 3.8475, -0.8037109, 3.8475, 0.0673828, 0.1479808, -0.0075532, 3.8475, 0.4555664, 3.8475, -1.0087891, 3.8475, -0.0209961, 0.1479808, 0.0075532, 3.8475, -0.1132812, 3.8475, -1.0727539, 3.8475, 0.2397461, , , , , , , , , , , , , , , , , , , , , , 
0.1485, 0.0099031, 3.861, -0.6875, 3.861, -0.7875977, 3.861, 0.3833008, 0.1485, -0.0095674, 3.861, 0.7138672, 3.861, -0.8168945, 3.861, 0.0522461, 0.1485, -0.0068818, 3.861, 0.3789062, 3.861, -1.0356445, 3.861, -0.0454102, 0.1485, 0.0065461, 3.861, -0.1533203, 3.861, -1.0957031, 3.861, 0.2260742, , , , , , , , , , , , , , , , , , , , , , 
0.1490192, 0.0072175, 3.8745, -0.5249023, 3.8745, -0.815918, 3.8745, 0.362793, 0.1490192, -0.008896, 3.8745, 0.7216797, 3.8745, -0.7802734, 3.8745, 0.1069336, 0.1490192, -0.0075532, 3.8745, 0.2753906, 3.8745, -1.0078125, 3.8745, -0.0722656, 0.1490192, 0.0025177, 3.8745, -0.1015625, 3.8745, -1.0395508, 3.8745, 0.2348633, , , , , , , , , , , , , , , , , , , , , , 
0.1495385, 0.0038605, 3.888, -0.5019531, 3.888, -0.7905273, 3.888, 0.4365234, 0.1495385, -0.0082246, 3.888, 0.7724609, 3.888, -0.7675781, 3.888, -0.0175781, 0.1495385, -0.0095674, 3.888, 0.3046875, 3.888, -0.918457, 3.888, -0.0283203, 0.1495385, 0.0010071, 3.888, -0.074707, 3.888, -0.9672852, 3.888, 0.1708984, , , , , , , , , , , , , , , , , , , , , , 
0.1500577, 0.0018463, 3.9015, -0.4892578, 3.9015, -0.6674805, 3.9015, 0.1923828, 0.1500577, -0.0082246, 3.9015, 0.6489258, 3.9015, -0.6796875, 3.9015, 0.1083984, 0.1500577, -0.0109102, 3.9015, 0.3452148, 3.9015, -0.9057617, 3.9015, -0.0600586, 0.1500577, -0.0015106, 3.9015, -0.1152344, 3.9015, -0.9077148, 3.9015, 0.1230469, , , , , , , , , , , , , , , , , , , , , , 
0.1505769, 0.0003357, 3.915, -0.4794922, 3.915, -0.5986328, 3.915, 0.3081055, 0.1505769, -0.0093996, 3.915, 0.609375, 3.915, -0.5776367, 3.915, 0.25, 0.1505769, -0.0109102, 3.915, 0.2402344, 3.915, -0.8891602, 3.915, -0.0380859, 0.1505769, -0.0052033, 3.915, -0.1264648, 3.915, -0.8691406, 3.915, 0.0947266, , , , , , , , , , , , , , , , , , , , , , 
0.1510962, 0, 3.9285, -0.7426758, 3.9285, -0.6074219, 3.9285, 0.2094727, 0.1510962, -0.0095674, 3.9285, 0.6967773, 3.9285, -0.5615234, 3.9285, 0.1586914, 0.1510962, -0.0092317, 3.9285, 0.1845703, 3.9285, -0.8876953, 3.9285, -0.03125, 0.1510962, -0.0068818, 3.9285, -0.1152344, 3.9285, -0.8745117, 3.9285, 0.0600586, , , , , , , , , , , , , , , , , , , , , , 
0.1516154, 0.0008392, 3.942, -0.7895508, 3.942, -0.65625, 3.942, 0.2241211, 0.1516154, -0.0092317, 3.942, 0.722168, 3.942, -0.6323242, 3.942, 0.1210938, 0.1516154, -0.0082246, 3.942, 0.1064453, 3.942, -0.9433594, 3.942, 0.003418, 0.1516154, -0.0068818, 3.942, -0.1040039, 3.942, -0.9443359, 3.942, 0.043457, , , , , , , , , , , , , , , , , , , , , , 
0.1521346, 0.0025177, 3.9555, -0.5922852, 3.9555, -0.7670898, 3.9555, 0.2617188, 0.1521346, -0.0102388, 3.9555, 0.6567383, 3.9555, -0.7827148, 3.9555, 0.1430664, 0.1521346, -0.0085603, 3.9555, 0.2138672, 3.9555, -0.9833984, 3.9555, -0.0678711, 0.1521346, -0.0052033, 3.9555, -0.0869141, 3.9555, -1.0029297, 3.9555, 0.0830078, , , , , , , , , , , , , , , , , , , , , , 
0.1526538, 0.0050355, 3.969, -0.4746094, 3.969, -0.8466797, 3.969, 0.3427734, 0.1526538, -0.0102388, 3.969, 0.6591797, 3.969, -0.855957, 3.969, 0.1669922, 0.1526538, -0.008896, 3.969, 0.3735352, 3.969, -0.9394531, 3.969, -0.0644531, 0.1526538, -0.0001678, 3.969, -0.0239258, 3.969, -1.0078125, 3.969, 0.0551758, , , , , , , , , , , , , , , , , , , , , , 
0.1531731, 0.002182, 3.9825, -0.4946289, 3.9825, -0.6708984, 3.9825, 0.3647461, 0.1531731, -0.0099031, 3.9825, 0.7133789, 3.9825, -0.7504883, 3.9825, 0.1567383, 0.1531731, -0.0070497, 3.9825, 0.4013672, 3.9825, -0.956543, 3.9825, 0.0336914, 0.1531731, 0.0045319, 3.9825, -0.0498047, 3.9825, -1.0102539, 3.9825, 0.078125, , , , , , , , , , , , , , , , , , , , , , 
0.1536923, 0.0025177, 3.996, -0.6503906, 3.996, -0.4555664, 3.996, 0.3149414, 0.1536923, -0.008896, 3.996, 0.7983398, 3.996, -0.4619141, 3.996, 0.1992188, 0.1536923, -0.005539, 3.996, 0.2578125, 3.996, -1.0195312, 3.996, 0.0986328, 0.1536923, 0.0070497, 3.996, -0.1977539, 3.996, -0.9604492, 3.996, 0.125, , , , , , , , , , , , , , , , , , , , , , 
0.1542115, 0.0078889, 4.0095, -0.7553711, 4.0095, -0.4228516, 4.0095, 0.375, 0.1542115, -0.0070497, 4.0095, 0.8891602, 4.0095, -0.3901367, 4.0095, 0.2207031, 0.1542115, -0.0035248, 4.0095, 0.152832, 4.0095, -1.0273438, 4.0095, 0.1435547, 0.1542115, 0.008896, 4.0095, -0.3320312, 4.0095, -0.9243164, 4.0095, 0.0932617, , , , , , , , , , , , , , , , , , , , , , 
0.1547308, 0.0112459, 4.023, -0.9125977, 4.023, -0.484375, 4.023, 0.2978516, 0.1547308, -0.0073854, 4.023, 0.9311523, 4.023, -0.5112305, 4.023, 0.1777344, 0.1547308, -0.0025177, 4.023, 0.1367188, 4.023, -0.9936523, 4.023, 0.0610352, 0.1547308, 0.0129244, 4.023, -0.3413086, 4.023, -0.9560547, 4.023, 0.1357422, , , , , , , , , , , , , , , , , , , , , , 
0.15525, 0.0082246, 4.0365, -0.8554688, 4.0365, -0.6552734, 4.0365, 0.3818359, 0.15525, -0.008896, 4.0365, 0.6967773, 4.0365, -0.637207, 4.0365, 0.2421875, 0.15525, -0.0025177, 4.0365, 0.1625977, 4.0365, -0.9970703, 4.0365, 0.0751953, 0.15525, 0.0159457, 4.0365, -0.2714844, 4.0365, -0.9990234, 4.0365, 0.1396484, , , , , , , , , , , , , , , , , , , , , , 
0.1557692, 0.0105745, 4.05, -0.5029297, 4.05, -0.7353516, 4.05, 0.3989258, 0.1557692, -0.0085603, 4.05, 0.9316406, 4.05, -0.6459961, 4.05, -0.0561523, 0.1557692, -0.0048676, 4.05, 0.2802734, 4.05, -0.9609375, 4.05, 0.1733398, 0.1557692, 0.0182956, 4.05, -0.1904297, 4.05, -0.9467773, 4.05, 0.1005859, , , , , , , , , , , , , , , , , , , , , , 
0.1562885, 0.0209812, 4.0635, -0.5117188, 4.0635, -0.5927734, 4.0635, 0.3632812, 0.1562885, -0.0078889, 4.0635, 0.6176758, 4.0635, -0.4956055, 4.0635, 0.0522461, 0.1562885, -0.0102388, 4.0635, 0.3115234, 4.0635, -0.9472656, 4.0635, 0.09375, 0.1562885, 0.0186313, 4.0635, -0.2753906, 4.0635, -0.9921875, 4.0635, 0.2006836, , , , , , , , , , , , , , , , , , , , , , 
0.1568077, 0.0250095, 4.077, -0.6313477, 4.077, -0.6040039, 4.077, 0.3100586, 0.1568077, -0.0075532, 4.077, 0.4731445, 4.077, -0.6894531, 4.077, 0.1342773, 0.1568077, -0.0135958, 4.077, 0.3662109, 4.077, -1.0092773, 4.077, -0.0102539, 0.1568077, 0.017792, 4.077, -0.265625, 4.077, -1.0141602, 4.077, 0.2016602, , , , , , , , , , , , , , , , , , , , , , 
0.1573269, 0.0240024, 4.0905, -0.7958984, 4.0905, -0.9311523, 4.0905, 0.3198242, 0.1573269, -0.0078889, 4.0905, 0.5932617, 4.0905, -0.8696289, 4.0905, 0.1572266, 0.1573269, -0.0129244, 4.0905, 0.4589844, 4.0905, -0.9472656, 4.0905, -0.0854492, 0.1573269, 0.0179599, 4.0905, -0.1040039, 4.0905, -1.0444336, 4.0905, 0.1762695, , , , , , , , , , , , , , , , , , , , , , 
0.1578462, 0.0280308, 4.104, -0.7280273, 4.104, -0.8574219, 4.104, 0.1665039, 0.1578462, -0.008896, 4.104, 0.7055664, 4.104, -0.9223633, 4.104, 0.1464844, 0.1578462, -0.0112459, 4.104, 0.2988281, 4.104, -0.9423828, 4.104, -0.0541992, 0.1578462, 0.0169528, 4.104, -0.0185547, 4.104, -1.0585938, 4.104, 0.1806641, , , , , , , , , , , , , , , , , , , , , , 
0.1583654, 0.0340734, 4.1175, -0.5458984, 4.1175, -0.7163086, 4.1175, 0.2358398, 0.1583654, -0.0085603, 4.1175, 0.7353516, 4.1175, -0.6923828, 4.1175, 0.2182617, 0.1583654, -0.0112459, 4.1175, 0.1586914, 4.1175, -1.0146484, 4.1175, -0.0170898, 0.1583654, 0.0151064, 4.1175, -0.1035156, 4.1175, -0.9750977, 4.1175, 0.1240234, , , , , , , , , , , , , , , , , , , , , , 
0.1588846, 0.0360876, 4.131, -0.4614258, 4.131, -0.6591797, 4.131, 0.206543, 0.1588846, -0.0078889, 4.131, 0.6918945, 4.131, -0.6206055, 4.131, 0.1967773, 0.1588846, -0.0132601, 4.131, 0.159668, 4.131, -0.9697266, 4.131, -0.1025391, 0.1588846, 0.0152743, 4.131, -0.1357422, 4.131, -0.9321289, 4.131, 0.0532227, , , , , , , , , , , , , , , , , , , , , , 
0.1594038, 0.0374304, 4.1445, -0.5996094, 4.1445, -0.737793, 4.1445, 0.2636719, 0.1594038, -0.0099031, 4.1445, 0.6933594, 4.1445, -0.6420898, 4.1445, 0.1962891, 0.1594038, -0.014435, 4.1445, 0.2509766, 4.1445, -0.9169922, 4.1445, -0.043457, 0.1594038, 0.0151064, 4.1445, -0.0429688, 4.1445, -0.9638672, 4.1445, 0.0410156, , , , , , , , , , , , , , , , , , , , , , 
0.1599231, 0.0374304, 4.158, -0.7412109, 4.158, -0.7358398, 4.158, 0.2700195, 0.1599231, -0.0109102, 4.158, 0.7270508, 4.158, -0.7119141, 4.158, 0.2338867, 0.1599231, -0.0139315, 4.158, 0.3276367, 4.158, -0.9663086, 4.158, 0.0224609, 0.1599231, 0.0125887, 4.158, -0.0180664, 4.158, -1.0126953, 4.158, 0.0532227, , , , , , , , , , , , , , , , , , , , , , 
0.1604423, 0.0340734, 4.1715, -0.78125, 4.1715, -0.6518555, 4.1715, 0.3041992, 0.1604423, -0.0104067, 4.1715, 0.7646484, 4.1715, -0.6757812, 4.1715, 0.1772461, 0.1604423, -0.0115816, 4.1715, 0.3515625, 4.1715, -1.0273438, 4.1715, 0.0385742, 0.1604423, 0.0105745, 4.1715, -0.0854492, 4.1715, -1.0092773, 4.1715, 0.043457, , , , , , , , , , , , , , , , , , , , , , 
0.1609615, 0.0303807, 4.185, -0.7480469, 4.185, -0.6225586, 4.185, 0.2973633, 0.1609615, -0.010071, 4.185, 0.800293, 4.185, -0.59375, 4.185, 0.1557617, 0.1609615, -0.0099031, 4.185, 0.340332, 4.185, -1.0180664, 4.185, 0.0454102, 0.1609615, 0.0125887, 4.185, -0.1347656, 4.185, -0.9765625, 4.185, 0.0776367, , , , , , , , , , , , , , , , , , , , , , 
0.1614808, 0.0256809, 4.1985, -0.6123047, 4.1985, -0.5800781, 4.1985, 0.3212891, 0.1614808, -0.0092317, 4.1985, 0.7504883, 4.1985, -0.574707, 4.1985, 0.1245117, 0.1614808, -0.0095674, 4.1985, 0.3027344, 4.1985, -0.9438477, 4.1985, 0.0737305, 0.1614808, 0.0152743, 4.1985, -0.1669922, 4.1985, -0.9511719, 4.1985, 0.1308594, , , , , , , , , , , , , , , , , , , , , , 
0.162, 0.0206455, 4.212, -0.5400391, 4.212, -0.5151367, 4.212, 0.3725586, 0.162, -0.0075532, 4.212, 0.7001953, 4.212, -0.5571289, 4.212, 0.1240234, 0.162, -0.0082246, 4.212, 0.2675781, 4.212, -0.90625, 4.212, 0.0927734, 0.162, 0.01561, 4.212, -0.2700195, 4.212, -0.9228516, 4.212, 0.1635742, , , , , , , , , , , , , , , , , , , , , , 
0.1625192, 0.0166171, 4.2255, -0.6396484, 4.2255, -0.4799805, 4.2255, 0.4047852, 0.1625192, -0.0063783, 4.2255, 0.7587891, 4.2255, -0.4980469, 4.2255, 0.1723633, 0.1625192, -0.010071, 4.2255, 0.2265625, 4.2255, -0.9404297, 4.2255, 0.0849609, 0.1625192, 0.0142672, 4.2255, -0.3364258, 4.2255, -0.9155273, 4.2255, 0.1733398, , , , , , , , , , , , , , , , , , , , , , 
0.1630385, 0.0193027, 4.239, -0.8500977, 4.239, -0.5341797, 4.239, 0.3603516, 0.1630385, -0.0050355, 4.239, 0.8735352, 4.239, -0.5371094, 4.239, 0.1328125, 0.1630385, -0.0117494, 4.239, 0.1943359, 4.239, -1.0083008, 4.239, 0.0932617, 0.1630385, 0.0115816, 4.239, -0.3979492, 4.239, -0.9501953, 4.239, 0.1772461, , , , , , , , , , , , , , , , , , , , , , 
0.1635577, 0.0216526, 4.2525, -0.8920898, 4.2525, -0.6152344, 4.2525, 0.3725586, 0.1635577, -0.0045319, 4.2525, 0.8354492, 4.2525, -0.6323242, 4.2525, 0.1186523, 0.1635577, -0.0109102, 4.2525, 0.2001953, 4.2525, -1.0214844, 4.2525, 0.0605469, 0.1635577, 0.0105745, 4.2525, -0.3217773, 4.2525, -1.0058594, 4.2525, 0.2001953, , , , , , , , , , , , , , , , , , , , , , 
0.1640769, 0.0193027, 4.266, -0.6791992, 4.266, -0.6240234, 4.266, 0.3217773, 0.1640769, -0.0036927, 4.266, 0.7094727, 4.266, -0.659668, 4.266, 0.1533203, 0.1640769, -0.0105745, 4.266, 0.2563477, 4.266, -0.9799805, 4.266, 0.0722656, 0.1640769, 0.0119173, 4.266, -0.2045898, 4.266, -0.9995117, 4.266, 0.1865234, , , , , , , , , , , , , , , , , , , , , , 
0.1645962, 0.0152743, 4.2795, -0.5859375, 4.2795, -0.5541992, 4.2795, 0.3481445, 0.1645962, -0.0035248, 4.2795, 0.6669922, 4.2795, -0.5908203, 4.2795, 0.1621094, 0.1645962, -0.0115816, 4.2795, 0.3266602, 4.2795, -0.953125, 4.2795, 0.0615234, 0.1645962, 0.0142672, 4.2795, -0.1503906, 4.2795, -0.9790039, 4.2795, 0.1411133, , , , , , , , , , , , , , , , , , , , , , 
0.1651154, 0.0115816, 4.293, -0.6806641, 4.293, -0.5224609, 4.293, 0.3232422, 0.1651154, -0.0023499, 4.293, 0.7636719, 4.293, -0.5322266, 4.293, 0.1782227, 0.1651154, -0.0125887, 4.293, 0.3364258, 4.293, -0.9682617, 4.293, 0.0551758, 0.1651154, 0.0172885, 4.293, -0.1518555, 4.293, -0.9667969, 4.293, 0.1079102, , , , , , , , , , , , , , , , , , , , , , 
0.1656346, 0.008896, 4.3065, -0.7583008, 4.3065, -0.5522461, 4.3065, 0.309082, 0.1656346, -0.0016785, 4.3065, 0.8032227, 4.3065, -0.5561523, 4.3065, 0.1835938, 0.1656346, -0.0149386, 4.3065, 0.2851562, 4.3065, -0.9814453, 4.3065, 0.0629883, 0.1656346, 0.018967, 4.3065, -0.1591797, 4.3065, -0.9628906, 4.3065, 0.0864258, , , , , , , , , , , , , , , , , , , , , , 
0.1661538, 0.0072175, 4.32, -0.7329102, 4.32, -0.5703125, 4.32, 0.2915039, 0.1661538, -0.0028534, 4.32, 0.7333984, 4.32, -0.5800781, 4.32, 0.1806641, 0.1661538, -0.0176242, 4.32, 0.2587891, 4.32, -0.9731445, 4.32, 0.0585938, 0.1661538, 0.0179599, 4.32, -0.1723633, 4.32, -0.9536133, 4.32, 0.0820312, , , , , , , , , , , , , , , , , , , , , , 
0.1666731, 0.0085603, 4.3335, -0.6499023, 4.3335, -0.6074219, 4.3335, 0.2431641, 0.1666731, -0.0035248, 4.3335, 0.6987305, 4.3335, -0.5854492, 4.3335, 0.1953125, 0.1666731, -0.0169528, 4.3335, 0.2163086, 4.3335, -0.949707, 4.3335, 0.0581055, 0.1666731, 0.0132601, 4.3335, -0.1904297, 4.3335, -0.9296875, 4.3335, 0.0708008, , , , , , , , , , , , , , , , , , , , , , 
0.1671923, 0.0092317, 4.347, -0.6098633, 4.347, -0.6235352, 4.347, 0.2197266, 0.1671923, -0.0028534, 4.347, 0.6855469, 4.347, -0.6030273, 4.347, 0.2114258, 0.1671923, -0.0151064, 4.347, 0.1992188, 4.347, -0.9194336, 4.347, 0.0253906, 0.1671923, 0.008896, 4.347, -0.1772461, 4.347, -0.9145508, 4.347, 0.0712891, , , , , , , , , , , , , , , , , , , , , , 
0.1677115, 0.011078, 4.3605, -0.6113281, 4.3605, -0.6411133, 4.3605, 0.2456055, 0.1677115, -0.0028534, 4.3605, 0.6713867, 4.3605, -0.6337891, 4.3605, 0.1845703, 0.1677115, -0.0137636, 4.3605, 0.1914062, 4.3605, -0.8955078, 4.3605, -0.0180664, 0.1677115, 0.0072175, 4.3605, -0.1494141, 4.3605, -0.9189453, 4.3605, 0.0922852, , , , , , , , , , , , , , , , , , , , , , 
0.1682308, 0.0132601, 4.374, -0.6508789, 4.374, -0.6674805, 4.374, 0.2714844, 0.1682308, -0.0046998, 4.374, 0.7021484, 4.374, -0.6538086, 4.374, 0.1879883, 0.1682308, -0.0129244, 4.374, 0.2421875, 4.374, -0.8979492, 4.374, 0.0078125, 0.1682308, 0.0062104, 4.374, -0.1279297, 4.374, -0.9389648, 4.374, 0.0927734, , , , , , , , , , , , , , , , , , , , , , 
0.16875, 0.0119173, 4.3875, -0.6899414, 4.3875, -0.6635742, 4.3875, 0.2958984, 0.16875, -0.0070497, 4.3875, 0.7207031, 4.3875, -0.6333008, 4.3875, 0.1728516, 0.16875, -0.0109102, 4.3875, 0.2890625, 4.3875, -0.9370117, 4.3875, 0.034668, 0.16875, 0.0048676, 4.3875, -0.1328125, 4.3875, -0.9501953, 4.3875, 0.0981445, , , , , , , , , , , , , , , , , , , , , , 
0.1692692, 0.0115816, 4.401, -0.7109375, 4.401, -0.6225586, 4.401, 0.2880859, 0.1692692, -0.0068818, 4.401, 0.7729492, 4.401, -0.6103516, 4.401, 0.2026367, 0.1692692, -0.0095674, 4.401, 0.3022461, 4.401, -0.9916992, 4.401, 0.0507812, 0.1692692, 0.0041962, 4.401, -0.184082, 4.401, -0.9921875, 4.401, 0.1054688, , , , , , , , , , , , , , , , , , , , , , 
0.1697885, 0.0099031, 4.4145, -0.7280273, 4.4145, -0.6108398, 4.4145, 0.2929688, 0.1697885, -0.0068818, 4.4145, 0.8193359, 4.4145, -0.6333008, 4.4145, 0.2114258, 0.1697885, -0.0068818, 4.4145, 0.269043, 4.4145, -1.0385742, 4.4145, 0.0556641, 0.1697885, 0.0011749, 4.4145, -0.2299805, 4.4145, -1.0317383, 4.4145, 0.1313477, , , , , , , , , , , , , , , , , , , , , , 
0.1703077, 0.0031891, 4.428, -0.737793, 4.428, -0.6606445, 4.428, 0.3251953, 0.1703077, -0.0068818, 4.428, 0.8242188, 4.428, -0.6669922, 4.428, 0.1640625, 0.1703077, -0.0038605, 4.428, 0.2680664, 4.428, -1.0317383, 4.428, 0.0620117, 0.1703077, 0.0008392, 4.428, -0.1982422, 4.428, -1.0234375, 4.428, 0.1494141, , , , , , , , , , , , , , , , , , , , , , 
0.1708269, -0.0030213, 4.4415, -0.7133789, 4.4415, -0.6391602, 4.4415, 0.3447266, 0.1708269, -0.008896, 4.4415, 0.7695312, 4.4415, -0.6147461, 4.4415, 0.1503906, 0.1708269, -0.002182, 4.4415, 0.2729492, 4.4415, -0.9716797, 4.4415, 0.0854492, 0.1708269, 0.0052033, 4.4415, -0.1640625, 4.4415, -0.9853516, 4.4415, 0.1293945, , , , , , , , , , , , , , , , , , , , , , 
