Application:, Trigno Discover (2.0.1.2)
Date/Time:, 5/14/2025 1:06:22 PM
Collection Length (seconds):, 37.125
Forearm 2 (83169), , , , , , , , Forearm 1 (82633), , , , , , , , Biceps (83254), , , , , , , , Triceps (83087)
sensor mode: 45, , , , , , , , sensor mode: 45, , , , , , , , sensor mode: 45, , , , , , , , sensor mode: 45
EMG 1 Time Series (s), EMG 1 (mV), ACC X Time Series (s), ACC X (G), ACC Y Time Series (s), ACC Y (G), ACC Z Time Series (s), ACC Z (G), EMG 1 Time Series (s), EMG 1 (mV), ACC X Time Series (s), ACC X (G), ACC Y Time Series (s), ACC Y (G), ACC Z Time Series (s), ACC Z (G), EMG 1 Time Series (s), EMG 1 (mV), ACC X Time Series (s), ACC X (G), ACC Y Time Series (s), ACC Y (G), ACC Z Time Series (s), ACC Z (G), EMG 1 Time Series (s), EMG 1 (mV), ACC X Time Series (s), ACC X (G), ACC Y Time Series (s), ACC Y (G), ACC Z Time Series (s), ACC Z (G)
, 1925.9259 Hz, , 74.0741 Hz, , 74.0741 Hz, , 74.0741 Hz, , 1925.9259 Hz, , 74.0741 Hz, , 74.0741 Hz, , 74.0741 Hz, , 1925.9259 Hz, , 74.0741 Hz, , 74.0741 Hz, , 74.0741 Hz, , 1925.9259 Hz, , 74.0741 Hz, , 74.0741 Hz, , 74.0741 Hz
, 0.0005192307692307692 s, , 0.0135 s, , 0.0135 s, , 0.0135 s, , 0.0005192307692307692 s, , 0.0135 s, , 0.0135 s, , 0.0135 s, , 0.0005192307692307692 s, , 0.0135 s, , 0.0135 s, , 0.0135 s, , 0.0005192307692307692 s, , 0.0135 s, , 0.0135 s, , 0.0135 s, , Type, Name, Label, Time (s), , Pair, E1, E2, T1, T2, V1, V2, Sensor, Channel, Units, Delta T, RMS, PKPK, Peak Value, TPK, Integral
0, 0.0035248, 0, -0.2319336, 0, -0.9765625, 0, 0.1376953, 0, -0.0075532, 0, 0.3134766, 0, -0.9277344, 0, -0.2314453, 0, -0.0092317, 0, 0.1279297, 0, -0.9931641, 0, 0.0102539, 0, 0.0065461, 0, -0.2119141, 0, -0.9765625, 0, 0.0517578, , , , , , , , , , , , , , , , , , , , , , 
0.0005192, 0.0025177, 0.0135, -0.2324219, 0.0135, -0.9804688, 0.0135, 0.1362305, 0.0005192, -0.0068818, 0.0135, 0.3129883, 0.0135, -0.9248047, 0.0135, -0.2329102, 0.0005192, -0.0075532, 0.0135, 0.1293945, 0.0135, -0.9960938, 0.0135, 0.0078125, 0.0005192, 0.0077211, 0.0135, -0.2011719, 0.0135, -0.9780273, 0.0135, 0.046875, , , , , , , , , , , , , , , , , , , , , , 
0.0010385, -0.0001678, 0.027, -0.2333984, 0.027, -0.984375, 0.027, 0.1328125, 0.0010385, -0.0068818, 0.027, 0.3237305, 0.027, -0.9287109, 0.027, -0.2280273, 0.0010385, -0.0050355, 0.027, 0.1308594, 0.027, -1.0004883, 0.027, 0.0102539, 0.0010385, 0.0105745, 0.027, -0.190918, 0.027, -0.9775391, 0.027, 0.0439453, , , , , , , , , , , , , , , , , , , , , , 
0.0015577, -0.0028534, 0.0405, -0.2294922, 0.0405, -0.9833984, 0.0405, 0.1347656, 0.0015577, -0.008896, 0.0405, 0.3286133, 0.0405, -0.9311523, 0.0405, -0.2246094, 0.0015577, -0.0048676, 0.0405, 0.1337891, 0.0405, -0.9980469, 0.0405, 0.0073242, 0.0015577, 0.0139315, 0.0405, -0.184082, 0.0405, -0.9790039, 0.0405, 0.0371094, , , , , , , , , , , , , , , , , , , , , , 
0.0020769, 0.0003357, 0.054, -0.2255859, 0.054, -0.9858398, 0.054, 0.1367188, 0.0020769, -0.0102388, 0.054, 0.3276367, 0.054, -0.9345703, 0.054, -0.2290039, 0.0020769, -0.0063783, 0.054, 0.1450195, 0.054, -0.9990234, 0.054, 0.0107422, 0.0020769, 0.0164492, 0.054, -0.1782227, 0.054, -0.9833984, 0.054, 0.0302734, , , , , , , , , , , , , , , , , , , , , , 
0.0025962, 0.0078889, 0.0675, -0.2246094, 0.0675, -0.987793, 0.0675, 0.140625, 0.0025962, -0.0115816, 0.0675, 0.3271484, 0.0675, -0.9355469, 0.0675, -0.2304688, 0.0025962, -0.0065461, 0.0675, 0.1484375, 0.0675, -1.0029297, 0.0675, 0.0131836, 0.0025962, 0.0184634, 0.0675, -0.1757812, 0.0675, -0.9897461, 0.0675, 0.0332031, , , , , , , , , , , , , , , , , , , , , , 
0.0031154, 0.0139315, 0.081, -0.2304688, 0.081, -0.9892578, 0.081, 0.1396484, 0.0031154, -0.0129244, 0.081, 0.3295898, 0.081, -0.9365234, 0.081, -0.2265625, 0.0031154, -0.0031891, 0.081, 0.1484375, 0.081, -1.0058594, 0.081, 0.0205078, 0.0031154, 0.0204776, 0.081, -0.1860352, 0.081, -0.9868164, 0.081, 0.0356445, , , , , , , , , , , , , , , , , , , , , , 
0.0036346, 0.0181277, 0.0945, -0.2333984, 0.0945, -0.984375, 0.0945, 0.1391602, 0.0036346, -0.012253, 0.0945, 0.3310547, 0.0945, -0.9321289, 0.0945, -0.2270508, 0.0036346, -0.0025177, 0.0945, 0.1376953, 0.0945, -1.0043945, 0.0945, 0.0195312, 0.0036346, 0.0226596, 0.0945, -0.2026367, 0.0945, -0.984375, 0.0945, 0.0390625, , , , , , , , , , , , , , , , , , , , , , 
0.0041538, 0.0226596, 0.108, -0.234375, 0.108, -0.9863281, 0.108, 0.1411133, 0.0041538, -0.0109102, 0.108, 0.3305664, 0.108, -0.9306641, 0.108, -0.2270508, 0.0041538, -0.0045319, 0.108, 0.1289062, 0.108, -1.0029297, 0.108, 0.0244141, 0.0041538, 0.0253452, 0.108, -0.2075195, 0.108, -0.9829102, 0.108, 0.0390625, , , , , , , , , , , , , , , , , , , , , , 
0.0046731, 0.0236667, 0.1215, -0.2324219, 0.1215, -0.9873047, 0.1215, 0.1396484, 0.0046731, -0.0099031, 0.1215, 0.3295898, 0.1215, -0.9355469, 0.1215, -0.2294922, 0.0046731, -0.0052033, 0.1215, 0.1191406, 0.1215, -1.0053711, 0.1215, 0.0195312, 0.0046731, 0.0270237, 0.1215, -0.2177734, 0.1215, -0.9814453, 0.1215, 0.0400391, , , , , , , , , , , , , , , , , , , , , , 
0.0051923, 0.023331, 0.135, -0.2304688, 0.135, -0.9853516, 0.135, 0.1391602, 0.0051923, -0.0097353, 0.135, 0.3242188, 0.135, -0.9350586, 0.135, -0.2285156, 0.0051923, -0.0038605, 0.135, 0.1186523, 0.135, -1.0068359, 0.135, 0.0200195, 0.0051923, 0.0273594, 0.135, -0.2167969, 0.135, -0.9863281, 0.135, 0.0424805, , , , , , , , , , , , , , , , , , , , , , 
0.0057115, 0.0219883, 0.1485, -0.2368164, 0.1485, -0.9858398, 0.1485, 0.137207, 0.0057115, -0.012253, 0.1485, 0.3222656, 0.1485, -0.9321289, 0.1485, -0.2280273, 0.0057115, -0.0048676, 0.1485, 0.1269531, 0.1485, -1.0048828, 0.1485, 0.0239258, 0.0057115, 0.0270237, 0.1485, -0.2128906, 0.1485, -0.9882812, 0.1485, 0.0463867, , , , , , , , , , , , , , , , , , , , , , 
0.0062308, 0.0219883, 0.162, -0.2387695, 0.162, -0.9814453, 0.162, 0.1367188, 0.0062308, -0.012253, 0.162, 0.3178711, 0.162, -0.9350586, 0.162, -0.2255859, 0.0062308, -0.0068818, 0.162, 0.1352539, 0.162, -1.0039062, 0.162, 0.0258789, 0.0062308, 0.0246738, 0.162, -0.2109375, 0.162, -0.9863281, 0.162, 0.0424805, , , , , , , , , , , , , , , , , , , , , , 
0.00675, 0.0223239, 0.1755, -0.2416992, 0.1755, -0.9770508, 0.1755, 0.1401367, 0.00675, -0.0109102, 0.1755, 0.3129883, 0.1755, -0.9296875, 0.1755, -0.2285156, 0.00675, -0.0058747, 0.1755, 0.1298828, 0.1755, -0.996582, 0.1755, 0.0249023, 0.00675, 0.0229953, 0.1755, -0.2109375, 0.1755, -0.9804688, 0.1755, 0.034668, , , , , , , , , , , , , , , , , , , , , , 
0.0072692, 0.0226596, 0.189, -0.2358398, 0.189, -0.9775391, 0.189, 0.1367188, 0.0072692, -0.0112459, 0.189, 0.3144531, 0.189, -0.9262695, 0.189, -0.2304688, 0.0072692, -0.0041962, 0.189, 0.1176758, 0.189, -0.9916992, 0.189, 0.0209961, 0.0072692, 0.0219883, 0.189, -0.2172852, 0.189, -0.9775391, 0.189, 0.0395508, , , , , , , , , , , , , , , , , , , , , , 
0.0077885, 0.0260166, 0.2025, -0.2304688, 0.2025, -0.9794922, 0.2025, 0.1367188, 0.0077885, -0.0109102, 0.2025, 0.3203125, 0.2025, -0.9228516, 0.2025, -0.2324219, 0.0077885, -0.0043641, 0.2025, 0.1118164, 0.2025, -0.9912109, 0.2025, 0.0175781, 0.0077885, 0.0172885, 0.2025, -0.2158203, 0.2025, -0.9780273, 0.2025, 0.0390625, , , , , , , , , , , , , , , , , , , , , , 
0.0083077, 0.0231632, 0.216, -0.230957, 0.216, -0.9799805, 0.216, 0.1381836, 0.0083077, -0.0092317, 0.216, 0.3212891, 0.216, -0.9301758, 0.216, -0.2270508, 0.0083077, -0.0068818, 0.216, 0.1162109, 0.216, -1, 0.216, 0.015625, 0.0083077, 0.0135958, 0.216, -0.206543, 0.216, -0.9848633, 0.216, 0.0380859, , , , , , , , , , , , , , , , , , , , , , 
0.0088269, 0.0179599, 0.2295, -0.2421875, 0.2295, -0.9853516, 0.2295, 0.1342773, 0.0088269, -0.0092317, 0.2295, 0.3212891, 0.2295, -0.9394531, 0.2295, -0.2202148, 0.0088269, -0.008896, 0.2295, 0.125, 0.2295, -1.0112305, 0.2295, 0.0195312, 0.0088269, 0.0132601, 0.2295, -0.2011719, 0.2295, -0.9926758, 0.2295, 0.0395508, , , , , , , , , , , , , , , , , , , , , , 
0.0093462, 0.0182956, 0.243, -0.2490234, 0.243, -0.9902344, 0.243, 0.1313477, 0.0093462, -0.0085603, 0.243, 0.3212891, 0.243, -0.9394531, 0.243, -0.2216797, 0.0093462, -0.0083925, 0.243, 0.1293945, 0.243, -1.0112305, 0.243, 0.0180664, 0.0093462, 0.014435, 0.243, -0.1982422, 0.243, -0.9902344, 0.243, 0.0375977, , , , , , , , , , , , , , , , , , , , , , 
0.0098654, 0.0172885, 0.2565, -0.2412109, 0.2565, -0.9941406, 0.2565, 0.1313477, 0.0098654, -0.0075532, 0.2565, 0.3271484, 0.2565, -0.9428711, 0.2565, -0.2197266, 0.0098654, -0.0078889, 0.2565, 0.1328125, 0.2565, -1.0092773, 0.2565, 0.0136719, 0.0098654, 0.0139315, 0.2565, -0.1972656, 0.2565, -0.9897461, 0.2565, 0.0371094, , , , , , , , , , , , , , , , , , , , , , 
0.0103846, 0.0129244, 0.27, -0.2319336, 0.27, -0.9960938, 0.27, 0.1357422, 0.0103846, -0.0057069, 0.27, 0.3310547, 0.27, -0.9433594, 0.27, -0.2231445, 0.0103846, -0.0097353, 0.27, 0.137207, 0.27, -1.0112305, 0.27, 0.0063477, 0.0103846, 0.0109102, 0.27, -0.190918, 0.27, -0.9941406, 0.27, 0.0336914, , , , , , , , , , , , , , , , , , , , , , 
0.0109038, 0.0099031, 0.2835, -0.2304688, 0.2835, -0.996582, 0.2835, 0.1352539, 0.0109038, -0.0045319, 0.2835, 0.3295898, 0.2835, -0.9467773, 0.2835, -0.2231445, 0.0109038, -0.0112459, 0.2835, 0.1347656, 0.2835, -1.0161133, 0.2835, 0.0039062, 0.0109038, 0.0109102, 0.2835, -0.1855469, 0.2835, -0.9980469, 0.2835, 0.0366211, , , , , , , , , , , , , , , , , , , , , , 
0.0114231, 0.0092317, 0.297, -0.2353516, 0.297, -1, 0.297, 0.1303711, 0.0114231, -0.0065461, 0.297, 0.3227539, 0.297, -0.9462891, 0.297, -0.2241211, 0.0114231, -0.0104067, 0.297, 0.1289062, 0.297, -1.0151367, 0.297, 0.0039062, 0.0114231, 0.0129244, 0.297, -0.1811523, 0.297, -0.9970703, 0.297, 0.0415039, , , , , , , , , , , , , , , , , , , , , , 
0.0119423, 0.0065461, 0.3105, -0.2358398, 0.3105, -0.9975586, 0.3105, 0.1318359, 0.0119423, -0.0082246, 0.3105, 0.3198242, 0.3105, -0.9443359, 0.3105, -0.2265625, 0.0119423, -0.0099031, 0.3105, 0.1298828, 0.3105, -1.0117188, 0.3105, 0, 0.0119423, 0.0119173, 0.3105, -0.1875, 0.3105, -0.9946289, 0.3105, 0.0405273, , , , , , , , , , , , , , , , , , , , , , 
0.0124615, 0.0041962, 0.324, -0.2358398, 0.324, -0.9946289, 0.324, 0.1308594, 0.0124615, -0.008896, 0.324, 0.3110352, 0.324, -0.9414062, 0.324, -0.2260742, 0.0124615, -0.008896, 0.324, 0.1342773, 0.324, -1.0073242, 0.324, -0.0004883, 0.0124615, 0.0070497, 0.324, -0.1870117, 0.324, -0.9902344, 0.324, 0.0351562, , , , , , , , , , , , , , , , , , , , , , 
0.0129808, 0.0058747, 0.3375, -0.2294922, 0.3375, -0.9897461, 0.3375, 0.1313477, 0.0129808, -0.008896, 0.3375, 0.3154297, 0.3375, -0.9418945, 0.3375, -0.2299805, 0.0129808, -0.0095674, 0.3375, 0.1337891, 0.3375, -1.0063477, 0.3375, -0.0019531, 0.0129808, 0.0062104, 0.3375, -0.1845703, 0.3375, -0.987793, 0.3375, 0.0390625, , , , , , , , , , , , , , , , , , , , , , 
0.0135, 0.0102388, 0.351, -0.2280273, 0.351, -0.9931641, 0.351, 0.1323242, 0.0135, -0.0075532, 0.351, 0.3193359, 0.351, -0.9375, 0.351, -0.230957, 0.0135, -0.0102388, 0.351, 0.1333008, 0.351, -1.0063477, 0.351, 0, 0.0135, 0.0092317, 0.351, -0.1801758, 0.351, -0.9907227, 0.351, 0.0424805, , , , , , , , , , , , , , , , , , , , , , 
0.0140192, 0.0164492, 0.3645, -0.2280273, 0.3645, -0.9946289, 0.3645, 0.1328125, 0.0140192, -0.0070497, 0.3645, 0.3212891, 0.3645, -0.9399414, 0.3645, -0.2275391, 0.0140192, -0.0082246, 0.3645, 0.1333008, 0.3645, -1.0053711, 0.3645, -0.0014648, 0.0140192, 0.0085603, 0.3645, -0.1831055, 0.3645, -0.9912109, 0.3645, 0.0400391, , , , , , , , , , , , , , , , , , , , , , 
0.0145385, 0.0162814, 0.378, -0.2275391, 0.378, -0.996582, 0.378, 0.1323242, 0.0145385, -0.0072175, 0.378, 0.3232422, 0.378, -0.9418945, 0.378, -0.2265625, 0.0145385, -0.0082246, 0.378, 0.1367188, 0.378, -1.0078125, 0.378, 0.0014648, 0.0145385, 0.0065461, 0.378, -0.1816406, 0.378, -0.9951172, 0.378, 0.0385742, , , , , , , , , , , , , , , , , , , , , , 
0.0150577, 0.0095674, 0.3915, -0.2285156, 0.3915, -0.9970703, 0.3915, 0.1328125, 0.0150577, -0.0082246, 0.3915, 0.3276367, 0.3915, -0.9418945, 0.3915, -0.2255859, 0.0150577, -0.0115816, 0.3915, 0.1420898, 0.3915, -1.0131836, 0.3915, 0.0073242, 0.0150577, 0.0083925, 0.3915, -0.1777344, 0.3915, -0.9941406, 0.3915, 0.0380859, , , , , , , , , , , , , , , , , , , , , , 
0.0155769, 0.0070497, 0.405, -0.2294922, 0.405, -0.9926758, 0.405, 0.1347656, 0.0155769, -0.008896, 0.405, 0.3276367, 0.405, -0.9375, 0.405, -0.2231445, 0.0155769, -0.0125887, 0.405, 0.1352539, 0.405, -1.0073242, 0.405, 0.0078125, 0.0155769, 0.0105745, 0.405, -0.1806641, 0.405, -0.9916992, 0.405, 0.0356445, , , , , , , , , , , , , , , , , , , , , , 
0.0160962, 0.0090639, 0.4185, -0.2280273, 0.4185, -0.9868164, 0.4185, 0.1362305, 0.0160962, -0.0085603, 0.4185, 0.3222656, 0.4185, -0.9335938, 0.4185, -0.2270508, 0.0160962, -0.0115816, 0.4185, 0.1289062, 0.4185, -1.0009766, 0.4185, 0.0092773, 0.0160962, 0.0090639, 0.4185, -0.1899414, 0.4185, -0.9873047, 0.4185, 0.0361328, , , , , , , , , , , , , , , , , , , , , , 
0.0166154, 0.0085603, 0.432, -0.2338867, 0.432, -0.9863281, 0.432, 0.1396484, 0.0166154, -0.0083925, 0.432, 0.3198242, 0.432, -0.9316406, 0.432, -0.2304688, 0.0166154, -0.0097353, 0.432, 0.1308594, 0.432, -1.0039062, 0.432, 0.0170898, 0.0166154, 0.0030213, 0.432, -0.2001953, 0.432, -0.9873047, 0.432, 0.0356445, , , , , , , , , , , , , , , , , , , , , , 
0.0171346, 0.0035248, 0.4455, -0.2358398, 0.4455, -0.984375, 0.4455, 0.1381836, 0.0171346, -0.0095674, 0.4455, 0.3139648, 0.4455, -0.9326172, 0.4455, -0.2338867, 0.0171346, -0.0095674, 0.4455, 0.1181641, 0.4455, -1.0009766, 0.4455, 0.0141602, 0.0171346, 0.0011749, 0.4455, -0.2075195, 0.4455, -0.9819336, 0.4455, 0.0429688, , , , , , , , , , , , , , , , , , , , , , 
0.0176538, -0.0008392, 0.459, -0.237793, 0.459, -0.9799805, 0.459, 0.137207, 0.0176538, -0.0095674, 0.459, 0.3125, 0.459, -0.9291992, 0.459, -0.2299805, 0.0176538, -0.0109102, 0.459, 0.1142578, 0.459, -1, 0.459, 0.0117188, 0.0176538, 0.0011749, 0.459, -0.2089844, 0.459, -0.9775391, 0.459, 0.0424805, , , , , , , , , , , , , , , , , , , , , , 
0.0181731, -0.002182, 0.4725, -0.2348633, 0.4725, -0.9799805, 0.4725, 0.1376953, 0.0181731, -0.0075532, 0.4725, 0.3125, 0.4725, -0.9272461, 0.4725, -0.2294922, 0.0181731, -0.0135958, 0.4725, 0.1176758, 0.4725, -0.9960938, 0.4725, 0.0126953, 0.0181731, -0.0015106, 0.4725, -0.2075195, 0.4725, -0.9765625, 0.4725, 0.0405273, , , , , , , , , , , , , , , , , , , , , , 
0.0186923, 0.0005035, 0.486, -0.2319336, 0.486, -0.9775391, 0.486, 0.1352539, 0.0186923, -0.0050355, 0.486, 0.3178711, 0.486, -0.9267578, 0.486, -0.2280273, 0.0186923, -0.0125887, 0.486, 0.1289062, 0.486, -0.9956055, 0.486, 0.0146484, 0.0186923, -0.0035248, 0.486, -0.1972656, 0.486, -0.9785156, 0.486, 0.0400391, , , , , , , , , , , , , , , , , , , , , , 
0.0192115, 0.0048676, 0.4995, -0.2290039, 0.4995, -0.9746094, 0.4995, 0.1347656, 0.0192115, -0.0043641, 0.4995, 0.3242188, 0.4995, -0.9238281, 0.4995, -0.2246094, 0.0192115, -0.0112459, 0.4995, 0.1352539, 0.4995, -0.9956055, 0.4995, 0.0161133, 0.0192115, -0.0028534, 0.4995, -0.1870117, 0.4995, -0.9765625, 0.4995, 0.0405273, , , , , , , , , , , , , , , , , , , , , , 
0.0197308, 0.0075532, 0.513, -0.2285156, 0.513, -0.9741211, 0.513, 0.1376953, 0.0197308, -0.0065461, 0.513, 0.3291016, 0.513, -0.9213867, 0.513, -0.2202148, 0.0197308, -0.0109102, 0.513, 0.137207, 0.513, -0.9916992, 0.513, 0.0200195, 0.0197308, -0.0023499, 0.513, -0.1870117, 0.513, -0.9741211, 0.513, 0.0351562, , , , , , , , , , , , , , , , , , , , , , 
0.02025, 0.0085603, 0.5265, -0.2294922, 0.5265, -0.96875, 0.5265, 0.1342773, 0.02025, -0.0068818, 0.5265, 0.3286133, 0.5265, -0.9204102, 0.5265, -0.2177734, 0.02025, -0.0097353, 0.5265, 0.1342773, 0.5265, -0.9887695, 0.5265, 0.0229492, 0.02025, -0.0018463, 0.5265, -0.1982422, 0.5265, -0.9711914, 0.5265, 0.0415039, , , , , , , , , , , , , , , , , , , , , , 
0.0207692, 0.0092317, 0.54, -0.2231445, 0.54, -0.9648438, 0.54, 0.1386719, 0.0207692, -0.0048676, 0.54, 0.3217773, 0.54, -0.9155273, 0.54, -0.2231445, 0.0207692, -0.0102388, 0.54, 0.1308594, 0.54, -0.9794922, 0.54, 0.0219727, 0.0207692, 0.0035248, 0.54, -0.2021484, 0.54, -0.9643555, 0.54, 0.043457, , , , , , , , , , , , , , , , , , , , , , 
0.0212885, 0.0065461, 0.5535, -0.2246094, 0.5535, -0.9609375, 0.5535, 0.1416016, 0.0212885, -0.0052033, 0.5535, 0.3134766, 0.5535, -0.909668, 0.5535, -0.2333984, 0.0212885, -0.0099031, 0.5535, 0.128418, 0.5535, -0.9736328, 0.5535, 0.0234375, 0.0212885, 0.0085603, 0.5535, -0.2041016, 0.5535, -0.9619141, 0.5535, 0.0458984, , , , , , , , , , , , , , , , , , , , , , 
0.0218077, -0.0001678, 0.567, -0.2285156, 0.567, -0.956543, 0.567, 0.1450195, 0.0218077, -0.0082246, 0.567, 0.3134766, 0.567, -0.9086914, 0.567, -0.2363281, 0.0218077, -0.0083925, 0.567, 0.1289062, 0.567, -0.9760742, 0.567, 0.0302734, 0.0218077, 0.0112459, 0.567, -0.215332, 0.567, -0.9604492, 0.567, 0.0488281, , , , , , , , , , , , , , , , , , , , , , 
0.0223269, -0.0015106, 0.5805, -0.2416992, 0.5805, -0.9594727, 0.5805, 0.1445312, 0.0223269, -0.0095674, 0.5805, 0.3149414, 0.5805, -0.9082031, 0.5805, -0.2387695, 0.0223269, -0.0075532, 0.5805, 0.1333008, 0.5805, -0.9824219, 0.5805, 0.0375977, 0.0223269, 0.0119173, 0.5805, -0.2211914, 0.5805, -0.9633789, 0.5805, 0.0532227, , , , , , , , , , , , , , , , , , , , , , 
0.0228462, 0.0052033, 0.594, -0.2456055, 0.594, -0.9599609, 0.594, 0.1503906, 0.0228462, -0.0083925, 0.594, 0.3164062, 0.594, -0.918457, 0.594, -0.234375, 0.0228462, -0.0065461, 0.594, 0.1401367, 0.594, -0.9853516, 0.594, 0.0439453, 0.0228462, 0.0119173, 0.594, -0.2285156, 0.594, -0.9682617, 0.594, 0.0585938, , , , , , , , , , , , , , , , , , , , , , 
0.0233654, 0.0146029, 0.6075, -0.2431641, 0.6075, -0.9628906, 0.6075, 0.1557617, 0.0233654, -0.0085603, 0.6075, 0.3276367, 0.6075, -0.9194336, 0.6075, -0.2319336, 0.0233654, -0.005539, 0.6075, 0.1489258, 0.6075, -0.9897461, 0.6075, 0.0507812, 0.0233654, 0.0142672, 0.6075, -0.2314453, 0.6075, -0.972168, 0.6075, 0.0625, , , , , , , , , , , , , , , , , , , , , , 
0.0238846, 0.0186313, 0.621, -0.2324219, 0.621, -0.9643555, 0.621, 0.1625977, 0.0238846, -0.0082246, 0.621, 0.347168, 0.621, -0.9165039, 0.621, -0.2314453, 0.0238846, -0.0063783, 0.621, 0.1430664, 0.621, -0.9873047, 0.621, 0.0507812, 0.0238846, 0.0193027, 0.621, -0.2402344, 0.621, -0.9672852, 0.621, 0.0664062, , , , , , , , , , , , , , , , , , , , , , 
0.0244038, 0.0213169, 0.6345, -0.21875, 0.6345, -0.9643555, 0.6345, 0.1699219, 0.0244038, -0.0072175, 0.6345, 0.3588867, 0.6345, -0.9135742, 0.6345, -0.2368164, 0.0244038, -0.008896, 0.6345, 0.137207, 0.6345, -0.984375, 0.6345, 0.0507812, 0.0244038, 0.0229953, 0.6345, -0.2441406, 0.6345, -0.9638672, 0.6345, 0.0654297, , , , , , , , , , , , , , , , , , , , , , 
0.0249231, 0.0260166, 0.648, -0.222168, 0.648, -0.9599609, 0.648, 0.1748047, 0.0249231, -0.0072175, 0.648, 0.3564453, 0.648, -0.9067383, 0.648, -0.2421875, 0.0249231, -0.0102388, 0.648, 0.1362305, 0.648, -0.9814453, 0.648, 0.0556641, 0.0249231, 0.0263523, 0.648, -0.2446289, 0.648, -0.9624023, 0.648, 0.0629883, , , , , , , , , , , , , , , , , , , , , , 
0.0254423, 0.0303807, 0.6615, -0.2363281, 0.6615, -0.9541016, 0.6615, 0.1762695, 0.0254423, -0.0068818, 0.6615, 0.3496094, 0.6615, -0.8969727, 0.6615, -0.2480469, 0.0254423, -0.0082246, 0.6615, 0.1313477, 0.6615, -0.9775391, 0.6615, 0.0664062, 0.0254423, 0.0276951, 0.6615, -0.25, 0.6615, -0.9570312, 0.6615, 0.0649414, , , , , , , , , , , , , , , , , , , , , , 
0.0259615, 0.0313878, 0.675, -0.2446289, 0.675, -0.9516602, 0.675, 0.1738281, 0.0259615, -0.0062104, 0.675, 0.3378906, 0.675, -0.8955078, 0.675, -0.2495117, 0.0259615, -0.0075532, 0.675, 0.1303711, 0.675, -0.9726562, 0.675, 0.0717773, 0.0259615, 0.0256809, 0.675, -0.2558594, 0.675, -0.9521484, 0.675, 0.0639648, , , , , , , , , , , , , , , , , , , , , , 
0.0264808, 0.0283665, 0.6885, -0.2456055, 0.6885, -0.9418945, 0.6885, 0.1733398, 0.0264808, -0.0052033, 0.6885, 0.3344727, 0.6885, -0.8920898, 0.6885, -0.2485352, 0.0264808, -0.0075532, 0.6885, 0.1367188, 0.6885, -0.9663086, 0.6885, 0.0712891, 0.0264808, 0.0226596, 0.6885, -0.2539062, 0.6885, -0.9448242, 0.6885, 0.0649414, , , , , , , , , , , , , , , , , , , , , , 
0.027, 0.0260166, 0.702, -0.2314453, 0.702, -0.9238281, 0.702, 0.1679688, 0.027, -0.0052033, 0.702, 0.3330078, 0.702, -0.8818359, 0.702, -0.2456055, 0.027, -0.0068818, 0.702, 0.1430664, 0.702, -0.9516602, 0.702, 0.0756836, 0.027, 0.0182956, 0.702, -0.2514648, 0.702, -0.9326172, 0.702, 0.0693359, , , , , , , , , , , , , , , , , , , , , , 
0.0275192, 0.0226596, 0.7155, -0.2250977, 0.7155, -0.9165039, 0.7155, 0.1728516, 0.0275192, -0.0045319, 0.7155, 0.3374023, 0.7155, -0.8637695, 0.7155, -0.2456055, 0.0275192, -0.0063783, 0.7155, 0.1503906, 0.7155, -0.9335938, 0.7155, 0.0810547, 0.0275192, 0.017792, 0.7155, -0.2495117, 0.7155, -0.9257812, 0.7155, 0.0693359, , , , , , , , , , , , , , , , , , , , , , 
0.0280385, 0.0193027, 0.729, -0.2216797, 0.729, -0.9047852, 0.729, 0.1743164, 0.0280385, -0.0048676, 0.729, 0.3432617, 0.729, -0.8535156, 0.729, -0.2426758, 0.0280385, -0.0065461, 0.729, 0.1518555, 0.729, -0.9277344, 0.729, 0.0830078, 0.0280385, 0.0179599, 0.729, -0.25, 0.729, -0.918457, 0.729, 0.0693359, , , , , , , , , , , , , , , , , , , , , , 
0.0285577, 0.0186313, 0.7425, -0.2202148, 0.7425, -0.902832, 0.7425, 0.1713867, 0.0285577, -0.0075532, 0.7425, 0.347168, 0.7425, -0.8544922, 0.7425, -0.2402344, 0.0285577, -0.0062104, 0.7425, 0.1547852, 0.7425, -0.9213867, 0.7425, 0.0927734, 0.0285577, 0.01561, 0.7425, -0.2612305, 0.7425, -0.9125977, 0.7425, 0.0683594, , , , , , , , , , , , , , , , , , , , , , 
0.0290769, 0.0206455, 0.756, -0.2114258, 0.756, -0.8989258, 0.756, 0.1674805, 0.0290769, -0.0095674, 0.756, 0.3491211, 0.756, -0.8505859, 0.756, -0.2275391, 0.0290769, -0.0068818, 0.756, 0.1464844, 0.756, -0.9145508, 0.756, 0.1010742, 0.0290769, 0.0139315, 0.756, -0.2705078, 0.756, -0.9038086, 0.756, 0.0683594, , , , , , , , , , , , , , , , , , , , , , 
0.0295962, 0.0209812, 0.7695, -0.2036133, 0.7695, -0.890625, 0.7695, 0.1621094, 0.0295962, -0.0099031, 0.7695, 0.3442383, 0.7695, -0.8408203, 0.7695, -0.2197266, 0.0295962, -0.0085603, 0.7695, 0.1391602, 0.7695, -0.9047852, 0.7695, 0.1000977, 0.0295962, 0.0139315, 0.7695, -0.2695312, 0.7695, -0.8969727, 0.7695, 0.065918, , , , , , , , , , , , , , , , , , , , , , 
0.0301154, 0.0209812, 0.783, -0.2104492, 0.783, -0.8730469, 0.783, 0.1577148, 0.0301154, -0.0102388, 0.783, 0.3286133, 0.783, -0.8339844, 0.783, -0.2177734, 0.0301154, -0.0082246, 0.783, 0.1367188, 0.783, -0.8950195, 0.783, 0.097168, 0.0301154, 0.0129244, 0.783, -0.2612305, 0.783, -0.8842773, 0.783, 0.0615234, , , , , , , , , , , , , , , , , , , , , , 
0.0306346, 0.0216526, 0.7965, -0.21875, 0.7965, -0.8583984, 0.7965, 0.144043, 0.0306346, -0.0102388, 0.7965, 0.3046875, 0.7965, -0.8212891, 0.7965, -0.21875, 0.0306346, -0.0077211, 0.7965, 0.1367188, 0.7965, -0.8803711, 0.7965, 0.0957031, 0.0306346, 0.0125887, 0.7965, -0.2626953, 0.7965, -0.8686523, 0.7965, 0.0620117, , , , , , , , , , , , , , , , , , , , , , 
0.0311538, 0.0206455, 0.81, -0.2197266, 0.81, -0.8413086, 0.81, 0.1352539, 0.0311538, -0.0075532, 0.81, 0.2910156, 0.81, -0.8129883, 0.81, -0.2192383, 0.0311538, -0.0082246, 0.81, 0.1289062, 0.81, -0.8564453, 0.81, 0.0927734, 0.0311538, 0.0125887, 0.81, -0.2685547, 0.81, -0.8500977, 0.81, 0.0693359, , , , , , , , , , , , , , , , , , , , , , 
0.0316731, 0.0199741, 0.8235, -0.2133789, 0.8235, -0.8178711, 0.8235, 0.1245117, 0.0316731, -0.0048676, 0.8235, 0.2636719, 0.8235, -0.7910156, 0.8235, -0.215332, 0.0316731, -0.0095674, 0.8235, 0.1171875, 0.8235, -0.828125, 0.8235, 0.0810547, 0.0316731, 0.0132601, 0.8235, -0.2675781, 0.8235, -0.8217773, 0.8235, 0.0722656, , , , , , , , , , , , , , , , , , , , , , 
0.0321923, 0.0223239, 0.837, -0.1923828, 0.837, -0.7827148, 0.837, 0.1123047, 0.0321923, -0.0058747, 0.837, 0.2431641, 0.837, -0.7592773, 0.837, -0.2099609, 0.0321923, -0.0109102, 0.837, 0.1088867, 0.837, -0.7871094, 0.837, 0.0732422, 0.0321923, 0.0119173, 0.837, -0.2587891, 0.837, -0.7768555, 0.837, 0.0712891, , , , , , , , , , , , , , , , , , , , , , 
0.0327115, 0.0198062, 0.8505, -0.1757812, 0.8505, -0.7548828, 0.8505, 0.1069336, 0.0327115, -0.0041962, 0.8505, 0.2402344, 0.8505, -0.7241211, 0.8505, -0.206543, 0.0327115, -0.0095674, 0.8505, 0.1118164, 0.8505, -0.7651367, 0.8505, 0.0678711, 0.0327115, 0.0105745, 0.8505, -0.2402344, 0.8505, -0.7475586, 0.8505, 0.0644531, , , , , , , , , , , , , , , , , , , , , , 
0.0332308, 0.0182956, 0.864, -0.1787109, 0.864, -0.7265625, 0.864, 0.0922852, 0.0332308, -0.0025177, 0.864, 0.2368164, 0.864, -0.6987305, 0.864, -0.1967773, 0.0332308, -0.0065461, 0.864, 0.1132812, 0.864, -0.7348633, 0.864, 0.0488281, 0.0332308, 0.0102388, 0.864, -0.2299805, 0.864, -0.7358398, 0.864, 0.0615234, , , , , , , , , , , , , , , , , , , , , , 
0.03375, 0.0182956, 0.8775, -0.1660156, 0.8775, -0.6982422, 0.8775, 0.0791016, 0.03375, -0.0038605, 0.8775, 0.2231445, 0.8775, -0.6733398, 0.8775, -0.184082, 0.03375, -0.0068818, 0.8775, 0.1069336, 0.8775, -0.7109375, 0.8775, 0.0322266, 0.03375, 0.0119173, 0.8775, -0.206543, 0.8775, -0.7080078, 0.8775, 0.0629883, , , , , , , , , , , , , , , , , , , , , , 
0.0342692, 0.0196384, 0.891, -0.1518555, 0.891, -0.6855469, 0.891, 0.0786133, 0.0342692, -0.0045319, 0.891, 0.2124023, 0.891, -0.637207, 0.891, -0.1777344, 0.0342692, -0.0092317, 0.891, 0.09375, 0.891, -0.6811523, 0.891, 0.0219727, 0.0342692, 0.0139315, 0.891, -0.1762695, 0.891, -0.6704102, 0.891, 0.0473633, , , , , , , , , , , , , , , , , , , , , , 
0.0347885, 0.0199741, 0.9045, -0.1303711, 0.9045, -0.6538086, 0.9045, 0.0673828, 0.0347885, -0.0038605, 0.9045, 0.2001953, 0.9045, -0.6000977, 0.9045, -0.1738281, 0.0347885, -0.0085603, 0.9045, 0.0927734, 0.9045, -0.6293945, 0.9045, -0.0004883, 0.0347885, 0.0132601, 0.9045, -0.1342773, 0.9045, -0.6333008, 0.9045, 0.0327148, , , , , , , , , , , , , , , , , , , , , , 
0.0353077, 0.0159457, 0.918, -0.121582, 0.918, -0.6264648, 0.918, 0.0498047, 0.0353077, -0.0035248, 0.918, 0.1777344, 0.918, -0.5732422, 0.918, -0.1757812, 0.0353077, -0.0068818, 0.918, 0.1000977, 0.918, -0.5883789, 0.918, -0.0263672, 0.0353077, 0.0119173, 0.918, -0.09375, 0.918, -0.6079102, 0.918, 0.0195312, , , , , , , , , , , , , , , , , , , , , , 
0.0358269, 0.0119173, 0.9315, -0.1206055, 0.9315, -0.605957, 0.9315, 0.0375977, 0.0358269, -0.0058747, 0.9315, 0.1665039, 0.9315, -0.5634766, 0.9315, -0.1733398, 0.0358269, -0.0065461, 0.9315, 0.0981445, 0.9315, -0.5771484, 0.9315, -0.046875, 0.0358269, 0.0115816, 0.9315, -0.0708008, 0.9315, -0.5898438, 0.9315, 0.0107422, , , , , , , , , , , , , , , , , , , , , , 
0.0363462, 0.0135958, 0.945, -0.1201172, 0.945, -0.5986328, 0.945, 0.0253906, 0.0363462, -0.0075532, 0.945, 0.1474609, 0.945, -0.5551758, 0.945, -0.1630859, 0.0363462, -0.0073854, 0.945, 0.1035156, 0.945, -0.5756836, 0.945, -0.0556641, 0.0363462, 0.0099031, 0.945, -0.0517578, 0.945, -0.5761719, 0.945, 0.0029297, , , , , , , , , , , , , , , , , , , , , , 
0.0368654, 0.0146029, 0.9585, -0.1303711, 0.9585, -0.5942383, 0.9585, 0.0136719, 0.0368654, -0.0068818, 0.9585, 0.1347656, 0.9585, -0.5581055, 0.9585, -0.1455078, 0.0368654, -0.0085603, 0.9585, 0.105957, 0.9585, -0.5766602, 0.9585, -0.0634766, 0.0368654, 0.0065461, 0.9585, -0.0219727, 0.9585, -0.5688477, 0.9585, -0.0029297, , , , , , , , , , , , , , , , , , , , , , 
0.0373846, 0.0109102, 0.972, -0.1269531, 0.972, -0.5922852, 0.972, -0.0097656, 0.0373846, -0.0068818, 0.972, 0.1303711, 0.972, -0.5546875, 0.972, -0.1376953, 0.0373846, -0.0092317, 0.972, 0.1044922, 0.972, -0.5839844, 0.972, -0.0839844, 0.0373846, 0.0045319, 0.972, 0.0068359, 0.972, -0.5668945, 0.972, -0.0141602, , , , , , , , , , , , , , , , , , , , , , 
0.0379038, 0.0062104, 0.9855, -0.1196289, 0.9855, -0.5991211, 0.9855, -0.0078125, 0.0379038, -0.0068818, 0.9855, 0.1298828, 0.9855, -0.5551758, 0.9855, -0.1303711, 0.0379038, -0.010071, 0.9855, 0.097168, 0.9855, -0.5854492, 0.9855, -0.0966797, 0.0379038, 0.0035248, 0.9855, 0.0268555, 0.9855, -0.5688477, 0.9855, -0.0151367, , , , , , , , , , , , , , , , , , , , , , 
0.0384231, 0.0038605, 0.999, -0.0908203, 0.999, -0.6044922, 0.999, -0.0078125, 0.0384231, -0.0062104, 0.999, 0.1508789, 0.999, -0.5473633, 0.999, -0.125, 0.0384231, -0.0115816, 0.999, 0.0805664, 0.999, -0.5761719, 0.999, -0.1191406, 0.0384231, 0.0028534, 0.999, 0.0527344, 0.999, -0.5566406, 0.999, -0.0136719, , , , , , , , , , , , , , , , , , , , , , 
0.0389423, 0.0005035, 1.0125, -0.0576172, 1.0125, -0.6015625, 1.0125, -0.0009766, 0.0389423, -0.0058747, 1.0125, 0.1689453, 1.0125, -0.5366211, 1.0125, -0.1308594, 0.0389423, -0.0125887, 1.0125, 0.0742188, 1.0125, -0.546875, 1.0125, -0.1430664, 0.0389423, 0.0001678, 1.0125, 0.0668945, 1.0125, -0.5449219, 1.0125, -0.019043, , , , , , , , , , , , , , , , , , , , , , 
0.0394615, -0.0018463, 1.026, -0.0297852, 1.026, -0.5854492, 1.026, -0.0102539, 0.0394615, -0.0062104, 1.026, 0.1689453, 1.026, -0.5288086, 1.026, -0.1367188, 0.0394615, -0.0124208, 1.026, 0.0766602, 1.026, -0.5263672, 1.026, -0.1704102, 0.0394615, -0.0015106, 1.026, 0.0966797, 1.026, -0.5297852, 1.026, -0.0297852, , , , , , , , , , , , , , , , , , , , , , 
0.0399808, 0.0011749, 1.0395, -0.0253906, 1.0395, -0.5864258, 1.0395, -0.0336914, 0.0399808, -0.0078889, 1.0395, 0.1464844, 1.0395, -0.5444336, 1.0395, -0.1269531, 0.0399808, -0.0115816, 1.0395, 0.0756836, 1.0395, -0.534668, 1.0395, -0.1821289, 0.0399808, -0.0001678, 1.0395, 0.1157227, 1.0395, -0.53125, 1.0395, -0.0268555, , , , , , , , , , , , , , , , , , , , , , 
0.0405, -0.0001678, 1.053, -0.0302734, 1.053, -0.5976562, 1.053, -0.0478516, 0.0405, -0.0112459, 1.053, 0.1303711, 1.053, -0.5561523, 1.053, -0.1230469, 0.0405, -0.0109102, 1.053, 0.081543, 1.053, -0.5683594, 1.053, -0.1816406, 0.0405, 0.002182, 1.053, 0.1083984, 1.053, -0.5478516, 1.053, -0.0161133, , , , , , , , , , , , , , , , , , , , , , 
0.0410192, -0.0008392, 1.0665, -0.0581055, 1.0665, -0.6416016, 1.0665, -0.0483398, 0.0410192, -0.0125887, 1.0665, 0.0947266, 1.0665, -0.5805664, 1.0665, -0.1264648, 0.0410192, -0.0102388, 1.0665, 0.0932617, 1.0665, -0.6025391, 1.0665, -0.1943359, 0.0410192, 0.0052033, 1.0665, 0.1010742, 1.0665, -0.5742188, 1.0665, -0.0087891, , , , , , , , , , , , , , , , , , , , , , 
0.0415385, 0.0041962, 1.08, -0.0898438, 1.08, -0.6870117, 1.08, -0.0478516, 0.0415385, -0.0115816, 1.08, 0.0791016, 1.08, -0.6098633, 1.08, -0.1313477, 0.0415385, -0.0082246, 1.08, 0.1113281, 1.08, -0.6245117, 1.08, -0.2158203, 0.0415385, 0.0099031, 1.08, 0.1279297, 1.08, -0.5888672, 1.08, -0.0131836, , , , , , , , , , , , , , , , , , , , , , 
0.0420577, 0.0099031, 1.0935, -0.0634766, 1.0935, -0.6860352, 1.0935, -0.0537109, 0.0420577, -0.0102388, 1.0935, 0.0800781, 1.0935, -0.6220703, 1.0935, -0.1430664, 0.0420577, -0.0062104, 1.0935, 0.121582, 1.0935, -0.6162109, 1.0935, -0.2363281, 0.0420577, 0.0124208, 1.0935, 0.1801758, 1.0935, -0.5947266, 1.0935, -0.0141602, , , , , , , , , , , , , , , , , , , , , , 
0.0425769, 0.0139315, 1.107, -0.0332031, 1.107, -0.6831055, 1.107, -0.050293, 0.0425769, -0.008896, 1.107, 0.0678711, 1.107, -0.6201172, 1.107, -0.1733398, 0.0425769, -0.0046998, 1.107, 0.125, 1.107, -0.6044922, 1.107, -0.2744141, 0.0425769, 0.0139315, 1.107, 0.2265625, 1.107, -0.6025391, 1.107, -0.0209961, , , , , , , , , , , , , , , , , , , , , , 
0.0430962, 0.0149386, 1.1205, -0.0737305, 1.1205, -0.7011719, 1.1205, -0.0380859, 0.0430962, -0.0075532, 1.1205, 0.0170898, 1.1205, -0.6489258, 1.1205, -0.2026367, 0.0430962, -0.0041962, 1.1205, 0.1186523, 1.1205, -0.6186523, 1.1205, -0.293457, 0.0430962, 0.0171206, 1.1205, 0.2392578, 1.1205, -0.6430664, 1.1205, -0.0205078, , , , , , , , , , , , , , , , , , , , , , 
0.0436154, 0.0149386, 1.134, -0.097168, 1.134, -0.7543945, 1.134, -0.0336914, 0.0436154, -0.0078889, 1.134, -0.0024414, 1.134, -0.6962891, 1.134, -0.2055664, 0.0436154, -0.0045319, 1.134, 0.0932617, 1.134, -0.6845703, 1.134, -0.3154297, 0.0436154, 0.0209812, 1.134, 0.2260742, 1.134, -0.7041016, 1.134, -0.0029297, , , , , , , , , , , , , , , , , , , , , , 
0.0441346, 0.0193027, 1.1475, -0.0698242, 1.1475, -0.8076172, 1.1475, -0.0527344, 0.0441346, -0.0083925, 1.1475, 0.0395508, 1.1475, -0.7275391, 1.1475, -0.2001953, 0.0441346, -0.0058747, 1.1475, 0.0712891, 1.1475, -0.7480469, 1.1475, -0.3129883, 0.0441346, 0.0226596, 1.1475, 0.2514648, 1.1475, -0.7426758, 1.1475, -0.0039062, , , , , , , , , , , , , , , , , , , , , , 
0.0446538, 0.023331, 1.161, -0.0224609, 1.161, -0.8398438, 1.161, -0.046875, 0.0446538, -0.0075532, 1.161, 0.0932617, 1.161, -0.7602539, 1.161, -0.1787109, 0.0446538, -0.0048676, 1.161, 0.0859375, 1.161, -0.7558594, 1.161, -0.3227539, 0.0446538, 0.0240024, 1.161, 0.2871094, 1.161, -0.7441406, 1.161, -0.015625, , , , , , , , , , , , , , , , , , , , , , 
0.0451731, 0.0263523, 1.1745, -0.0141602, 1.1745, -0.8520508, 1.1745, -0.0297852, 0.0451731, -0.0058747, 1.1745, 0.1191406, 1.1745, -0.8022461, 1.1745, -0.1616211, 0.0451731, -0.0048676, 1.1745, 0.1323242, 1.1745, -0.7265625, 1.1745, -0.362793, 0.0451731, 0.0258488, 1.1745, 0.3564453, 1.1745, -0.7329102, 1.1745, -0.0288086, , , , , , , , , , , , , , , , , , , , , , 
0.0456923, 0.0255131, 1.188, -0.0102539, 1.188, -0.8691406, 1.188, -0.0214844, 0.0456923, -0.0043641, 1.188, 0.1196289, 1.188, -0.8178711, 1.188, -0.1748047, 0.0456923, -0.0063783, 1.188, 0.1938477, 1.188, -0.7319336, 1.188, -0.375, 0.0456923, 0.0256809, 1.188, 0.3793945, 1.188, -0.7294922, 1.188, -0.0307617, , , , , , , , , , , , , , , , , , , , , , 
0.0462115, 0.0240024, 1.2015, -0.0283203, 1.2015, -0.9262695, 1.2015, 0.015625, 0.0462115, -0.0048676, 1.2015, 0.1083984, 1.2015, -0.8525391, 1.2015, -0.2255859, 0.0462115, -0.0075532, 1.2015, 0.2451172, 1.2015, -0.7836914, 1.2015, -0.3745117, 0.0462115, 0.0253452, 1.2015, 0.375, 1.2015, -0.7597656, 1.2015, -0.0214844, , , , , , , , , , , , , , , , , , , , , , 
0.0467308, 0.0287022, 1.215, -0.0439453, 1.215, -0.9550781, 1.215, 0.0249023, 0.0467308, -0.0077211, 1.215, 0.1083984, 1.215, -0.8994141, 1.215, -0.2387695, 0.0467308, -0.0087282, 1.215, 0.2626953, 1.215, -0.8510742, 1.215, -0.359375, 0.0467308, 0.0246738, 1.215, 0.3491211, 1.215, -0.8408203, 1.215, 0.0043945, , , , , , , , , , , , , , , , , , , , , , 
0.04725, 0.0307164, 1.2285, -0.0786133, 1.2285, -0.9907227, 1.2285, 0.0292969, 0.04725, -0.0095674, 1.2285, 0.1391602, 1.2285, -0.9248047, 1.2285, -0.2045898, 0.04725, -0.0087282, 1.2285, 0.2734375, 1.2285, -0.9116211, 1.2285, -0.3125, 0.04725, 0.0219883, 1.2285, 0.3203125, 1.2285, -0.9199219, 1.2285, 0.0478516, , , , , , , , , , , , , , , , , , , , , , 
0.0477692, 0.0260166, 1.242, -0.1235352, 1.242, -0.9980469, 1.242, 0.0405273, 0.0477692, -0.0078889, 1.242, 0.1787109, 1.242, -0.9331055, 1.242, -0.1767578, 0.0477692, -0.0085603, 1.242, 0.2612305, 1.242, -0.9575195, 1.242, -0.3256836, 0.0477692, 0.0198062, 1.242, 0.3310547, 1.242, -0.9550781, 1.242, 0.0698242, , , , , , , , , , , , , , , , , , , , , , 
0.0482885, 0.0229953, 1.2555, -0.1757812, 1.2555, -1.0063477, 1.2555, 0.050293, 0.0482885, -0.005539, 1.2555, 0.2250977, 1.2555, -0.9394531, 1.2555, -0.1879883, 0.0482885, -0.0095674, 1.2555, 0.2231445, 1.2555, -0.9707031, 1.2555, -0.3466797, 0.0482885, 0.0179599, 1.2555, 0.3408203, 1.2555, -0.9589844, 1.2555, 0.0527344, , , , , , , , , , , , , , , , , , , , , , 
0.0488077, 0.0196384, 1.269, -0.2148438, 1.269, -1.0209961, 1.269, 0.0693359, 0.0488077, -0.005539, 1.269, 0.2460938, 1.269, -0.9765625, 1.269, -0.190918, 0.0488077, -0.0119173, 1.269, 0.1391602, 1.269, -0.9848633, 1.269, -0.3476562, 0.0488077, 0.0172885, 1.269, 0.3012695, 1.269, -0.9604492, 1.269, 0.0273438, , , , , , , , , , , , , , , , , , , , , , 
0.0493269, 0.0198062, 1.2825, -0.2543945, 1.2825, -1.050293, 1.2825, 0.097168, 0.0493269, -0.0057069, 1.2825, 0.2265625, 1.2825, -1.0195312, 1.2825, -0.1889648, 0.0493269, -0.0132601, 1.2825, 0.105957, 1.2825, -1.0126953, 1.2825, -0.3457031, 0.0493269, 0.0176242, 1.2825, 0.2426758, 1.2825, -0.9790039, 1.2825, 0.0146484, , , , , , , , , , , , , , , , , , , , , , 
0.0498462, 0.023331, 1.296, -0.2607422, 1.296, -1.0756836, 1.296, 0.0913086, 0.0498462, -0.005539, 1.296, 0.2509766, 1.296, -1.0395508, 1.296, -0.1777344, 0.0498462, -0.0102388, 1.296, 0.0908203, 1.296, -1.0566406, 1.296, -0.324707, 0.0498462, 0.0169528, 1.296, 0.1987305, 1.296, -1.0371094, 1.296, 0.0361328, , , , , , , , , , , , , , , , , , , , , , 
0.0503654, 0.021149, 1.3095, -0.2626953, 1.3095, -1.1083984, 1.3095, 0.109375, 0.0503654, -0.005539, 1.3095, 0.2851562, 1.3095, -1.0537109, 1.3095, -0.1650391, 0.0503654, -0.0068818, 1.3095, 0.1416016, 1.3095, -1.0844727, 1.3095, -0.2822266, 0.0503654, 0.0152743, 1.3095, 0.1538086, 1.3095, -1.0947266, 1.3095, 0.0810547, , , , , , , , , , , , , , , , , , , , , , 
0.0508846, 0.0181277, 1.323, -0.2543945, 1.323, -1.1245117, 1.323, 0.1118164, 0.0508846, -0.0063783, 1.323, 0.3393555, 1.323, -1.078125, 1.323, -0.1479492, 0.0508846, -0.0050355, 1.323, 0.2392578, 1.323, -1.0991211, 1.323, -0.2509766, 0.0508846, 0.0146029, 1.323, 0.1435547, 1.323, -1.1137695, 1.323, 0.1015625, , , , , , , , , , , , , , , , , , , , , , 
0.0514038, 0.0209812, 1.3365, -0.2485352, 1.3365, -1.1328125, 1.3365, 0.1176758, 0.0514038, -0.0062104, 1.3365, 0.3325195, 1.3365, -1.0844727, 1.3365, -0.1586914, 0.0514038, -0.005539, 1.3365, 0.2695312, 1.3365, -1.1123047, 1.3365, -0.2695312, 0.0514038, 0.0137636, 1.3365, 0.1582031, 1.3365, -1.1186523, 1.3365, 0.1162109, , , , , , , , , , , , , , , , , , , , , , 
0.0519231, 0.0198062, 1.35, -0.309082, 1.35, -1.1518555, 1.35, 0.1474609, 0.0519231, -0.0046998, 1.35, 0.3193359, 1.35, -1.1074219, 1.35, -0.1679688, 0.0519231, -0.008896, 1.35, 0.2333984, 1.35, -1.1508789, 1.35, -0.3007812, 0.0519231, 0.0124208, 1.35, 0.1918945, 1.35, -1.1337891, 1.35, 0.0986328, , , , , , , , , , , , , , , , , , , , , , 
0.0524423, 0.0129244, 1.3635, -0.3901367, 1.3635, -1.1865234, 1.3635, 0.1538086, 0.0524423, -0.0048676, 1.3635, 0.3374023, 1.3635, -1.1484375, 1.3635, -0.1689453, 0.0524423, -0.0109102, 1.3635, 0.234375, 1.3635, -1.2246094, 1.3635, -0.2973633, 0.0524423, 0.010071, 1.3635, 0.2285156, 1.3635, -1.1987305, 1.3635, 0.0878906, , , , , , , , , , , , , , , , , , , , , , 
0.0529615, 0.0092317, 1.377, -0.4506836, 1.377, -1.25, 1.377, 0.1791992, 0.0529615, -0.0062104, 1.377, 0.3549805, 1.377, -1.2089844, 1.377, -0.1547852, 0.0529615, -0.0083925, 1.377, 0.2602539, 1.377, -1.2666016, 1.377, -0.2880859, 0.0529615, 0.008896, 1.377, 0.2714844, 1.377, -1.2866211, 1.377, 0.0888672, , , , , , , , , , , , , , , , , , , , , , 
0.0534808, 0.0092317, 1.3905, -0.4394531, 1.3905, -1.2871094, 1.3905, 0.1777344, 0.0534808, -0.0065461, 1.3905, 0.3823242, 1.3905, -1.2548828, 1.3905, -0.1948242, 0.0534808, -0.0058747, 1.3905, 0.2973633, 1.3905, -1.3432617, 1.3905, -0.2851562, 0.0534808, 0.0105745, 1.3905, 0.296875, 1.3905, -1.3383789, 1.3905, 0.0869141, , , , , , , , , , , , , , , , , , , , , , 
0.054, 0.0085603, 1.404, -0.3388672, 1.404, -1.3461914, 1.404, 0.1845703, 0.054, -0.0052033, 1.404, 0.4453125, 1.404, -1.2724609, 1.404, -0.2241211, 0.054, -0.0065461, 1.404, 0.2949219, 1.404, -1.34375, 1.404, -0.3295898, 0.054, 0.0142672, 1.404, 0.3110352, 1.404, -1.3364258, 1.404, 0.105957, , , , , , , , , , , , , , , , , , , , , , 
0.0545192, 0.0075532, 1.4175, -0.1904297, 1.4175, -1.3671875, 1.4175, 0.2045898, 0.0545192, -0.0052033, 1.4175, 0.503418, 1.4175, -1.2783203, 1.4175, -0.2158203, 0.0545192, -0.0068818, 1.4175, 0.3095703, 1.4175, -1.293457, 1.4175, -0.3515625, 0.0545192, 0.0159457, 1.4175, 0.3212891, 1.4175, -1.3051758, 1.4175, 0.1220703, , , , , , , , , , , , , , , , , , , , , , 
0.0550385, 0.0092317, 1.431, -0.1533203, 1.431, -1.3725586, 1.431, 0.253418, 0.0550385, -0.0072175, 1.431, 0.5073242, 1.431, -1.2910156, 1.431, -0.203125, 0.0550385, -0.0048676, 1.431, 0.3569336, 1.431, -1.28125, 1.431, -0.3603516, 0.0550385, 0.0152743, 1.431, 0.3125, 1.431, -1.2963867, 1.431, 0.1328125, , , , , , , , , , , , , , , , , , , , , , 
0.0555577, 0.0112459, 1.4445, -0.2109375, 1.4445, -1.3964844, 1.4445, 0.2504883, 0.0555577, -0.0075532, 1.4445, 0.4594727, 1.4445, -1.331543, 1.4445, -0.2211914, 0.0555577, -0.0025177, 1.4445, 0.3378906, 1.4445, -1.2939453, 1.4445, -0.3720703, 0.0555577, 0.0135958, 1.4445, 0.2998047, 1.4445, -1.3100586, 1.4445, 0.1674805, , , , , , , , , , , , , , , , , , , , , , 
0.0560769, 0.0125887, 1.458, -0.2172852, 1.458, -1.3920898, 1.458, 0.1782227, 0.0560769, -0.0065461, 1.458, 0.3969727, 1.458, -1.3535156, 1.458, -0.2817383, 0.0560769, -0.002182, 1.458, 0.293457, 1.458, -1.2827148, 1.458, -0.4082031, 0.0560769, 0.0115816, 1.458, 0.340332, 1.458, -1.3022461, 1.458, 0.1831055, , , , , , , , , , , , , , , , , , , , , , 
0.0565962, 0.0087282, 1.4715, -0.2055664, 1.4715, -1.3823242, 1.4715, 0.2021484, 0.0565962, -0.0075532, 1.4715, 0.3481445, 1.4715, -1.3334961, 1.4715, -0.2734375, 0.0565962, -0.0057069, 1.4715, 0.3271484, 1.4715, -1.2397461, 1.4715, -0.4404297, 0.0565962, 0.0092317, 1.4715, 0.3666992, 1.4715, -1.2973633, 1.4715, 0.1904297, , , , , , , , , , , , , , , , , , , , , , 
0.0571154, 0.0008392, 1.485, -0.2519531, 1.485, -1.3574219, 1.485, 0.2104492, 0.0571154, -0.0075532, 1.485, 0.3359375, 1.485, -1.3139648, 1.485, -0.2290039, 0.0571154, -0.0085603, 1.485, 0.4033203, 1.485, -1.2548828, 1.485, -0.4350586, 0.0571154, 0.0052033, 1.485, 0.4003906, 1.485, -1.3085938, 1.485, 0.190918, , , , , , , , , , , , , , , , , , , , , , 
0.0576346, -0.0035248, 1.4985, -0.3208008, 1.4985, -1.3730469, 1.4985, 0.1933594, 0.0576346, -0.0070497, 1.4985, 0.3452148, 1.4985, -1.315918, 1.4985, -0.2148438, 0.0576346, -0.0087282, 1.4985, 0.4262695, 1.4985, -1.3486328, 1.4985, -0.4145508, 0.0576346, 0.0023499, 1.4985, 0.425293, 1.4985, -1.3540039, 1.4985, 0.1772461, , , , , , , , , , , , , , , , , , , , , , 
0.0581538, -0.0048676, 1.512, -0.2836914, 1.512, -1.4477539, 1.512, 0.1586914, 0.0581538, -0.0078889, 1.512, 0.3793945, 1.512, -1.359375, 1.512, -0.2514648, 0.0581538, -0.0077211, 1.512, 0.4047852, 1.512, -1.3886719, 1.512, -0.4018555, 0.0581538, 0.0035248, 1.512, 0.4296875, 1.512, -1.3881836, 1.512, 0.1577148, , , , , , , , , , , , , , , , , , , , , , 
0.0586731, -0.0028534, 1.5255, -0.1787109, 1.5255, -1.5141602, 1.5255, 0.1796875, 0.0586731, -0.0068818, 1.5255, 0.4121094, 1.5255, -1.4257812, 1.5255, -0.2255859, 0.0586731, -0.0092317, 1.5255, 0.3413086, 1.5255, -1.3852539, 1.5255, -0.4155273, 0.0586731, 0.0038605, 1.5255, 0.4492188, 1.5255, -1.3623047, 1.5255, 0.1489258, , , , , , , , , , , , , , , , , , , , , , 
0.0591923, -0.0031891, 1.539, -0.112793, 1.539, -1.5224609, 1.539, 0.2060547, 0.0591923, -0.0052033, 1.539, 0.4560547, 1.539, -1.4677734, 1.539, -0.1689453, 0.0591923, -0.0095674, 1.539, 0.3554688, 1.539, -1.296875, 1.539, -0.4575195, 0.0591923, 0.0031891, 1.539, 0.4677734, 1.539, -1.309082, 1.539, 0.1523438, , , , , , , , , , , , , , , , , , , , , , 
0.0597115, -0.0062104, 1.5525, -0.1342773, 1.5525, -1.515625, 1.5525, 0.2407227, 0.0597115, -0.0065461, 1.5525, 0.4824219, 1.5525, -1.4755859, 1.5525, -0.1484375, 0.0597115, -0.008896, 1.5525, 0.4399414, 1.5525, -1.2763672, 1.5525, -0.4335938, 0.0597115, 0.0038605, 1.5525, 0.4677734, 1.5525, -1.3178711, 1.5525, 0.1899414, , , , , , , , , , , , , , , , , , , , , , 
0.0602308, -0.0038605, 1.566, -0.2006836, 1.566, -1.4995117, 1.566, 0.2421875, 0.0602308, -0.0062104, 1.566, 0.5205078, 1.566, -1.4814453, 1.566, -0.1616211, 0.0602308, -0.0099031, 1.566, 0.5136719, 1.566, -1.3041992, 1.566, -0.4282227, 0.0602308, 0.0038605, 1.566, 0.4458008, 1.566, -1.3603516, 1.566, 0.2456055, , , , , , , , , , , , , , , , , , , , , , 
0.06075, -0.0001678, 1.5795, -0.2128906, 1.5795, -1.4355469, 1.5795, 0.2075195, 0.06075, -0.0058747, 1.5795, 0.5107422, 1.5795, -1.4526367, 1.5795, -0.2167969, 0.06075, -0.0095674, 1.5795, 0.5375977, 1.5795, -1.2836914, 1.5795, -0.4384766, 0.06075, 0.0045319, 1.5795, 0.4233398, 1.5795, -1.3442383, 1.5795, 0.2612305, , , , , , , , , , , , , , , , , , , , , , 
0.0612692, 0.0028534, 1.593, -0.15625, 1.593, -1.3662109, 1.593, 0.2441406, 0.0612692, -0.0072175, 1.593, 0.5, 1.593, -1.3950195, 1.593, -0.1757812, 0.0612692, -0.0068818, 1.593, 0.5986328, 1.593, -1.2255859, 1.593, -0.3779297, 0.0612692, 0.005539, 1.593, 0.3964844, 1.593, -1.2788086, 1.593, 0.2641602, , , , , , , , , , , , , , , , , , , , , , 
0.0617885, 0.0068818, 1.6065, -0.1904297, 1.6065, -1.2885742, 1.6065, 0.2407227, 0.0617885, -0.0082246, 1.6065, 0.4853516, 1.6065, -1.3061523, 1.6065, -0.1313477, 0.0617885, -0.0052033, 1.6065, 0.5805664, 1.6065, -1.2109375, 1.6065, -0.3037109, 0.0617885, 0.0085603, 1.6065, 0.3720703, 1.6065, -1.2260742, 1.6065, 0.2802734, , , , , , , , , , , , , , , , , , , , , , 
0.0623077, 0.0065461, 1.62, -0.3164062, 1.62, -1.2929688, 1.62, 0.1459961, 0.0623077, -0.0083925, 1.62, 0.4213867, 1.62, -1.324707, 1.62, -0.0541992, 0.0623077, -0.0048676, 1.62, 0.4804688, 1.62, -1.2226562, 1.62, -0.4106445, 0.0623077, 0.0132601, 1.62, 0.3745117, 1.62, -1.2207031, 1.62, 0.3012695, , , , , , , , , , , , , , , , , , , , , , 
0.0628269, 0.0072175, 1.6335, -0.4414062, 1.6335, -1.4082031, 1.6335, 0.1665039, 0.0628269, -0.0075532, 1.6335, 0.4213867, 1.6335, -1.4511719, 1.6335, -0.0458984, 0.0628269, -0.0048676, 1.6335, 0.3896484, 1.6335, -1.2275391, 1.6335, -0.5268555, 0.0628269, 0.0184634, 1.6335, 0.4301758, 1.6335, -1.2675781, 1.6335, 0.2958984, , , , , , , , , , , , , , , , , , , , , , 
0.0633462, 0.0129244, 1.647, -0.3891602, 1.647, -1.4404297, 1.647, 0.2280273, 0.0633462, -0.008896, 1.647, 0.5239258, 1.647, -1.2495117, 1.647, -0.3798828, 0.0633462, -0.005539, 1.647, 0.3354492, 1.647, -1.2167969, 1.647, -0.5366211, 0.0633462, 0.0206455, 1.647, 0.5009766, 1.647, -1.2880859, 1.647, 0.25, , , , , , , , , , , , , , , , , , , , , , 
0.0638654, 0.0169528, 1.6605, 0.1015625, 1.6605, -1.3779297, 1.6605, 0.3774414, 0.0638654, -0.012253, 1.6605, 0.5678711, 1.6605, -1.0234375, 1.6605, -0.7109375, 0.0638654, -0.0041962, 1.6605, 0.2382812, 1.6605, -1.2558594, 1.6605, -0.4516602, 0.0638654, 0.0206455, 1.6605, 0.3876953, 1.6605, -1.3232422, 1.6605, 0.1777344, , , , , , , , , , , , , , , , , , , , , , 
0.0643846, 0.0213169, 1.674, 0.4243164, 1.674, -1.2026367, 1.674, 0.5322266, 0.0643846, -0.012253, 1.674, 0.4345703, 1.674, -0.9521484, 1.674, -0.8012695, 0.0643846, -0.0025177, 1.674, 0.3227539, 1.674, -1.3051758, 1.674, -0.2250977, 0.0643846, 0.0229953, 1.674, 0.2348633, 1.674, -1.3193359, 1.674, 0.21875, , , , , , , , , , , , , , , , , , , , , , 
0.0649038, 0.0276951, 1.6875, -0.1572266, 1.6875, -0.9667969, 1.6875, 0.4570312, 0.0649038, -0.0105745, 1.6875, 0.2407227, 1.6875, -0.9931641, 1.6875, -0.4941406, 0.0649038, -0.003357, 1.6875, 0.7431641, 1.6875, -1.2485352, 1.6875, -0.0761719, 0.0649038, 0.023331, 1.6875, 0.2114258, 1.6875, -1.1879883, 1.6875, 0.3286133, , , , , , , , , , , , , , , , , , , , , , 
0.0654231, 0.0307164, 1.701, -0.9580078, 1.701, -0.8393555, 1.701, 0.0610352, 0.0654231, -0.012253, 1.701, -0.2514648, 1.701, -1.0107422, 1.701, 0.4121094, 0.0654231, -0.0043641, 1.701, 1.1831055, 1.701, -1.1469727, 1.701, -0.3173828, 0.0654231, 0.0238346, 1.701, 0.3520508, 1.701, -1.0942383, 1.701, 0.4350586, , , , , , , , , , , , , , , , , , , , , , 
0.0659423, 0.0250095, 1.7145, -1.168457, 1.7145, -0.96875, 1.7145, -0.0151367, 0.0659423, -0.0135958, 1.7145, 0.7856445, 1.7145, -1.2353516, 1.7145, 0.0952148, 0.0659423, -0.0045319, 1.7145, 0.8867188, 1.7145, -1.1181641, 1.7145, -0.8515625, 0.0659423, 0.0256809, 1.7145, 0.6557617, 1.7145, -1.1538086, 1.7145, 0.4423828, , , , , , , , , , , , , , , , , , , , , , 
0.0664615, 0.0179599, 1.728, -0.8520508, 1.728, -1.2006836, 1.728, 0.4194336, 0.0664615, -0.0142672, 1.728, 1.5898438, 1.728, -1.2084961, 1.728, -0.3168945, 0.0664615, -0.0041962, 1.728, 0.168457, 1.728, -1.1362305, 1.728, -0.1640625, 0.0664615, 0.0258488, 1.728, 0.6791992, 1.728, -1.1621094, 1.728, 0.2670898, , , , , , , , , , , , , , , , , , , , , , 
0.0669808, 0.0159457, 1.7415, 0.0146484, 1.7415, -0.7490234, 1.7415, 0.2851562, 0.0669808, -0.0149386, 1.7415, 0.6650391, 1.7415, -0.5771484, 1.7415, 0.171875, 0.0669808, -0.0048676, 1.7415, -0.0673828, 1.7415, -1.2412109, 1.7415, 0.2226562, 0.0669808, 0.0246738, 1.7415, 0.003418, 1.7415, -1.0839844, 1.7415, 0.03125, , , , , , , , , , , , , , , , , , , , , , 
0.0675, 0.0209812, 1.755, -0.1103516, 1.755, -0.5292969, 1.755, 0.1201172, 0.0675, -0.0140993, 1.755, 0.2617188, 1.755, -0.1381836, 1.755, -0.0136719, 0.0675, -0.0062104, 1.755, 0.065918, 1.755, -1.0712891, 1.755, -0.1171875, 0.0675, 0.0213169, 1.755, -0.6870117, 1.755, -0.9492188, 1.755, -0.1079102, , , , , , , , , , , , , , , , , , , , , , 
0.0680192, 0.0263523, 1.7685, -0.6264648, 1.7685, -0.753418, 1.7685, 0.1416016, 0.0680192, -0.0135958, 1.7685, 0.1660156, 1.7685, -0.5893555, 1.7685, 0.1430664, 0.0680192, -0.0070497, 1.7685, 0.1000977, 1.7685, -0.8833008, 1.7685, -0.2216797, 0.0680192, 0.0166171, 1.7685, -0.6748047, 1.7685, -0.9121094, 1.7685, -0.0546875, , , , , , , , , , , , , , , , , , , , , , 
0.0685385, 0.0253452, 1.782, -0.9975586, 1.782, -1.1098633, 1.782, 0.1362305, 0.0685385, -0.0142672, 1.782, 0.6625977, 1.782, -1.2651367, 1.782, 0.0073242, 0.0685385, -0.0072175, 1.782, -0.0170898, 1.782, -0.6557617, 1.782, -0.3671875, 0.0685385, 0.0137636, 1.782, -0.0239258, 1.782, -0.8671875, 1.782, 0.2651367, , , , , , , , , , , , , , , , , , , , , , 
0.0690577, 0.0206455, 1.7955, -0.5009766, 1.7955, -1.0805664, 1.7955, 0.1142578, 0.0690577, -0.0142672, 1.7955, 0.6157227, 1.7955, -1.3637695, 1.7955, -0.2548828, 0.0690577, -0.0078889, 1.7955, 0.0737305, 1.7955, -0.8100586, 1.7955, -0.4638672, 0.0690577, 0.0146029, 1.7955, 0.3779297, 1.7955, -0.7651367, 1.7955, 0.2299805, , , , , , , , , , , , , , , , , , , , , , 
0.0695769, 0.0186313, 1.809, 0.2612305, 1.809, -1.0878906, 1.809, 0.1030273, 0.0695769, -0.0129244, 1.809, 0.4306641, 1.809, -1.1738281, 1.809, -0.4057617, 0.0695769, -0.0097353, 1.809, 0.4658203, 1.809, -1.0107422, 1.809, -0.4331055, 0.0695769, 0.0132601, 1.809, 0.5791016, 1.809, -0.9150391, 1.809, 0.059082, , , , , , , , , , , , , , , , , , , , , , 
0.0700962, 0.0172885, 1.8225, 0.5249023, 1.8225, -1.2719727, 1.8225, 0.3261719, 0.0700962, -0.0105745, 1.8225, -0.0097656, 1.8225, -0.8666992, 1.8225, -0.3261719, 0.0700962, -0.012253, 1.8225, 0.7680664, 1.8225, -1.015625, 1.8225, -0.4428711, 0.0700962, 0.0092317, 1.8225, 0.8095703, 1.8225, -1.1835938, 1.8225, 0.0371094, , , , , , , , , , , , , , , , , , , , , , 
0.0706154, 0.0119173, 1.836, -0.0952148, 1.836, -1.1503906, 1.836, 0.3164062, 0.0706154, -0.0085603, 1.836, 0.1728516, 1.836, -0.9897461, 1.836, -0.1459961, 0.0706154, -0.0109102, 1.836, 0.6293945, 1.836, -0.8710938, 1.836, -0.3623047, 0.0706154, 0.0102388, 1.836, 0.699707, 1.836, -1.0737305, 1.836, 0.1967773, , , , , , , , , , , , , , , , , , , , , , 
0.0711346, 0.008896, 1.8495, -0.7416992, 1.8495, -0.840332, 1.8495, 0.0390625, 0.0711346, -0.0075532, 1.8495, 0.6308594, 1.8495, -1.1040039, 1.8495, -0.1035156, 0.0711346, -0.0068818, 1.8495, 0.4506836, 1.8495, -0.9384766, 1.8495, -0.3193359, 0.0711346, 0.012253, 1.8495, 0.4038086, 1.8495, -0.7939453, 1.8495, 0.2954102, , , , , , , , , , , , , , , , , , , , , , 
0.0716538, 0.0112459, 1.863, -0.6601562, 1.863, -0.8466797, 1.863, 0.1694336, 0.0716538, -0.0062104, 1.863, 0.6831055, 1.863, -0.8925781, 1.863, -0.1132812, 0.0716538, -0.0038605, 1.863, 0.2871094, 1.863, -1.0239258, 1.863, -0.2275391, 0.0716538, 0.0132601, 1.863, 0.137207, 1.863, -0.8369141, 1.863, 0.2871094, , , , , , , , , , , , , , , , , , , , , , 
0.0721731, 0.0139315, 1.8765, -0.1674805, 1.8765, -0.9677734, 1.8765, 0.2211914, 0.0721731, -0.0068818, 1.8765, 0.4179688, 1.8765, -0.7739258, 1.8765, -0.0952148, 0.0721731, -0.005539, 1.8765, 0.1889648, 1.8765, -0.9619141, 1.8765, -0.2055664, 0.0721731, 0.0115816, 1.8765, -0.0717773, 1.8765, -1.078125, 1.8765, 0.2436523, , , , , , , , , , , , , , , , , , , , , , 
0.0726923, 0.0151064, 1.89, -0.0786133, 1.89, -0.9555664, 1.89, 0.2260742, 0.0726923, -0.0068818, 1.89, 0.3793945, 1.89, -0.8208008, 1.89, -0.0273438, 0.0726923, -0.0072175, 1.89, 0.1767578, 1.89, -0.9135742, 1.89, -0.1699219, 0.0726923, 0.008896, 1.89, -0.1147461, 1.89, -1.1098633, 1.89, 0.1337891, , , , , , , , , , , , , , , , , , , , , , 
0.0732115, 0.0159457, 1.9035, -0.3139648, 1.9035, -0.9042969, 1.9035, 0.1894531, 0.0732115, -0.0070497, 1.9035, 0.6186523, 1.9035, -0.9067383, 1.9035, 0.0019531, 0.0732115, -0.0095674, 1.9035, 0.2045898, 1.9035, -0.918457, 1.9035, -0.1879883, 0.0732115, 0.008896, 1.9035, 0.0366211, 1.9035, -0.949707, 1.9035, 0.0615234, , , , , , , , , , , , , , , , , , , , , , 
0.0737308, 0.0140993, 1.917, -0.534668, 1.917, -0.9262695, 1.917, 0.1459961, 0.0737308, -0.0075532, 1.917, 0.6274414, 1.917, -0.8852539, 1.917, -0.0297852, 0.0737308, -0.0112459, 1.917, 0.2485352, 1.917, -0.9926758, 1.917, -0.1669922, 0.0737308, 0.0099031, 1.917, 0.1416016, 1.917, -0.8979492, 1.917, 0.046875, , , , , , , , , , , , , , , , , , , , , , 
0.07425, 0.0097353, 1.9305, -0.4155273, 1.9305, -0.8842773, 1.9305, 0.1435547, 0.07425, -0.0072175, 1.9305, 0.5371094, 1.9305, -0.8383789, 1.9305, -0.0268555, 0.07425, -0.0109102, 1.9305, 0.3212891, 1.9305, -1.0131836, 1.9305, -0.1293945, 0.07425, 0.0092317, 1.9305, 0.284668, 1.9305, -0.9072266, 1.9305, 0.0375977, , , , , , , , , , , , , , , , , , , , , , 
0.0747692, 0.0099031, 1.944, -0.3208008, 1.944, -0.9306641, 1.944, 0.1533203, 0.0747692, -0.005539, 1.944, 0.3735352, 1.944, -0.8120117, 1.944, -0.0092773, 0.0747692, -0.008896, 1.944, 0.4130859, 1.944, -1.0083008, 1.944, -0.2260742, 0.0747692, 0.0105745, 1.944, 0.3149414, 1.944, -0.9995117, 1.944, 0.0488281, , , , , , , , , , , , , , , , , , , , , , 
0.0752885, 0.0169528, 1.9575, -0.3974609, 1.9575, -1.0673828, 1.9575, 0.1206055, 0.0752885, -0.0035248, 1.9575, 0.4648438, 1.9575, -0.9931641, 1.9575, -0.0219727, 0.0752885, -0.0068818, 1.9575, 0.434082, 1.9575, -1.0258789, 1.9575, -0.2768555, 0.0752885, 0.0125887, 1.9575, 0.3598633, 1.9575, -1.0776367, 1.9575, 0.0834961, , , , , , , , , , , , , , , , , , , , , , 
0.0758077, 0.0166171, 1.971, -0.2836914, 1.971, -1.1557617, 1.971, 0.1796875, 0.0758077, -0.002182, 1.971, 0.59375, 1.971, -1.1113281, 1.971, -0.0688477, 0.0758077, -0.005539, 1.971, 0.3266602, 1.971, -1.090332, 1.971, -0.234375, 0.0758077, 0.0129244, 1.971, 0.3413086, 1.971, -1.0541992, 1.971, 0.0429688, , , , , , , , , , , , , , , , , , , , , , 
0.0763269, 0.0092317, 1.9845, -0.2875977, 1.9845, -1.1772461, 1.9845, 0.2480469, 0.0763269, -0.0035248, 1.9845, 0.5820312, 1.9845, -1.0810547, 1.9845, -0.0727539, 0.0763269, -0.0062104, 1.9845, 0.2617188, 1.9845, -1.1040039, 1.9845, -0.2519531, 0.0763269, 0.0125887, 1.9845, 0.2866211, 1.9845, -1.1049805, 1.9845, 0.0600586, , , , , , , , , , , , , , , , , , , , , , 
0.0768462, 0.0035248, 1.998, -0.3183594, 1.998, -1.0678711, 1.998, 0.3041992, 0.0768462, -0.0072175, 1.998, 0.5541992, 1.998, -1.0073242, 1.998, -0.1567383, 0.0768462, -0.0090639, 1.998, 0.4350586, 1.998, -1.1152344, 1.998, -0.137207, 0.0768462, 0.0119173, 1.998, 0.1923828, 1.998, -1.1811523, 1.998, 0.0820312, , , , , , , , , , , , , , , , , , , , , , 
0.0773654, 0.0008392, 2.0115, -0.3642578, 2.0115, -0.9511719, 2.0115, 0.3657227, 0.0773654, -0.0085603, 2.0115, 0.4853516, 2.0115, -0.875, 2.0115, -0.1811523, 0.0773654, -0.0115816, 2.0115, 0.5209961, 2.0115, -1.0644531, 2.0115, -0.1142578, 0.0773654, 0.0095674, 2.0115, 0.109375, 2.0115, -1.1655273, 2.0115, 0.1601562, , , , , , , , , , , , , , , , , , , , , , 
0.0778846, 0.0008392, 2.025, -0.6103516, 2.025, -1.0366211, 2.025, 0.2543945, 0.0778846, -0.008896, 2.025, 0.5478516, 2.025, -0.9658203, 2.025, -0.2460938, 0.0778846, -0.0099031, 2.025, 0.4550781, 2.025, -1, 2.025, -0.2895508, 0.0778846, 0.0058747, 2.025, 0.0444336, 2.025, -1.121582, 2.025, 0.3876953, , , , , , , , , , , , , , , , , , , , , , 
0.0784038, 0.0018463, 2.0385, -0.4667969, 2.0385, -1.2822266, 2.0385, 0.3789062, 0.0784038, -0.0085603, 2.0385, 0.5048828, 2.0385, -1.2568359, 2.0385, -0.3637695, 0.0784038, -0.0072175, 2.0385, 0.4614258, 2.0385, -1.0107422, 2.0385, -0.3120117, 0.0784038, 0.0062104, 2.0385, 0.0791016, 2.0385, -1.1479492, 2.0385, 0.5039062, , , , , , , , , , , , , , , , , , , , , , 
0.0789231, -0.0011749, 2.052, -0.0673828, 2.052, -1.269043, 2.052, 0.3188477, 0.0789231, -0.0078889, 2.052, 0.472168, 2.052, -1.2978516, 2.052, -0.2705078, 0.0789231, -0.008896, 2.052, 0.5185547, 2.052, -1.0874023, 2.052, -0.3500977, 0.0789231, 0.0085603, 2.052, 0.1855469, 2.052, -1.2236328, 2.052, 0.4375, , , , , , , , , , , , , , , , , , , , , , 
0.0794423, -0.002182, 2.0655, -0.1000977, 2.0655, -1.25, 2.0655, 0.1987305, 0.0794423, -0.0075532, 2.0655, 0.4091797, 2.0655, -1.2768555, 2.0655, -0.1557617, 0.0794423, -0.011078, 2.0655, 0.4916992, 2.0655, -1.1357422, 2.0655, -0.3891602, 0.0794423, 0.0102388, 2.0655, 0.2163086, 2.0655, -1.2807617, 2.0655, 0.4106445, , , , , , , , , , , , , , , , , , , , , , 
0.0799615, 0.0001678, 2.079, -0.4199219, 2.079, -1.3300781, 2.079, 0.1347656, 0.0799615, -0.0083925, 2.079, 0.4477539, 2.079, -1.3286133, 2.079, -0.0957031, 0.0799615, -0.0102388, 2.079, 0.4487305, 2.079, -1.2089844, 2.079, -0.3188477, 0.0799615, 0.012253, 2.079, 0.2548828, 2.079, -1.3300781, 2.079, 0.3037109, , , , , , , , , , , , , , , , , , , , , , 
0.0804808, 0.0031891, 2.0925, -0.4355469, 2.0925, -1.1616211, 2.0925, 0.1928711, 0.0804808, -0.0085603, 2.0925, 0.5112305, 2.0925, -1.1972656, 2.0925, -0.0107422, 0.0804808, -0.0078889, 2.0925, 0.3413086, 2.0925, -1.2211914, 2.0925, -0.1948242, 0.0804808, 0.0152743, 2.0925, 0.2563477, 2.0925, -1.2651367, 2.0925, 0.1728516, , , , , , , , , , , , , , , , , , , , , , 
0.081, 0.002182, 2.106, -0.4560547, 2.106, -1.0942383, 2.106, 0.0869141, 0.081, -0.0065461, 2.106, 0.6142578, 2.106, -1.0151367, 2.106, 0.019043, 0.081, -0.0075532, 2.106, 0.3540039, 2.106, -1.175293, 2.106, -0.2651367, 0.081, 0.0179599, 2.106, 0.1635742, 2.106, -1.1835938, 2.106, 0.15625, , , , , , , , , , , , , , , , , , , , , , 
0.0815192, -0.0001678, 2.1195, -0.4907227, 2.1195, -1.2578125, 2.1195, 0.0639648, 0.0815192, -0.005539, 2.1195, 0.5986328, 2.1195, -1.1865234, 2.1195, 0.0317383, 0.0815192, -0.0065461, 2.1195, 0.3857422, 2.1195, -1.2421875, 2.1195, -0.2895508, 0.0815192, 0.0186313, 2.1195, 0.2070312, 2.1195, -1.2250977, 2.1195, 0.1791992, , , , , , , , , , , , , , , , , , , , , , 
0.0820385, 0.0045319, 2.133, -0.3725586, 2.133, -1.3535156, 2.133, 0.121582, 0.0820385, -0.0068818, 2.133, 0.4829102, 2.133, -1.3935547, 2.133, 0.0195312, 0.0820385, -0.003357, 2.133, 0.4018555, 2.133, -1.2387695, 2.133, -0.3100586, 0.0820385, 0.0193027, 2.133, 0.3413086, 2.133, -1.2836914, 2.133, 0.1259766, , , , , , , , , , , , , , , , , , , , , , 
0.0825577, 0.0099031, 2.1465, -0.3046875, 2.1465, -1.3408203, 2.1465, 0.2182617, 0.0825577, -0.0068818, 2.1465, 0.5561523, 2.1465, -1.2607422, 2.1465, -0.1264648, 0.0825577, -0.0035248, 2.1465, 0.4799805, 2.1465, -1.2426758, 2.1465, -0.2539062, 0.0825577, 0.0198062, 2.1465, 0.3935547, 2.1465, -1.3066406, 2.1465, 0.03125, , , , , , , , , , , , , , , , , , , , , , 
0.0830769, 0.0159457, 2.16, -0.4355469, 2.16, -1.2827148, 2.16, 0.3398438, 0.0830769, -0.0062104, 2.16, 0.7226562, 2.16, -1.078125, 2.16, -0.0883789, 0.0830769, -0.0041962, 2.16, 0.5185547, 2.16, -1.2441406, 2.16, -0.2617188, 0.0830769, 0.0219883, 2.16, 0.4179688, 2.16, -1.2709961, 2.16, 0.0463867, , , , , , , , , , , , , , , , , , , , , , 
0.0835962, 0.0213169, 2.1735, -0.5205078, 2.1735, -1.0766602, 2.1735, 0.2661133, 0.0835962, -0.0075532, 2.1735, 0.784668, 2.1735, -1.0834961, 2.1735, -0.1523438, 0.0835962, -0.0045319, 2.1735, 0.6098633, 2.1735, -1.2387695, 2.1735, -0.159668, 0.0835962, 0.0251774, 2.1735, 0.3359375, 2.1735, -1.2138672, 2.1735, 0.1782227, , , , , , , , , , , , , , , , , , , , , , 
0.0841154, 0.0236667, 2.187, -0.5258789, 2.187, -1.1801758, 2.187, 0.2104492, 0.0841154, -0.0082246, 2.187, 0.6972656, 2.187, -1.1362305, 2.187, -0.0703125, 0.0841154, -0.0048676, 2.187, 0.5073242, 2.187, -1.199707, 2.187, -0.2651367, 0.0841154, 0.0270237, 2.187, 0.1586914, 2.187, -1.2236328, 2.187, 0.2871094, , , , , , , , , , , , , , , , , , , , , , 
0.0846346, 0.0238346, 2.2005, -0.3657227, 2.2005, -1.2651367, 2.2005, 0.2788086, 0.0846346, -0.008896, 2.2005, 0.4970703, 2.2005, -1.1054688, 2.2005, 0.0195312, 0.0846346, -0.0048676, 2.2005, 0.3569336, 2.2005, -1.199707, 2.2005, -0.2412109, 0.0846346, 0.0273594, 2.2005, 0.0258789, 2.2005, -1.2700195, 2.2005, 0.2988281, , , , , , , , , , , , , , , , , , , , , , 
0.0851538, 0.0240024, 2.214, -0.425293, 2.214, -1.0073242, 2.214, 0.1113281, 0.0851538, -0.0083925, 2.214, 0.5185547, 2.214, -1.0605469, 2.214, -0.0219727, 0.0851538, -0.0028534, 2.214, 0.2758789, 2.214, -1.1826172, 2.214, -0.1835938, 0.0851538, 0.0280308, 2.214, -0.0224609, 2.214, -1.2446289, 2.214, 0.2324219, , , , , , , , , , , , , , , , , , , , , , 
0.0856731, 0.0273594, 2.2275, -0.527832, 2.2275, -0.9624023, 2.2275, 0.1157227, 0.0856731, -0.0068818, 2.2275, 0.5302734, 2.2275, -0.9780273, 2.2275, 0.0185547, 0.0856731, -0.0031891, 2.2275, 0.2460938, 2.2275, -1.1391602, 2.2275, -0.1748047, 0.0856731, 0.030045, 2.2275, -0.0268555, 2.2275, -1.2055664, 2.2275, 0.2055664, , , , , , , , , , , , , , , , , , , , , , 
0.0861923, 0.0297093, 2.241, -0.6352539, 2.241, -1.1064453, 2.241, 0.1176758, 0.0861923, -0.0082246, 2.241, 0.503418, 2.241, -1.0673828, 2.241, -0.0053711, 0.0861923, -0.0048676, 2.241, 0.3051758, 2.241, -1.0991211, 2.241, -0.2617188, 0.0861923, 0.0293736, 2.241, 0.0488281, 2.241, -1.1508789, 2.241, 0.1625977, , , , , , , , , , , , , , , , , , , , , , 
0.0867115, 0.0310521, 2.2545, -0.4311523, 2.2545, -1.2285156, 2.2545, 0.2192383, 0.0867115, -0.0099031, 2.2545, 0.4287109, 2.2545, -1.1791992, 2.2545, -0.0712891, 0.0867115, -0.0048676, 2.2545, 0.375, 2.2545, -1.1118164, 2.2545, -0.3110352, 0.0867115, 0.0258488, 2.2545, 0.2246094, 2.2545, -1.1313477, 2.2545, 0.1503906, , , , , , , , , , , , , , , , , , , , , , 
0.0872308, 0.0287022, 2.268, -0.2670898, 2.268, -1.1567383, 2.268, 0.2143555, 0.0872308, -0.0095674, 2.268, 0.4589844, 2.268, -1.0527344, 2.268, -0.003418, 0.0872308, -0.0041962, 2.268, 0.4106445, 2.268, -1.15625, 2.268, -0.2495117, 0.0872308, 0.021149, 2.268, 0.3696289, 2.268, -1.1318359, 2.268, 0.1259766, , , , , , , , , , , , , , , , , , , , , , 
0.08775, 0.0260166, 2.2815, -0.5048828, 2.2815, -0.9741211, 2.2815, 0.2314453, 0.08775, -0.0083925, 2.2815, 0.7124023, 2.2815, -0.8969727, 2.2815, 0.0712891, 0.08775, -0.0041962, 2.2815, 0.4433594, 2.2815, -1.1582031, 2.2815, -0.0732422, 0.08775, 0.0157778, 2.2815, 0.3227539, 2.2815, -1.1147461, 2.2815, 0.09375, , , , , , , , , , , , , , , , , , , , , , 
0.0882692, 0.026688, 2.295, -0.6669922, 2.295, -0.7231445, 2.295, 0.1074219, 0.0882692, -0.0083925, 2.295, 0.7675781, 2.295, -0.7988281, 2.295, 0.0908203, 0.0882692, -0.0041962, 2.295, 0.480957, 2.295, -1.1401367, 2.295, -0.0737305, 0.0882692, 0.0109102, 2.295, 0.1660156, 2.295, -1.0927734, 2.295, 0.1044922, , , , , , , , , , , , , , , , , , , , , , 
0.0887885, 0.027863, 2.3085, -0.6611328, 2.3085, -0.9057617, 2.3085, 0.0415039, 0.0887885, -0.0075532, 2.3085, 0.7099609, 2.3085, -0.8295898, 2.3085, 0.0336914, 0.0887885, -0.0041962, 2.3085, 0.3999023, 2.3085, -1.0522461, 2.3085, -0.2104492, 0.0887885, 0.0078889, 2.3085, 0.0429688, 2.3085, -1.0942383, 2.3085, 0.2133789, , , , , , , , , , , , , , , , , , , , , , 
0.0893077, 0.0213169, 2.322, -0.2973633, 2.322, -1.4257812, 2.322, 0.1630859, 0.0893077, -0.0062104, 2.322, 0.4663086, 2.322, -1.1645508, 2.322, -0.0644531, 0.0893077, -0.0068818, 2.322, 0.28125, 2.322, -0.9902344, 2.322, -0.4399414, 0.0893077, 0.0065461, 2.322, 0.1396484, 2.322, -1.1499023, 2.322, 0.2651367, , , , , , , , , , , , , , , , , , , , , , 
0.0898269, 0.017792, 2.3355, 0.0004883, 2.3355, -1.5639648, 2.3355, 0.2314453, 0.0898269, -0.0068818, 2.3355, 0.3369141, 2.3355, -1.425293, 2.3355, 0.0336914, 0.0898269, -0.0109102, 2.3355, 0.2587891, 2.3355, -1.0766602, 2.3355, -0.3935547, 0.0898269, 0.0058747, 2.3355, 0.3671875, 2.3355, -1.15625, 2.3355, 0.121582, , , , , , , , , , , , , , , , , , , , , , 
0.0903462, 0.0199741, 2.349, -0.3334961, 2.349, -1.1640625, 2.349, 0.2670898, 0.0903462, -0.0082246, 2.349, 0.5942383, 2.349, -1.2036133, 2.349, 0.0576172, 0.0903462, -0.0119173, 2.349, 0.3623047, 2.349, -1.2104492, 2.349, -0.2470703, 0.0903462, 0.0058747, 2.349, 0.4077148, 2.349, -1.1557617, 2.349, 0.0288086, , , , , , , , , , , , , , , , , , , , , , 
0.0908654, 0.0191348, 2.3625, -0.8662109, 2.3625, -0.8730469, 2.3625, 0.3208008, 0.0908654, -0.008896, 2.3625, 0.8588867, 2.3625, -0.8686523, 2.3625, -0.0834961, 0.0908654, -0.0102388, 2.3625, 0.4482422, 2.3625, -1.2709961, 2.3625, -0.2285156, 0.0908654, 0.0075532, 2.3625, 0.2929688, 2.3625, -1.2304688, 2.3625, 0.1450195, , , , , , , , , , , , , , , , , , , , , , 
0.0913846, 0.0166171, 2.376, -0.8515625, 2.376, -1.0424805, 2.376, 0.3129883, 0.0913846, -0.0097353, 2.376, 0.7822266, 2.376, -0.9697266, 2.376, -0.222168, 0.0913846, -0.0095674, 2.376, 0.6479492, 2.376, -1.1928711, 2.376, -0.28125, 0.0913846, 0.0099031, 2.376, 0.2553711, 2.376, -1.2802734, 2.376, 0.2558594, , , , , , , , , , , , , , , , , , , , , , 
0.0919038, 0.0129244, 2.3895, -0.5898438, 2.3895, -1.2275391, 2.3895, 0.3344727, 0.0919038, -0.0102388, 2.3895, 0.4516602, 2.3895, -1.3544922, 2.3895, -0.1411133, 0.0919038, -0.0102388, 2.3895, 0.7402344, 2.3895, -1.0791016, 2.3895, -0.3149414, 0.0919038, 0.0097353, 2.3895, 0.253418, 2.3895, -1.3398438, 2.3895, 0.4057617, , , , , , , , , , , , , , , , , , , , , , 
0.0924231, 0.0119173, 2.403, -0.0986328, 2.403, -1.3520508, 2.403, 0.315918, 0.0924231, -0.0070497, 2.403, 0.3671875, 2.403, -1.3334961, 2.403, 0.0068359, 0.0924231, -0.0099031, 2.403, 0.5380859, 2.403, -1.0429688, 2.403, -0.2666016, 0.0924231, 0.0083925, 2.403, 0.2392578, 2.403, -1.2583008, 2.403, 0.4204102, , , , , , , , , , , , , , , , , , , , , , 
0.0929423, 0.0119173, 2.4165, -0.2871094, 2.4165, -1.1889648, 2.4165, 0.2104492, 0.0929423, -0.0045319, 2.4165, 0.7006836, 2.4165, -0.9951172, 2.4165, 0.112793, 0.0929423, -0.0070497, 2.4165, 0.3085938, 2.4165, -1.1162109, 2.4165, -0.3603516, 0.0929423, 0.0092317, 2.4165, 0.0585938, 2.4165, -1.1328125, 2.4165, 0.3808594, , , , , , , , , , , , , , , , , , , , , , 
0.0934615, 0.012253, 2.43, -0.6811523, 2.43, -1.050293, 2.43, 0.0283203, 0.0934615, -0.0048676, 2.43, 0.8256836, 2.43, -0.9057617, 2.43, 0.1679688, 0.0934615, -0.0077211, 2.43, 0.2104492, 2.43, -1.168457, 2.43, -0.3955078, 0.0934615, 0.0099031, 2.43, -0.0195312, 2.43, -1.1123047, 2.43, 0.253418, , , , , , , , , , , , , , , , , , , , , , 
0.0939808, 0.0132601, 2.4435, -0.6953125, 2.4435, -1.0898438, 2.4435, -0.0068359, 0.0939808, -0.0045319, 2.4435, 0.6342773, 2.4435, -1.0087891, 2.4435, 0.1508789, 0.0939808, -0.0092317, 2.4435, 0.0932617, 2.4435, -1.1982422, 2.4435, -0.3862305, 0.0939808, 0.0085603, 2.4435, 0.152832, 2.4435, -1.1137695, 2.4435, 0.0961914, , , , , , , , , , , , , , , , , , , , , , 
0.0945, 0.0146029, 2.457, -0.4013672, 2.457, -1.1132812, 2.457, 0.0576172, 0.0945, -0.0063783, 2.457, 0.2900391, 2.457, -1.144043, 2.457, 0.1005859, 0.0945, -0.0092317, 2.457, 0.0947266, 2.457, -1.1333008, 2.457, -0.3427734, 0.0945, 0.0077211, 2.457, 0.3105469, 2.457, -1.0825195, 2.457, -0.0205078, , , , , , , , , , , , , , , , , , , , , , 
0.0950192, 0.0139315, 2.4705, -0.2543945, 2.4705, -1.0200195, 2.4705, 0.1601562, 0.0950192, -0.0083925, 2.4705, 0.2885742, 2.4705, -1.0083008, 2.4705, 0.1518555, 0.0950192, -0.0105745, 2.4705, 0.1835938, 2.4705, -1.0551758, 2.4705, -0.2519531, 0.0950192, 0.0078889, 2.4705, 0.3349609, 2.4705, -1.0576172, 2.4705, -0.0317383, , , , , , , , , , , , , , , , , , , , , , 
0.0955385, 0.0099031, 2.484, -0.5380859, 2.484, -0.9301758, 2.484, 0.1274414, 0.0955385, -0.0078889, 2.484, 0.6699219, 2.484, -0.8105469, 2.484, 0.1108398, 0.0955385, -0.0115816, 2.484, 0.2949219, 2.484, -1.0195312, 2.484, -0.296875, 0.0955385, 0.0070497, 2.484, 0.2700195, 2.484, -1.0180664, 2.484, 0.0820312, , , , , , , , , , , , , , , , , , , , , , 
0.0960577, 0.0052033, 2.4975, -0.6611328, 2.4975, -0.9912109, 2.4975, 0.1049805, 0.0960577, -0.0075532, 2.4975, 0.7421875, 2.4975, -0.9399414, 2.4975, 0.0361328, 0.0960577, -0.010071, 2.4975, 0.4458008, 2.4975, -1.0263672, 2.4975, -0.3706055, 0.0960577, 0.0011749, 2.4975, 0.3105469, 2.4975, -1.0126953, 2.4975, 0.1083984, , , , , , , , , , , , , , , , , , , , , , 
0.0965769, 0.0031891, 2.511, -0.5195312, 2.511, -1.0131836, 2.511, 0.2797852, 0.0965769, -0.0082246, 2.511, 0.4282227, 2.511, -1.0649414, 2.511, -0.0488281, 0.0965769, -0.0085603, 2.511, 0.4819336, 2.511, -0.9980469, 2.511, -0.3847656, 0.0965769, -0.0028534, 2.511, 0.5239258, 2.511, -1.0454102, 2.511, 0.0976562, , , , , , , , , , , , , , , , , , , , , , 
0.0970962, -0.0045319, 2.5245, -0.4116211, 2.5245, -0.9560547, 2.5245, 0.2299805, 0.0970962, -0.0068818, 2.5245, 0.2768555, 2.5245, -0.9482422, 2.5245, 0.0073242, 0.0970962, -0.0075532, 2.5245, 0.4023438, 2.5245, -0.9921875, 2.5245, -0.4462891, 0.0970962, -0.0052033, 2.5245, 0.6025391, 2.5245, -1.0703125, 2.5245, 0.1113281, , , , , , , , , , , , , , , , , , , , , , 
0.0976154, -0.012253, 2.538, -0.4321289, 2.538, -1.0478516, 2.538, 0.1337891, 0.0976154, -0.005539, 2.538, 0.5830078, 2.538, -0.9008789, 2.538, 0.0688477, 0.0976154, -0.0082246, 2.538, 0.3271484, 2.538, -1.0063477, 2.538, -0.4257812, 0.0976154, -0.0058747, 2.538, 0.5708008, 2.538, -1.1235352, 2.538, 0.1396484, , , , , , , , , , , , , , , , , , , , , , 
0.0981346, -0.012253, 2.5515, -0.4648438, 2.5515, -1.0771484, 2.5515, 0.0498047, 0.0981346, -0.005539, 2.5515, 0.6552734, 2.5515, -0.9575195, 2.5515, 0.0605469, 0.0981346, -0.0109102, 2.5515, 0.3398438, 2.5515, -1.0317383, 2.5515, -0.284668, 0.0981346, -0.0043641, 2.5515, 0.4111328, 2.5515, -1.0864258, 2.5515, 0.112793, , , , , , , , , , , , , , , , , , , , , , 
0.0986538, -0.0075532, 2.565, -0.4067383, 2.565, -0.9467773, 2.565, 0.0522461, 0.0986538, -0.0068818, 2.565, 0.5366211, 2.565, -0.9956055, 2.565, 0.2915039, 0.0986538, -0.0115816, 2.565, 0.3383789, 2.565, -1.0356445, 2.565, -0.3056641, 0.0986538, -0.0028534, 2.565, 0.2573242, 2.565, -0.9736328, 2.565, 0.0517578, , , , , , , , , , , , , , , , , , , , , , 
0.0991731, -0.003357, 2.5785, -0.5014648, 2.5785, -0.7924805, 2.5785, -0.0546875, 0.0991731, -0.0068818, 2.5785, 0.5205078, 2.5785, -0.8041992, 2.5785, 0.28125, 0.0991731, -0.0104067, 2.5785, 0.2509766, 2.5785, -1.0117188, 2.5785, -0.293457, 0.0991731, -0.0018463, 2.5785, 0.1577148, 2.5785, -0.8852539, 2.5785, 0.0317383, , , , , , , , , , , , , , , , , , , , , , 
0.0996923, 0.0011749, 2.592, -0.6240234, 2.592, -0.8266602, 2.592, 0.0683594, 0.0996923, -0.0048676, 2.592, 0.4672852, 2.592, -0.6904297, 2.592, 0.0732422, 0.0996923, -0.0102388, 2.592, 0.1621094, 2.592, -0.9726562, 2.592, -0.3476562, 0.0996923, -0.0016785, 2.592, 0.1674805, 2.592, -0.8891602, 2.592, 0.0551758, , , , , , , , , , , , , , , , , , , , , , 
0.1002115, 0.0023499, 2.6055, -0.5195312, 2.6055, -0.9370117, 2.6055, 0.0849609, 0.1002115, -0.0062104, 2.6055, 0.3491211, 2.6055, -0.7236328, 2.6055, 0.0375977, 0.1002115, -0.0099031, 2.6055, 0.0830078, 2.6055, -0.871582, 2.6055, -0.4140625, 0.1002115, -0.0008392, 2.6055, 0.2739258, 2.6055, -0.9008789, 2.6055, 0.0751953, , , , , , , , , , , , , , , , , , , , , , 
0.1007308, 0.0023499, 2.619, -0.3510742, 2.619, -0.8564453, 2.619, 0.0791016, 0.1007308, -0.0072175, 2.619, 0.2856445, 2.619, -0.8032227, 2.619, 0.1308594, 0.1007308, -0.0072175, 2.619, 0.1137695, 2.619, -0.8022461, 2.619, -0.2578125, 0.1007308, 0.0015106, 2.619, 0.3081055, 2.619, -0.8388672, 2.619, 0.0844727, , , , , , , , , , , , , , , , , , , , , , 
0.10125, 0.0028534, 2.6325, -0.3730469, 2.6325, -0.6342773, 2.6325, 0.0722656, 0.10125, -0.005539, 2.6325, 0.3950195, 2.6325, -0.7099609, 2.6325, 0.105957, 0.10125, -0.0062104, 2.6325, 0.2441406, 2.6325, -0.7954102, 2.6325, -0.2856445, 0.10125, 0.0052033, 2.6325, 0.1904297, 2.6325, -0.7485352, 2.6325, 0.1147461, , , , , , , , , , , , , , , , , , , , , , 
0.1017692, 0.0048676, 2.646, -0.4418945, 2.646, -0.5571289, 2.646, 0.0458984, 0.1017692, -0.0062104, 2.646, 0.4628906, 2.646, -0.5864258, 2.646, 0.0996094, 0.1017692, -0.0070497, 2.646, 0.2885742, 2.646, -0.777832, 2.646, -0.265625, 0.1017692, 0.008896, 2.646, 0.1069336, 2.646, -0.690918, 2.646, 0.1098633, , , , , , , , , , , , , , , , , , , , , , 
0.1022885, 0.0132601, 2.6595, -0.4663086, 2.6595, -0.7353516, 2.6595, 0.0166016, 0.1022885, -0.0083925, 2.6595, 0.3632812, 2.6595, -0.668457, 2.6595, 0.0942383, 0.1022885, -0.0072175, 2.6595, 0.2680664, 2.6595, -0.7128906, 2.6595, -0.3129883, 0.1022885, 0.0139315, 2.6595, 0.206543, 2.6595, -0.7026367, 2.6595, 0.0927734, , , , , , , , , , , , , , , , , , , , , , 
0.1028077, 0.0169528, 2.673, -0.4208984, 2.673, -0.8818359, 2.673, 0.1289062, 0.1028077, -0.0102388, 2.673, 0.3354492, 2.673, -0.7480469, 2.673, 0.0297852, 0.1028077, -0.0062104, 2.673, 0.2578125, 2.673, -0.6694336, 2.673, -0.3881836, 0.1028077, 0.0203098, 2.673, 0.2875977, 2.673, -0.7314453, 2.673, 0.0878906, , , , , , , , , , , , , , , , , , , , , , 
0.1033269, 0.0166171, 2.6865, -0.2563477, 2.6865, -0.8344727, 2.6865, 0.0673828, 0.1033269, -0.0102388, 2.6865, 0.3325195, 2.6865, -0.828125, 2.6865, 0.0566406, 0.1033269, -0.0073854, 2.6865, 0.2529297, 2.6865, -0.6762695, 2.6865, -0.4013672, 0.1033269, 0.0236667, 2.6865, 0.4067383, 2.6865, -0.7900391, 2.6865, 0.0986328, , , , , , , , , , , , , , , , , , , , , , 
0.1038462, 0.0172885, 2.7, -0.347168, 2.7, -0.7885742, 2.7, 0.0327148, 0.1038462, -0.0070497, 2.7, 0.4091797, 2.7, -0.7602539, 2.7, 0.1279297, 0.1038462, -0.0095674, 2.7, 0.2675781, 2.7, -0.7172852, 2.7, -0.3637695, 0.1038462, 0.0250095, 2.7, 0.4399414, 2.7, -0.7788086, 2.7, 0.0883789, , , , , , , , , , , , , , , , , , , , , , 
0.1043654, 0.0213169, 2.7135, -0.5053711, 2.7135, -0.7460938, 2.7135, 0.0327148, 0.1043654, -0.0048676, 2.7135, 0.4433594, 2.7135, -0.7089844, 2.7135, 0.1083984, 0.1043654, -0.0109102, 2.7135, 0.2431641, 2.7135, -0.7700195, 2.7135, -0.3076172, 0.1043654, 0.0265202, 2.7135, 0.3862305, 2.7135, -0.7382812, 2.7135, 0.0493164, , , , , , , , , , , , , , , , , , , , , , 
0.1048846, 0.0258488, 2.727, -0.5332031, 2.727, -0.7421875, 2.727, 0.0585938, 0.1048846, -0.0062104, 2.727, 0.4199219, 2.727, -0.6982422, 2.727, 0.1123047, 0.1048846, -0.008896, 2.727, 0.1977539, 2.727, -0.8164062, 2.727, -0.3256836, 0.1048846, 0.026688, 2.727, 0.2612305, 2.727, -0.7431641, 2.727, 0.0532227, , , , , , , , , , , , , , , , , , , , , , 
0.1054038, 0.0260166, 2.7405, -0.4370117, 2.7405, -0.7583008, 2.7405, 0.1176758, 0.1054038, -0.008896, 2.7405, 0.4091797, 2.7405, -0.7329102, 2.7405, 0.0600586, 0.1054038, -0.0068818, 2.7405, 0.25, 2.7405, -0.8017578, 2.7405, -0.296875, 0.1054038, 0.0273594, 2.7405, 0.2050781, 2.7405, -0.7719727, 2.7405, 0.0727539, , , , , , , , , , , , , , , , , , , , , , 
0.1059231, 0.0253452, 2.754, -0.3974609, 2.754, -0.7329102, 2.754, 0.121582, 0.1059231, -0.0097353, 2.754, 0.4487305, 2.754, -0.6782227, 2.754, 0.1118164, 0.1059231, -0.0062104, 2.754, 0.3095703, 2.754, -0.730957, 2.754, -0.2709961, 0.1059231, 0.0293736, 2.754, 0.2412109, 2.754, -0.7929688, 2.754, 0.1064453, , , , , , , , , , , , , , , , , , , , , , 
0.1064423, 0.0280308, 2.7675, -0.4360352, 2.7675, -0.652832, 2.7675, 0.0620117, 0.1064423, -0.008896, 2.7675, 0.487793, 2.7675, -0.5683594, 2.7675, 0.1513672, 0.1064423, -0.0075532, 2.7675, 0.3125, 2.7675, -0.7143555, 2.7675, -0.2216797, 0.1064423, 0.0307164, 2.7675, 0.2202148, 2.7675, -0.7866211, 2.7675, 0.1123047, , , , , , , , , , , , , , , , , , , , , , 
0.1069615, 0.0318914, 2.781, -0.5058594, 2.781, -0.6425781, 2.781, 0.0664062, 0.1069615, -0.0085603, 2.781, 0.5063477, 2.781, -0.6103516, 2.781, 0.1899414, 0.1069615, -0.008896, 2.781, 0.2480469, 2.781, -0.7680664, 2.781, -0.2158203, 0.1069615, 0.030045, 2.781, 0.1240234, 2.781, -0.7470703, 2.781, 0.1054688, , , , , , , , , , , , , , , , , , , , , , 
0.1074808, 0.0293736, 2.7945, -0.5688477, 2.7945, -0.6206055, 2.7945, 0.0361328, 0.1074808, -0.0090639, 2.7945, 0.5029297, 2.7945, -0.6333008, 2.7945, 0.1469727, 0.1074808, -0.0095674, 2.7945, 0.1875, 2.7945, -0.8237305, 2.7945, -0.190918, 0.1074808, 0.0246738, 2.7945, 0.0439453, 2.7945, -0.7260742, 2.7945, 0.1054688, , , , , , , , , , , , , , , , , , , , , , 
0.108, 0.0240024, 2.808, -0.4838867, 2.808, -0.6318359, 2.808, 0.1430664, 0.108, -0.0095674, 2.808, 0.4628906, 2.808, -0.6298828, 2.808, 0.0644531, 0.108, -0.0095674, 2.808, 0.1625977, 2.808, -0.8378906, 2.808, -0.1923828, 0.108, 0.0199741, 2.808, 0.0258789, 2.808, -0.7709961, 2.808, 0.1328125, , , , , , , , , , , , , , , , , , , , , , 
0.1085192, 0.0219883, 2.8215, -0.3413086, 2.8215, -0.659668, 2.8215, 0.1635742, 0.1085192, -0.0097353, 2.8215, 0.3740234, 2.8215, -0.6152344, 2.8215, 0.0673828, 0.1085192, -0.0097353, 2.8215, 0.1899414, 2.8215, -0.8032227, 2.8215, -0.1733398, 0.1085192, 0.0199741, 2.8215, 0.0419922, 2.8215, -0.784668, 2.8215, 0.1513672, , , , , , , , , , , , , , , , , , , , , , 
0.1090385, 0.0226596, 2.835, -0.3789062, 2.835, -0.6323242, 2.835, 0.2250977, 0.1090385, -0.0083925, 2.835, 0.4619141, 2.835, -0.6049805, 2.835, 0.0878906, 0.1090385, -0.0095674, 2.835, 0.2788086, 2.835, -0.699707, 2.835, -0.1508789, 0.1090385, 0.0203098, 2.835, 0.0698242, 2.835, -0.7602539, 2.835, 0.1870117, , , , , , , , , , , , , , , , , , , , , , 
0.1095577, 0.0209812, 2.8485, -0.5385742, 2.8485, -0.6206055, 2.8485, 0.168457, 0.1095577, -0.0072175, 2.8485, 0.5776367, 2.8485, -0.6118164, 2.8485, 0.125, 0.1095577, -0.0075532, 2.8485, 0.3476562, 2.8485, -0.6713867, 2.8485, -0.1523438, 0.1095577, 0.0169528, 2.8485, 0.0126953, 2.8485, -0.7368164, 2.8485, 0.2109375, , , , , , , , , , , , , , , , , , , , , , 
0.1100769, 0.0159457, 2.862, -0.6401367, 2.862, -0.6357422, 2.862, 0.1889648, 0.1100769, -0.0058747, 2.862, 0.671875, 2.862, -0.6352539, 2.862, 0.1630859, 0.1100769, -0.0057069, 2.862, 0.34375, 2.862, -0.793457, 2.862, -0.1259766, 0.1100769, 0.0112459, 2.862, -0.059082, 2.862, -0.7919922, 2.862, 0.2363281, , , , , , , , , , , , , , , , , , , , , , 
0.1105962, 0.0139315, 2.8755, -0.5913086, 2.8755, -0.621582, 2.8755, 0.1650391, 0.1105962, -0.0052033, 2.8755, 0.5830078, 2.8755, -0.6293945, 2.8755, 0.0522461, 0.1105962, -0.0065461, 2.8755, 0.331543, 2.8755, -0.9057617, 2.8755, -0.1484375, 0.1105962, 0.010071, 2.8755, -0.043457, 2.8755, -0.8818359, 2.8755, 0.2412109, , , , , , , , , , , , , , , , , , , , , , 
0.1111154, 0.0199741, 2.889, -0.4819336, 2.889, -0.6269531, 2.889, 0.1713867, 0.1111154, -0.0058747, 2.889, 0.3735352, 2.889, -0.5878906, 2.889, 0.0712891, 0.1111154, -0.0092317, 2.889, 0.3261719, 2.889, -0.8730469, 2.889, -0.1606445, 0.1111154, 0.0109102, 2.889, 0.0629883, 2.889, -0.8779297, 2.889, 0.2119141, , , , , , , , , , , , , , , , , , , , , , 
0.1116346, 0.023331, 2.9025, -0.3217773, 2.9025, -0.6469727, 2.9025, 0.2001953, 0.1116346, -0.0062104, 2.9025, 0.3569336, 2.9025, -0.5595703, 2.9025, 0.1630859, 0.1116346, -0.0099031, 2.9025, 0.2514648, 2.9025, -0.7485352, 2.9025, -0.128418, 0.1116346, 0.0092317, 2.9025, 0.1113281, 2.9025, -0.7680664, 2.9025, 0.1860352, , , , , , , , , , , , , , , , , , , , , , 
0.1121538, 0.0213169, 2.916, -0.4453125, 2.916, -0.5805664, 2.916, 0.1586914, 0.1121538, -0.0065461, 2.916, 0.59375, 2.916, -0.5424805, 2.916, 0.1621094, 0.1121538, -0.0078889, 2.916, 0.2485352, 2.916, -0.7084961, 2.916, -0.1123047, 0.1121538, 0.0052033, 2.916, 0.0366211, 2.916, -0.6933594, 2.916, 0.159668, , , , , , , , , , , , , , , , , , , , , , 
0.1126731, 0.0199741, 2.9295, -0.6088867, 2.9295, -0.5405273, 2.9295, 0.1245117, 0.1126731, -0.0062104, 2.9295, 0.6738281, 2.9295, -0.5488281, 2.9295, 0.121582, 0.1126731, -0.0062104, 2.9295, 0.2788086, 2.9295, -0.7797852, 2.9295, -0.1201172, 0.1126731, 0.0035248, 2.9295, -0.0361328, 2.9295, -0.7241211, 2.9295, 0.1494141, , , , , , , , , , , , , , , , , , , , , , 
0.1131923, 0.0166171, 2.943, -0.5454102, 2.943, -0.6069336, 2.943, 0.184082, 0.1131923, -0.005539, 2.943, 0.5668945, 2.943, -0.6069336, 2.943, 0.0756836, 0.1131923, -0.005539, 2.943, 0.3007812, 2.943, -0.8081055, 2.943, -0.1240234, 0.1131923, 0.0038605, 2.943, 0, 2.943, -0.7988281, 2.943, 0.159668, , , , , , , , , , , , , , , , , , , , , , 
0.1137115, 0.011078, 2.9565, -0.3789062, 2.9565, -0.6416016, 2.9565, 0.2216797, 0.1137115, -0.0045319, 2.9565, 0.3588867, 2.9565, -0.6088867, 2.9565, 0.0898438, 0.1137115, -0.0043641, 2.9565, 0.3227539, 2.9565, -0.7915039, 2.9565, -0.1357422, 0.1137115, 0.0028534, 2.9565, 0.0839844, 2.9565, -0.8061523, 2.9565, 0.1699219, , , , , , , , , , , , , , , , , , , , , , 
0.1142308, 0.0062104, 2.97, -0.4155273, 2.97, -0.5634766, 2.97, 0.2299805, 0.1142308, -0.005539, 2.97, 0.4790039, 2.97, -0.5048828, 2.97, 0.152832, 0.1142308, -0.0048676, 2.97, 0.3110352, 2.97, -0.7441406, 2.97, -0.137207, 0.1142308, 0.0005035, 2.97, 0.0742188, 2.97, -0.7641602, 2.97, 0.168457, , , , , , , , , , , , , , , , , , , , , , 
0.11475, 0.0045319, 2.9835, -0.6313477, 2.9835, -0.5361328, 2.9835, 0.1762695, 0.11475, -0.0062104, 2.9835, 0.6777344, 2.9835, -0.5126953, 2.9835, 0.137207, 0.11475, -0.0075532, 2.9835, 0.253418, 2.9835, -0.7548828, 2.9835, -0.0703125, 0.11475, 0.0005035, 2.9835, 0.0424805, 2.9835, -0.7558594, 2.9835, 0.1679688, , , , , , , , , , , , , , , , , , , , , , 
0.1152692, 0.0073854, 2.997, -0.6142578, 2.997, -0.625, 2.997, 0.2290039, 0.1152692, -0.0045319, 2.997, 0.6748047, 2.997, -0.6103516, 2.997, 0.0888672, 0.1152692, -0.0117494, 2.997, 0.2578125, 2.997, -0.793457, 2.997, -0.1030273, 0.1152692, 0.0011749, 2.997, -0.0185547, 2.997, -0.7729492, 2.997, 0.1650391, , , , , , , , , , , , , , , , , , , , , , 
0.1157885, 0.0112459, 3.0105, -0.4077148, 3.0105, -0.671875, 3.0105, 0.190918, 0.1157885, -0.0018463, 3.0105, 0.5209961, 3.0105, -0.671875, 3.0105, 0.0756836, 0.1157885, -0.0146029, 3.0105, 0.3217773, 3.0105, -0.784668, 3.0105, -0.1069336, 0.1157885, 0.002182, 3.0105, -0.0175781, 3.0105, -0.7939453, 3.0105, 0.175293, , , , , , , , , , , , , , , , , , , , , , 
0.1163077, 0.0105745, 3.024, -0.347168, 3.024, -0.5493164, 3.024, 0.1210938, 0.1163077, -0.0003357, 3.024, 0.3310547, 3.024, -0.6357422, 3.024, 0.1347656, 0.1163077, -0.014435, 3.024, 0.3520508, 3.024, -0.7744141, 3.024, -0.0556641, 0.1163077, 0.0045319, 3.024, 0.0200195, 3.024, -0.8032227, 3.024, 0.1889648, , , , , , , , , , , , , , , , , , , , , , 
0.1168269, 0.0097353, 3.0375, -0.4882812, 3.0375, -0.5898438, 3.0375, 0.2373047, 0.1168269, -0.0025177, 3.0375, 0.4707031, 3.0375, -0.4970703, 3.0375, 0.190918, 0.1168269, -0.0149386, 3.0375, 0.3051758, 3.0375, -0.7724609, 3.0375, -0.1337891, 0.1168269, 0.0070497, 3.0375, -0.0039062, 3.0375, -0.7919922, 3.0375, 0.1826172, , , , , , , , , , , , , , , , , , , , , , 
0.1173462, 0.0092317, 3.051, -0.565918, 3.051, -0.6855469, 3.051, 0.2070312, 0.1173462, -0.0052033, 3.051, 0.6826172, 3.051, -0.4853516, 3.051, 0.1347656, 0.1173462, -0.0135958, 3.051, 0.1879883, 3.051, -0.7387695, 3.051, -0.065918, 0.1173462, 0.0050355, 3.051, -0.0473633, 3.051, -0.7475586, 3.051, 0.1503906, , , , , , , , , , , , , , , , , , , , , , 
0.1178654, 0.0058747, 3.0645, -0.6108398, 3.0645, -0.7055664, 3.0645, 0.2026367, 0.1178654, -0.0082246, 3.0645, 0.8369141, 3.0645, -0.5844727, 3.0645, 0.1806641, 0.1178654, -0.012253, 3.0645, 0.2148438, 3.0645, -0.7285156, 3.0645, -0.0229492, 0.1178654, 0.0018463, 3.0645, -0.0561523, 3.0645, -0.7246094, 3.0645, 0.1464844, , , , , , , , , , , , , , , , , , , , , , 
0.1183846, 0.0038605, 3.078, -0.5043945, 3.078, -0.5693359, 3.078, 0.1860352, 0.1183846, -0.0092317, 3.078, 0.6162109, 3.078, -0.6835938, 3.078, 0.0756836, 0.1183846, -0.0105745, 3.078, 0.2666016, 3.078, -0.7636719, 3.078, -0.0507812, 0.1183846, 0.0010071, 3.078, -0.0878906, 3.078, -0.7895508, 3.078, 0.1713867, , , , , , , , , , , , , , , , , , , , , , 
0.1189038, 0.0031891, 3.0915, -0.4047852, 3.0915, -0.6499023, 3.0915, 0.1987305, 0.1189038, -0.008896, 3.0915, 0.4091797, 3.0915, -0.7104492, 3.0915, 0.1152344, 0.1189038, -0.008896, 3.0915, 0.3950195, 3.0915, -0.8476562, 3.0915, -0.0678711, 0.1189038, 0.0016785, 3.0915, -0.1035156, 3.0915, -0.8730469, 3.0915, 0.1831055, , , , , , , , , , , , , , , , , , , , , , 
0.1194231, 0.0038605, 3.105, -0.46875, 3.105, -0.6450195, 3.105, 0.1816406, 0.1194231, -0.0083925, 3.105, 0.3535156, 3.105, -0.6206055, 3.105, 0.0771484, 0.1194231, -0.0085603, 3.105, 0.3789062, 3.105, -0.840332, 3.105, -0.0058594, 0.1194231, 0.0011749, 3.105, -0.0786133, 3.105, -0.8764648, 3.105, 0.2080078, , , , , , , , , , , , , , , , , , , , , , 
0.1199423, 0.0072175, 3.1185, -0.5737305, 3.1185, -0.5288086, 3.1185, 0.2426758, 0.1199423, -0.0082246, 3.1185, 0.5395508, 3.1185, -0.4389648, 3.1185, 0.1782227, 0.1199423, -0.008896, 3.1185, 0.262207, 3.1185, -0.7626953, 3.1185, -0.034668, 0.1199423, 0.0018463, 3.1185, -0.1337891, 3.1185, -0.7958984, 3.1185, 0.2167969, , , , , , , , , , , , , , , , , , , , , , 
0.1204615, 0.0078889, 3.132, -0.628418, 3.132, -0.6035156, 3.132, 0.2490234, 0.1204615, -0.0082246, 3.132, 0.8427734, 3.132, -0.4936523, 3.132, 0.1425781, 0.1204615, -0.0068818, 3.132, 0.1577148, 3.132, -0.7519531, 3.132, 0.0224609, 0.1204615, 0.0058747, 3.132, -0.1748047, 3.132, -0.7651367, 3.132, 0.1967773, , , , , , , , , , , , , , , , , , , , , , 
0.1209808, 0.0078889, 3.1455, -0.6083984, 3.1455, -0.6279297, 3.1455, 0.2485352, 0.1209808, -0.0099031, 3.1455, 0.862793, 3.1455, -0.65625, 3.1455, 0.1357422, 0.1209808, -0.0048676, 3.1455, 0.2651367, 3.1455, -0.8251953, 3.1455, 0.0957031, 0.1209808, 0.0095674, 3.1455, -0.2050781, 3.1455, -0.7739258, 3.1455, 0.152832, , , , , , , , , , , , , , , , , , , , , , 
0.1215, 0.0085603, 3.159, -0.496582, 3.159, -0.5537109, 3.159, 0.2211914, 0.1215, -0.0104067, 3.159, 0.5976562, 3.159, -0.6757812, 3.159, 0.121582, 0.1215, -0.0041962, 3.159, 0.3598633, 3.159, -0.8862305, 3.159, 0.0537109, 0.1215, 0.0125887, 3.159, -0.1884766, 3.159, -0.8388672, 3.159, 0.1601562, , , , , , , , , , , , , , , , , , , , , , 
0.1220192, 0.0092317, 3.1725, -0.465332, 3.1725, -0.5405273, 3.1725, 0.2739258, 0.1220192, -0.0102388, 3.1725, 0.4790039, 3.1725, -0.6245117, 3.1725, 0.1113281, 0.1220192, -0.0063783, 3.1725, 0.3457031, 3.1725, -0.8408203, 3.1725, 0.0986328, 0.1220192, 0.0146029, 3.1725, -0.1860352, 3.1725, -0.8823242, 3.1725, 0.1845703, , , , , , , , , , , , , , , , , , , , , , 
0.1225385, 0.0119173, 3.186, -0.5683594, 3.186, -0.4990234, 3.186, 0.2807617, 0.1225385, -0.0092317, 3.186, 0.4555664, 3.186, -0.4570312, 3.186, 0.0913086, 0.1225385, -0.0072175, 3.186, 0.2753906, 3.186, -0.7529297, 3.186, 0.1025391, 0.1225385, 0.0172885, 3.186, -0.206543, 3.186, -0.8374023, 3.186, 0.2163086, , , , , , , , , , , , , , , , , , , , , , 
0.1230577, 0.0182956, 3.1995, -0.6928711, 3.1995, -0.4892578, 3.1995, 0.2851562, 0.1230577, -0.0072175, 3.1995, 0.6542969, 3.1995, -0.4077148, 3.1995, 0.0791016, 0.1230577, -0.0065461, 3.1995, 0.2514648, 3.1995, -0.7519531, 3.1995, 0.0917969, 0.1230577, 0.0203098, 3.1995, -0.2685547, 3.1995, -0.7773438, 3.1995, 0.2114258, , , , , , , , , , , , , , , , , , , , , , 
0.1235769, 0.0213169, 3.213, -0.6435547, 3.213, -0.5224609, 3.213, 0.2456055, 0.1235769, -0.0085603, 3.213, 0.7490234, 3.213, -0.53125, 3.213, 0.1069336, 0.1235769, -0.0048676, 3.213, 0.2685547, 3.213, -0.7949219, 3.213, 0.1088867, 0.1235769, 0.0224918, 3.213, -0.3295898, 3.213, -0.7875977, 3.213, 0.1918945, , , , , , , , , , , , , , , , , , , , , , 
0.1240962, 0.0206455, 3.2265, -0.6044922, 3.2265, -0.5576172, 3.2265, 0.277832, 0.1240962, -0.0129244, 3.2265, 0.6826172, 3.2265, -0.6206055, 3.2265, 0.1694336, 0.1240962, -0.0045319, 3.2265, 0.2963867, 3.2265, -0.8823242, 3.2265, 0.1435547, 0.1240962, 0.0250095, 3.2265, -0.3388672, 3.2265, -0.8476562, 3.2265, 0.1806641, , , , , , , , , , , , , , , , , , , , , , 
0.1246154, 0.0209812, 3.24, -0.5922852, 3.24, -0.5585938, 3.24, 0.324707, 0.1246154, -0.0129244, 3.24, 0.6953125, 3.24, -0.5410156, 3.24, 0.1166992, 0.1246154, -0.0052033, 3.24, 0.2387695, 3.24, -0.9086914, 3.24, 0.1333008, 0.1246154, 0.027863, 3.24, -0.3178711, 3.24, -0.8725586, 3.24, 0.1860352, , , , , , , , , , , , , , , , , , , , , , 
0.1251346, 0.0229953, 3.2535, -0.5917969, 3.2535, -0.4960938, 3.2535, 0.2895508, 0.1251346, -0.0117494, 3.2535, 0.7211914, 3.2535, -0.4208984, 3.2535, 0.090332, 0.1251346, -0.0062104, 3.2535, 0.1733398, 3.2535, -0.8642578, 3.2535, 0.0805664, 0.1251346, 0.0293736, 3.2535, -0.2734375, 3.2535, -0.8486328, 3.2535, 0.2084961, , , , , , , , , , , , , , , , , , , , , , 
0.1256538, 0.0253452, 3.267, -0.5991211, 3.267, -0.5507812, 3.267, 0.293457, 0.1256538, -0.012253, 3.267, 0.6352539, 3.267, -0.5073242, 3.267, 0.1020508, 0.1256538, -0.0057069, 3.267, 0.2055664, 3.267, -0.8276367, 3.267, 0.0761719, 0.1256538, 0.0298772, 3.267, -0.1918945, 3.267, -0.824707, 3.267, 0.1987305, , , , , , , , , , , , , , , , , , , , , , 
0.1261731, 0.0253452, 3.2805, -0.5839844, 3.2805, -0.6469727, 3.2805, 0.2719727, 0.1261731, -0.0119173, 3.2805, 0.6635742, 3.2805, -0.6582031, 3.2805, 0.1342773, 0.1261731, -0.0048676, 3.2805, 0.3618164, 3.2805, -0.8173828, 3.2805, 0.0458984, 0.1261731, 0.0285344, 3.2805, -0.159668, 3.2805, -0.8286133, 3.2805, 0.1899414, , , , , , , , , , , , , , , , , , , , , , 
0.1266923, 0.0226596, 3.294, -0.5991211, 3.294, -0.6884766, 3.294, 0.2558594, 0.1266923, -0.012253, 3.294, 0.6918945, 3.294, -0.6943359, 3.294, 0.1572266, 0.1266923, -0.002182, 3.294, 0.4243164, 3.294, -0.8447266, 3.294, 0.0634766, 0.1266923, 0.0246738, 3.294, -0.1376953, 3.294, -0.8706055, 3.294, 0.1650391, , , , , , , , , , , , , , , , , , , , , , 
0.1272115, 0.0216526, 3.3075, -0.6376953, 3.3075, -0.6489258, 3.3075, 0.2558594, 0.1272115, -0.012253, 3.3075, 0.7304688, 3.3075, -0.6538086, 3.3075, 0.1875, 0.1272115, -0.0023499, 3.3075, 0.347168, 3.3075, -0.9106445, 3.3075, 0.1005859, 0.1272115, 0.0213169, 3.3075, -0.1479492, 3.3075, -0.9404297, 3.3075, 0.1347656, , , , , , , , , , , , , , , , , , , , , , 
0.1277308, 0.0246738, 3.321, -0.640625, 3.321, -0.6313477, 3.321, 0.2880859, 0.1277308, -0.0115816, 3.321, 0.765625, 3.321, -0.5834961, 3.321, 0.1586914, 0.1277308, -0.0035248, 3.321, 0.2202148, 3.321, -0.9213867, 3.321, 0.0708008, 0.1277308, 0.0206455, 3.321, -0.1811523, 3.321, -0.9697266, 3.321, 0.1694336, , , , , , , , , , , , , , , , , , , , , , 
0.12825, 0.0253452, 3.3345, -0.612793, 3.3345, -0.6811523, 3.3345, 0.3193359, 0.12825, -0.0109102, 3.3345, 0.7744141, 3.3345, -0.6123047, 3.3345, 0.1171875, 0.12825, -0.0050355, 3.3345, 0.2646484, 3.3345, -0.8598633, 3.3345, 0.0751953, 0.12825, 0.0182956, 3.3345, -0.1972656, 3.3345, -0.9145508, 3.3345, 0.1777344, , , , , , , , , , , , , , , , , , , , , , 
0.1287692, 0.0250095, 3.348, -0.5893555, 3.348, -0.6958008, 3.348, 0.3125, 0.1287692, -0.0109102, 3.348, 0.6962891, 3.348, -0.6811523, 3.348, 0.1308594, 0.1287692, -0.0070497, 3.348, 0.3305664, 3.348, -0.8432617, 3.348, 0.0654297, 0.1287692, 0.0166171, 3.348, -0.2070312, 3.348, -0.8964844, 3.348, 0.1850586, , , , , , , , , , , , , , , , , , , , , , 
0.1292885, 0.0243381, 3.3615, -0.6411133, 3.3615, -0.6831055, 3.3615, 0.3178711, 0.1292885, -0.0102388, 3.3615, 0.7099609, 3.3615, -0.7060547, 3.3615, 0.1743164, 0.1292885, -0.0082246, 3.3615, 0.4174805, 3.3615, -0.8813477, 3.3615, 0.0571289, 0.1292885, 0.0142672, 3.3615, -0.2607422, 3.3615, -0.9506836, 3.3615, 0.1835938, , , , , , , , , , , , , , , , , , , , , , 
0.1298077, 0.0206455, 3.375, -0.7514648, 3.375, -0.637207, 3.375, 0.3344727, 0.1298077, -0.0102388, 3.375, 0.8071289, 3.375, -0.6572266, 3.375, 0.1542969, 0.1298077, -0.0072175, 3.375, 0.3603516, 3.375, -0.9775391, 3.375, 0.1049805, 0.1298077, 0.0129244, 3.375, -0.3051758, 3.375, -0.9863281, 3.375, 0.1875, , , , , , , , , , , , , , , , , , , , , , 
0.1303269, 0.0169528, 3.3885, -0.7651367, 3.3885, -0.5996094, 3.3885, 0.3574219, 0.1303269, -0.0095674, 3.3885, 0.8276367, 3.3885, -0.565918, 3.3885, 0.1416016, 0.1303269, -0.0058747, 3.3885, 0.2397461, 3.3885, -0.9897461, 3.3885, 0.1474609, 0.1303269, 0.0119173, 3.3885, -0.2822266, 3.3885, -0.9487305, 3.3885, 0.2226562, , , , , , , , , , , , , , , , , , , , , , 
0.1308462, 0.0159457, 3.402, -0.7373047, 3.402, -0.5400391, 3.402, 0.3764648, 0.1308462, -0.0104067, 3.402, 0.8535156, 3.402, -0.5205078, 3.402, 0.1137695, 0.1308462, -0.0045319, 3.402, 0.1894531, 3.402, -0.9594727, 3.402, 0.1201172, 0.1308462, 0.0119173, 3.402, -0.3012695, 3.402, -0.9331055, 3.402, 0.2241211, , , , , , , , , , , , , , , , , , , , , , 
0.1313654, 0.0149386, 3.4155, -0.7495117, 3.4155, -0.5634766, 3.4155, 0.3754883, 0.1313654, -0.012253, 3.4155, 0.8276367, 3.4155, -0.5439453, 3.4155, 0.1010742, 0.1313654, -0.0048676, 3.4155, 0.3120117, 3.4155, -0.9711914, 3.4155, 0.081543, 0.1313654, 0.0125887, 3.4155, -0.3100586, 3.4155, -0.9638672, 3.4155, 0.230957, , , , , , , , , , , , , , , , , , , , , , 
0.1318846, 0.0132601, 3.429, -0.6992188, 3.429, -0.6142578, 3.429, 0.3466797, 0.1318846, -0.0115816, 3.429, 0.7543945, 3.429, -0.6293945, 3.429, 0.1474609, 0.1318846, -0.0078889, 3.429, 0.4165039, 3.429, -0.9785156, 3.429, 0.0942383, 0.1318846, 0.0129244, 3.429, -0.28125, 3.429, -0.9799805, 3.429, 0.2226562, , , , , , , , , , , , , , , , , , , , , , 
0.1324038, 0.0124208, 3.4425, -0.6889648, 3.4425, -0.6020508, 3.4425, 0.355957, 0.1324038, -0.0095674, 3.4425, 0.7490234, 3.4425, -0.6416016, 3.4425, 0.203125, 0.1324038, -0.0109102, 3.4425, 0.3583984, 3.4425, -0.9541016, 3.4425, 0.137207, 0.1324038, 0.0105745, 3.4425, -0.2158203, 3.4425, -0.9951172, 3.4425, 0.1889648, , , , , , , , , , , , , , , , , , , , , , 
0.1329231, 0.0129244, 3.456, -0.7456055, 3.456, -0.5322266, 3.456, 0.340332, 0.1329231, -0.0097353, 3.456, 0.8530273, 3.456, -0.5322266, 3.456, 0.1816406, 0.1329231, -0.012253, 3.456, 0.2055664, 3.456, -0.965332, 3.456, 0.0869141, 0.1329231, 0.0078889, 3.456, -0.2451172, 3.456, -0.984375, 3.456, 0.1723633, , , , , , , , , , , , , , , , , , , , , , 
0.1334423, 0.014435, 3.4695, -0.7900391, 3.4695, -0.5185547, 3.4695, 0.3105469, 0.1334423, -0.0095674, 3.4695, 0.8706055, 3.4695, -0.4750977, 3.4695, 0.1826172, 0.1334423, -0.012253, 3.4695, 0.1962891, 3.4695, -0.984375, 3.4695, 0.0698242, 0.1334423, 0.0078889, 3.4695, -0.2958984, 3.4695, -0.9511719, 3.4695, 0.15625, , , , , , , , , , , , , , , , , , , , , , 
0.1339615, 0.0184634, 3.483, -0.7094727, 3.483, -0.5800781, 3.483, 0.2788086, 0.1339615, -0.0083925, 3.483, 0.7719727, 3.483, -0.5717773, 3.483, 0.1533203, 0.1339615, -0.012253, 3.483, 0.2407227, 3.483, -0.9667969, 3.483, 0.0546875, 0.1339615, 0.0102388, 3.483, -0.2426758, 3.483, -0.9213867, 3.483, 0.1616211, , , , , , , , , , , , , , , , , , , , , , 
0.1344808, 0.018967, 3.4965, -0.6113281, 3.4965, -0.6552734, 3.4965, 0.2866211, 0.1344808, -0.0075532, 3.4965, 0.6469727, 3.4965, -0.6801758, 3.4965, 0.1899414, 0.1344808, -0.012253, 3.4965, 0.309082, 3.4965, -0.8964844, 3.4965, -0.0209961, 0.1344808, 0.0092317, 3.4965, -0.1630859, 3.4965, -0.9199219, 3.4965, 0.1635742, , , , , , , , , , , , , , , , , , , , , , 
0.135, 0.0166171, 3.51, -0.625, 3.51, -0.6469727, 3.51, 0.2631836, 0.135, -0.0068818, 3.51, 0.6621094, 3.51, -0.6542969, 3.51, 0.2529297, 0.135, -0.0129244, 3.51, 0.3212891, 3.51, -0.8759766, 3.51, 0.0014648, 0.135, 0.0085603, 3.51, -0.1552734, 3.51, -0.9521484, 3.51, 0.0996094, , , , , , , , , , , , , , , , , , , , , , 
0.1355192, 0.01561, 3.5235, -0.7568359, 3.5235, -0.546875, 3.5235, 0.2626953, 0.1355192, -0.0078889, 3.5235, 0.8359375, 3.5235, -0.5073242, 3.5235, 0.2172852, 0.1355192, -0.0135958, 3.5235, 0.2485352, 3.5235, -0.9804688, 3.5235, 0.0493164, 0.1355192, 0.008896, 3.5235, -0.206543, 3.5235, -1.0073242, 3.5235, 0.1054688, , , , , , , , , , , , , , , , , , , , , , 
0.1360385, 0.0139315, 3.537, -0.7841797, 3.537, -0.5185547, 3.537, 0.3623047, 0.1360385, -0.0078889, 3.537, 0.8710938, 3.537, -0.4633789, 3.537, 0.1557617, 0.1360385, -0.012253, 3.537, 0.184082, 3.537, -1.0634766, 3.537, 0.0268555, 0.1360385, 0.0075532, 3.537, -0.1694336, 3.537, -0.9799805, 3.537, 0.1557617, , , , , , , , , , , , , , , , , , , , , , 
0.1365577, 0.0109102, 3.5505, -0.7617188, 3.5505, -0.4926758, 3.5505, 0.3769531, 0.1365577, -0.0072175, 3.5505, 0.8496094, 3.5505, -0.4790039, 3.5505, 0.1889648, 0.1365577, -0.0130922, 3.5505, 0.2709961, 3.5505, -0.9633789, 3.5505, 0.0449219, 0.1365577, 0.0060426, 3.5505, -0.097168, 3.5505, -0.8989258, 3.5505, 0.144043, , , , , , , , , , , , , , , , , , , , , , 
0.1370769, 0.0083925, 3.564, -0.7099609, 3.564, -0.453125, 3.564, 0.3461914, 0.1370769, -0.0070497, 3.564, 0.8300781, 3.564, -0.4355469, 3.564, 0.1342773, 0.1370769, -0.0135958, 3.564, 0.3540039, 3.564, -0.8852539, 3.564, 0.0395508, 0.1370769, 0.0035248, 3.564, -0.1572266, 3.564, -0.9150391, 3.564, 0.1708984, , , , , , , , , , , , , , , , , , , , , , 
0.1375962, 0.0065461, 3.5775, -0.6914062, 3.5775, -0.4472656, 3.5775, 0.3642578, 0.1375962, -0.0058747, 3.5775, 0.7509766, 3.5775, -0.4633789, 3.5775, 0.2319336, 0.1375962, -0.0130922, 3.5775, 0.4165039, 3.5775, -0.9477539, 3.5775, 0.0576172, 0.1375962, -0.0001678, 3.5775, -0.2353516, 3.5775, -0.9438477, 3.5775, 0.1420898, , , , , , , , , , , , , , , , , , , , , , 
0.1381154, 0.0041962, 3.591, -0.8203125, 3.591, -0.4902344, 3.591, 0.3510742, 0.1381154, -0.0048676, 3.591, 0.8647461, 3.591, -0.5224609, 3.591, 0.2041016, 0.1381154, -0.0135958, 3.591, 0.3085938, 3.591, -1.0214844, 3.591, 0.0610352, 0.1381154, -0.002182, 3.591, -0.2338867, 3.591, -0.965332, 3.591, 0.1352539, , , , , , , , , , , , , , , , , , , , , , 
0.1386346, 0.0052033, 3.6045, -0.8408203, 3.6045, -0.4672852, 3.6045, 0.3544922, 0.1386346, -0.0063783, 3.6045, 0.8935547, 3.6045, -0.4526367, 3.6045, 0.1738281, 0.1386346, -0.0129244, 3.6045, 0.2319336, 3.6045, -1.0415039, 3.6045, 0.0810547, 0.1386346, -0.0018463, 3.6045, -0.1987305, 3.6045, -0.9985352, 3.6045, 0.1762695, , , , , , , , , , , , , , , , , , , , , , 
0.1391538, 0.0058747, 3.618, -0.7358398, 3.618, -0.4375, 3.618, 0.3725586, 0.1391538, -0.0085603, 3.618, 0.7602539, 3.618, -0.4077148, 3.618, 0.1362305, 0.1391538, -0.0115816, 3.618, 0.1923828, 3.618, -1.0058594, 3.618, 0.0625, 0.1391538, -0.0011749, 3.618, -0.203125, 3.618, -0.9516602, 3.618, 0.1928711, , , , , , , , , , , , , , , , , , , , , , 
0.1396731, 0.0025177, 3.6315, -0.6289062, 3.6315, -0.4501953, 3.6315, 0.3652344, 0.1396731, -0.0083925, 3.6315, 0.7250977, 3.6315, -0.4399414, 3.6315, 0.2089844, 0.1396731, -0.0109102, 3.6315, 0.2719727, 3.6315, -0.9331055, 3.6315, 0.0522461, 0.1396731, 0.0005035, 3.6315, -0.2246094, 3.6315, -0.9047852, 3.6315, 0.1420898, , , , , , , , , , , , , , , , , , , , , , 
0.1401923, 0.0001678, 3.645, -0.6782227, 3.645, -0.4746094, 3.645, 0.3295898, 0.1401923, -0.0065461, 3.645, 0.8291016, 3.645, -0.484375, 3.645, 0.2299805, 0.1401923, -0.0115816, 3.645, 0.3486328, 3.645, -0.8920898, 3.645, 0.0151367, 0.1401923, 0.0018463, 3.645, -0.2280273, 3.645, -0.9282227, 3.645, 0.1391602, , , , , , , , , , , , , , , , , , , , , , 
0.1407115, -0.0011749, 3.6585, -0.7148438, 3.6585, -0.4868164, 3.6585, 0.3041992, 0.1407115, -0.005539, 3.6585, 0.8354492, 3.6585, -0.4907227, 3.6585, 0.2060547, 0.1407115, -0.0112459, 3.6585, 0.2802734, 3.6585, -0.9077148, 3.6585, 0.0415039, 0.1407115, 0.0052033, 3.6585, -0.199707, 3.6585, -0.9311523, 3.6585, 0.1293945, , , , , , , , , , , , , , , , , , , , , , 
0.1412308, -0.0015106, 3.672, -0.7675781, 3.672, -0.4541016, 3.672, 0.3374023, 0.1412308, -0.0068818, 3.672, 0.7915039, 3.672, -0.4682617, 3.672, 0.2099609, 0.1412308, -0.0109102, 3.672, 0.1860352, 3.672, -0.9111328, 3.672, 0.0634766, 0.1412308, 0.0083925, 3.672, -0.2006836, 3.672, -0.894043, 3.672, 0.1474609, , , , , , , , , , , , , , , , , , , , , , 
0.14175, -0.0028534, 3.6855, -0.7583008, 3.6855, -0.4047852, 3.6855, 0.3369141, 0.14175, -0.0062104, 3.6855, 0.737793, 3.6855, -0.4072266, 3.6855, 0.2075195, 0.14175, -0.0105745, 3.6855, 0.175293, 3.6855, -0.9145508, 3.6855, 0.0756836, 0.14175, 0.0127565, 3.6855, -0.25, 3.6855, -0.8813477, 3.6855, 0.1254883, , , , , , , , , , , , , , , , , , , , , , 
0.1422692, -0.0001678, 3.699, -0.7504883, 3.699, -0.3618164, 3.699, 0.3408203, 0.1422692, -0.0043641, 3.699, 0.7612305, 3.699, -0.3735352, 3.699, 0.234375, 0.1422692, -0.0099031, 3.699, 0.2832031, 3.699, -0.9697266, 3.699, 0.074707, 0.1422692, 0.0159457, 3.699, -0.2827148, 3.699, -0.9428711, 3.699, 0.1269531, , , , , , , , , , , , , , , , , , , , , , 
0.1427885, 0.0068818, 3.7125, -0.8203125, 3.7125, -0.3876953, 3.7125, 0.3813477, 0.1427885, -0.0035248, 3.7125, 0.8662109, 3.7125, -0.3867188, 3.7125, 0.2578125, 0.1427885, -0.0082246, 3.7125, 0.3276367, 3.7125, -1.0224609, 3.7125, 0.0683594, 0.1427885, 0.0166171, 3.7125, -0.222168, 3.7125, -0.9711914, 3.7125, 0.137207, , , , , , , , , , , , , , , , , , , , , , 
0.1433077, 0.0078889, 3.726, -0.8583984, 3.726, -0.3945312, 3.726, 0.3867188, 0.1433077, -0.005539, 3.726, 0.890625, 3.726, -0.3813477, 3.726, 0.2211914, 0.1433077, -0.0062104, 3.726, 0.2451172, 3.726, -1.0087891, 3.726, 0.0424805, 0.1433077, 0.0196384, 3.726, -0.1904297, 3.726, -0.9711914, 3.726, 0.1318359, , , , , , , , , , , , , , , , , , , , , , 
0.1438269, 0.0090639, 3.7395, -0.8178711, 3.7395, -0.3857422, 3.7395, 0.3535156, 0.1438269, -0.0072175, 3.7395, 0.8076172, 3.7395, -0.3623047, 3.7395, 0.2172852, 0.1438269, -0.0068818, 3.7395, 0.1992188, 3.7395, -1.0039062, 3.7395, 0.0356445, 0.1438269, 0.0251774, 3.7395, -0.199707, 3.7395, -0.9804688, 3.7395, 0.1342773, , , , , , , , , , , , , , , , , , , , , , 
0.1443462, 0.0129244, 3.753, -0.7358398, 3.753, -0.4423828, 3.753, 0.3662109, 0.1443462, -0.0068818, 3.753, 0.796875, 3.753, -0.4604492, 3.753, 0.253418, 0.1443462, -0.0099031, 3.753, 0.2299805, 3.753, -1.0073242, 3.753, 0.0454102, 0.1443462, 0.0287022, 3.753, -0.2128906, 3.753, -0.9941406, 3.753, 0.0996094, , , , , , , , , , , , , , , , , , , , , , 
0.1448654, 0.0186313, 3.7665, -0.7680664, 3.7665, -0.4775391, 3.7665, 0.3603516, 0.1448654, -0.0072175, 3.7665, 0.8925781, 3.7665, -0.5229492, 3.7665, 0.2573242, 0.1448654, -0.0095674, 3.7665, 0.2841797, 3.7665, -1.0336914, 3.7665, 0.0390625, 0.1448654, 0.0290379, 3.7665, -0.1943359, 3.7665, -1.0175781, 3.7665, 0.0981445, , , , , , , , , , , , , , , , , , , , , , 
0.1453846, 0.023331, 3.78, -0.9169922, 3.78, -0.5390625, 3.78, 0.378418, 0.1453846, -0.0077211, 3.78, 0.890625, 3.78, -0.5693359, 3.78, 0.2089844, 0.1453846, -0.005539, 3.78, 0.2651367, 3.78, -1.0332031, 3.78, -0.0161133, 0.1453846, 0.0273594, 3.78, -0.1728516, 3.78, -1.0048828, 3.78, 0.137207, , , , , , , , , , , , , , , , , , , , , , 
0.1459038, 0.0253452, 3.7935, -0.8203125, 3.7935, -0.6035156, 3.7935, 0.3579102, 0.1459038, -0.0068818, 3.7935, 0.8510742, 3.7935, -0.5888672, 3.7935, 0.2143555, 0.1459038, -0.0035248, 3.7935, 0.2607422, 3.7935, -1, 3.7935, -0.0444336, 0.1459038, 0.026688, 3.7935, -0.1323242, 3.7935, -0.9960938, 3.7935, 0.1420898, , , , , , , , , , , , , , , , , , , , , , 
0.1464231, 0.0253452, 3.807, -0.6499023, 3.807, -0.5576172, 3.807, 0.4003906, 0.1464231, -0.0058747, 3.807, 0.8081055, 3.807, -0.5532227, 3.807, 0.2104492, 0.1464231, -0.0052033, 3.807, 0.340332, 3.807, -0.9785156, 3.807, -0.015625, 0.1464231, 0.0280308, 3.807, -0.0878906, 3.807, -1.0180664, 3.807, 0.1450195, , , , , , , , , , , , , , , , , , , , , , 
0.1469423, 0.0243381, 3.8205, -0.6757812, 3.8205, -0.4682617, 3.8205, 0.3666992, 0.1469423, -0.0048676, 3.8205, 0.8110352, 3.8205, -0.4711914, 3.8205, 0.2045898, 0.1469423, -0.0075532, 3.8205, 0.3691406, 3.8205, -0.987793, 3.8205, 0.015625, 0.1469423, 0.026688, 3.8205, -0.0981445, 3.8205, -1, 3.8205, 0.1435547, , , , , , , , , , , , , , , , , , , , , , 
0.1474615, 0.023331, 3.834, -0.8095703, 3.834, -0.5219727, 3.834, 0.3657227, 0.1474615, -0.0068818, 3.834, 0.8720703, 3.834, -0.472168, 3.834, 0.1708984, 0.1474615, -0.0083925, 3.834, 0.3193359, 3.834, -0.9580078, 3.834, -0.0537109, 0.1474615, 0.0226596, 3.834, -0.1152344, 3.834, -0.9643555, 3.834, 0.1513672, , , , , , , , , , , , , , , , , , , , , , 
0.1479808, 0.0224918, 3.8475, -0.7900391, 3.8475, -0.652832, 3.8475, 0.3496094, 0.1479808, -0.0087282, 3.8475, 0.8193359, 3.8475, -0.6352539, 3.8475, 0.152832, 0.1479808, -0.0082246, 3.8475, 0.293457, 3.8475, -0.9194336, 3.8475, -0.0771484, 0.1479808, 0.0216526, 3.8475, -0.0883789, 3.8475, -0.9838867, 3.8475, 0.1342773, , , , , , , , , , , , , , , , , , , , , , 
0.1485, 0.0226596, 3.861, -0.6894531, 3.861, -0.737793, 3.861, 0.3979492, 0.1485, -0.0082246, 3.861, 0.7602539, 3.861, -0.7324219, 3.861, 0.1582031, 0.1485, -0.0077211, 3.861, 0.3540039, 3.861, -0.9462891, 3.861, -0.0761719, 0.1485, 0.0219883, 3.861, -0.0629883, 3.861, -1.0307617, 3.861, 0.1342773, , , , , , , , , , , , , , , , , , , , , , 
0.1490192, 0.021149, 3.8745, -0.6630859, 3.8745, -0.6606445, 3.8745, 0.4150391, 0.1490192, -0.0077211, 3.8745, 0.8447266, 3.8745, -0.6572266, 3.8745, 0.2070312, 0.1490192, -0.0082246, 3.8745, 0.3720703, 3.8745, -0.9667969, 3.8745, -0.0693359, 0.1490192, 0.0179599, 3.8745, -0.0751953, 3.8745, -1.0029297, 3.8745, 0.1674805, , , , , , , , , , , , , , , , , , , , , , 
0.1495385, 0.0164492, 3.888, -0.7280273, 3.888, -0.5878906, 3.888, 0.3569336, 0.1495385, -0.0082246, 3.888, 0.8994141, 3.888, -0.5166016, 3.888, 0.1689453, 0.1495385, -0.0077211, 3.888, 0.3286133, 3.888, -0.9951172, 3.888, -0.0205078, 0.1495385, 0.0119173, 3.888, -0.1098633, 3.888, -0.9946289, 3.888, 0.1611328, , , , , , , , , , , , , , , , , , , , , , 
0.1500577, 0.01561, 3.9015, -0.7041016, 3.9015, -0.4794922, 3.9015, 0.3276367, 0.1500577, -0.0075532, 3.9015, 0.8027344, 3.9015, -0.4829102, 3.9015, 0.2109375, 0.1500577, -0.0062104, 3.9015, 0.2963867, 3.9015, -1.0161133, 3.9015, 0.0102539, 0.1500577, 0.0095674, 3.9015, -0.1479492, 3.9015, -1.0004883, 3.9015, 0.1298828, , , , , , , , , , , , , , , , , , , , , , 
0.1505769, 0.017792, 3.915, -0.7236328, 3.915, -0.5039062, 3.915, 0.3447266, 0.1505769, -0.0062104, 3.915, 0.7626953, 3.915, -0.5126953, 3.915, 0.1987305, 0.1505769, -0.005539, 3.915, 0.2944336, 3.915, -0.9868164, 3.915, 0.0029297, 0.1505769, 0.0112459, 3.915, -0.1420898, 3.915, -1.0131836, 3.915, 0.1279297, , , , , , , , , , , , , , , , , , , , , , 
0.1510962, 0.0186313, 3.9285, -0.7861328, 3.9285, -0.5610352, 3.9285, 0.3378906, 0.1510962, -0.0060426, 3.9285, 0.7724609, 3.9285, -0.5512695, 3.9285, 0.2089844, 0.1510962, -0.0062104, 3.9285, 0.2700195, 3.9285, -0.9707031, 3.9285, -0.0483398, 0.1510962, 0.0129244, 3.9285, -0.1523438, 3.9285, -1.0097656, 3.9285, 0.144043, , , , , , , , , , , , , , , , , , , , , , 
0.1516154, 0.0179599, 3.942, -0.8188477, 3.942, -0.6645508, 3.942, 0.3461914, 0.1516154, -0.0068818, 3.942, 0.8608398, 3.942, -0.6015625, 3.942, 0.1826172, 0.1516154, -0.0068818, 3.942, 0.2802734, 3.942, -0.9868164, 3.942, -0.0629883, 0.1516154, 0.011078, 3.942, -0.1572266, 3.942, -0.9887695, 3.942, 0.1347656, , , , , , , , , , , , , , , , , , , , , , 
0.1521346, 0.0146029, 3.9555, -0.7368164, 3.9555, -0.6845703, 3.9555, 0.3530273, 0.1521346, -0.0095674, 3.9555, 0.8149414, 3.9555, -0.652832, 3.9555, 0.1689453, 0.1521346, -0.005539, 3.9555, 0.3037109, 3.9555, -0.9926758, 3.9555, -0.0703125, 0.1521346, 0.0097353, 3.9555, -0.1235352, 3.9555, -1.0166016, 3.9555, 0.137207, , , , , , , , , , , , , , , , , , , , , , 
0.1526538, 0.0124208, 3.969, -0.652832, 3.969, -0.5917969, 3.969, 0.3891602, 0.1526538, -0.0099031, 3.969, 0.7626953, 3.969, -0.6054688, 3.969, 0.1889648, 0.1526538, -0.0028534, 3.969, 0.3295898, 3.969, -1.012207, 3.969, 0.0112305, 0.1526538, 0.0102388, 3.969, -0.0927734, 3.969, -1.0239258, 3.969, 0.1142578, , , , , , , , , , , , , , , , , , , , , , 
0.1531731, 0.0146029, 3.9825, -0.6376953, 3.9825, -0.394043, 3.9825, 0.3510742, 0.1531731, -0.0078889, 3.9825, 0.8051758, 3.9825, -0.4047852, 3.9825, 0.2192383, 0.1531731, -0.0030213, 3.9825, 0.2900391, 3.9825, -0.984375, 3.9825, 0.0136719, 0.1531731, 0.0112459, 3.9825, -0.1245117, 3.9825, -0.96875, 3.9825, 0.1347656, , , , , , , , , , , , , , , , , , , , , , 
0.1536923, 0.0196384, 3.996, -0.75, 3.996, -0.3496094, 3.996, 0.3276367, 0.1536923, -0.0062104, 3.996, 0.8496094, 3.996, -0.3417969, 3.996, 0.1899414, 0.1536923, -0.005539, 3.996, 0.2421875, 3.996, -0.9604492, 3.996, -0.0029297, 0.1536923, 0.0115816, 3.996, -0.1835938, 3.996, -0.9248047, 3.996, 0.1333008, , , , , , , , , , , , , , , , , , , , , , 
0.1542115, 0.0176242, 4.0095, -0.7807617, 4.0095, -0.5512695, 4.0095, 0.3364258, 0.1542115, -0.0068818, 4.0095, 0.7827148, 4.0095, -0.5341797, 4.0095, 0.171875, 0.1542115, -0.0085603, 4.0095, 0.2446289, 4.0095, -0.9238281, 4.0095, -0.0429688, 0.1542115, 0.0124208, 4.0095, -0.1289062, 4.0095, -0.9418945, 4.0095, 0.0932617, , , , , , , , , , , , , , , , , , , , , , 
0.1547308, 0.0119173, 4.023, -0.6782227, 4.023, -0.6904297, 4.023, 0.3603516, 0.1547308, -0.0078889, 4.023, 0.7924805, 4.023, -0.6689453, 4.023, 0.2138672, 0.1547308, -0.0099031, 4.023, 0.2963867, 4.023, -0.9213867, 4.023, -0.0415039, 0.1547308, 0.0154421, 4.023, -0.0620117, 4.023, -0.9814453, 4.023, 0.0917969, , , , , , , , , , , , , , , , , , , , , , 
0.15525, 0.0112459, 4.0365, -0.6342773, 4.0365, -0.5732422, 4.0365, 0.3393555, 0.15525, -0.0068818, 4.0365, 0.8334961, 4.0365, -0.6572266, 4.0365, 0.2651367, 0.15525, -0.0095674, 4.0365, 0.3310547, 4.0365, -0.9667969, 4.0365, -0.0039062, 0.15525, 0.0159457, 4.0365, -0.0673828, 4.0365, -0.9829102, 4.0365, 0.0859375, , , , , , , , , , , , , , , , , , , , , , 
0.1557692, 0.0146029, 4.05, -0.8134766, 4.05, -0.4697266, 4.05, 0.4082031, 0.1557692, -0.0058747, 4.05, 0.90625, 4.05, -0.5092773, 4.05, 0.1694336, 0.1557692, -0.0099031, 4.05, 0.2792969, 4.05, -0.9868164, 4.05, -0.0126953, 0.1557692, 0.0125887, 4.05, -0.1401367, 4.05, -0.9677734, 4.05, 0.1186523, , , , , , , , , , , , , , , , , , , , , , 
0.1562885, 0.0149386, 4.0635, -0.8535156, 4.0635, -0.4819336, 4.0635, 0.3447266, 0.1562885, -0.005539, 4.0635, 0.7558594, 4.0635, -0.4082031, 4.0635, 0.2490234, 0.1562885, -0.0117494, 4.0635, 0.2402344, 4.0635, -0.987793, 4.0635, 0.0146484, 0.1562885, 0.0083925, 4.0635, -0.1601562, 4.0635, -0.956543, 4.0635, 0.1103516, , , , , , , , , , , , , , , , , , , , , , 
0.1568077, 0.0068818, 4.077, -0.8022461, 4.077, -0.5146484, 4.077, 0.3408203, 0.1568077, -0.0052033, 4.077, 0.7866211, 4.077, -0.4780273, 4.077, 0.1323242, 0.1568077, -0.012253, 4.077, 0.300293, 4.077, -0.9604492, 4.077, 0.0576172, 0.1568077, 0.0046998, 4.077, -0.1455078, 4.077, -0.9726562, 4.077, 0.144043, , , , , , , , , , , , , , , , , , , , , , 
0.1573269, -0.0020142, 4.0905, -0.7568359, 4.0905, -0.5224609, 4.0905, 0.331543, 0.1573269, -0.0052033, 4.0905, 0.6591797, 4.0905, -0.6010742, 4.0905, 0.1621094, 0.1573269, -0.0090639, 4.0905, 0.3920898, 4.0905, -0.9604492, 4.0905, -0.0463867, 0.1573269, 0.002182, 4.0905, -0.1508789, 4.0905, -0.9897461, 4.0905, 0.1738281, , , , , , , , , , , , , , , , , , , , , , 
0.1578462, -0.0041962, 4.104, -0.4892578, 4.104, -0.5292969, 4.104, 0.3032227, 0.1578462, -0.0052033, 4.104, 0.7397461, 4.104, -0.6103516, 4.104, 0.2001953, 0.1578462, -0.0062104, 4.104, 0.3530273, 4.104, -0.9194336, 4.104, -0.0048828, 0.1578462, 0.0010071, 4.104, -0.1220703, 4.104, -0.956543, 4.104, 0.1660156, , , , , , , , , , , , , , , , , , , , , , 
0.1583654, -0.0001678, 4.1175, -0.628418, 4.1175, -0.5820312, 4.1175, 0.284668, 0.1583654, -0.0045319, 4.1175, 0.7314453, 4.1175, -0.5522461, 4.1175, 0.2382812, 0.1583654, -0.0041962, 4.1175, 0.2524414, 4.1175, -0.9208984, 4.1175, -0.050293, 0.1583654, -0.0005035, 4.1175, -0.1674805, 4.1175, -0.9921875, 4.1175, 0.1645508, , , , , , , , , , , , , , , , , , , , , , 
0.1588846, 0.0038605, 4.131, -0.7460938, 4.131, -0.6347656, 4.131, 0.2880859, 0.1588846, -0.0041962, 4.131, 0.7734375, 4.131, -0.5610352, 4.131, 0.2353516, 0.1588846, -0.0045319, 4.131, 0.2250977, 4.131, -0.9575195, 4.131, -0.0249023, 0.1588846, -0.0005035, 4.131, -0.1865234, 4.131, -0.9726562, 4.131, 0.1103516, , , , , , , , , , , , , , , , , , , , , , 
0.1594038, 0.0045319, 4.1445, -0.8442383, 4.1445, -0.6542969, 4.1445, 0.2475586, 0.1594038, -0.0038605, 4.1445, 0.7446289, 4.1445, -0.5805664, 4.1445, 0.2602539, 0.1594038, -0.0058747, 4.1445, 0.2114258, 4.1445, -0.9765625, 4.1445, 0.0058594, 0.1594038, 0.0008392, 4.1445, -0.1445312, 4.1445, -0.9174805, 4.1445, 0.090332, , , , , , , , , , , , , , , , , , , , , , 
0.1599231, 0.0031891, 4.158, -0.7788086, 4.158, -0.5625, 4.158, 0.3120117, 0.1599231, -0.005539, 4.158, 0.7827148, 4.158, -0.5664062, 4.158, 0.2890625, 0.1599231, -0.0048676, 4.158, 0.2392578, 4.158, -0.9262695, 4.158, -0.03125, 0.1599231, 0.0008392, 4.158, -0.1083984, 4.158, -0.9248047, 4.158, 0.0981445, , , , , , , , , , , , , , , , , , , , , , 
0.1604423, 0.002182, 4.1715, -0.6992188, 4.1715, -0.5454102, 4.1715, 0.2563477, 0.1604423, -0.0082246, 4.1715, 0.8769531, 4.1715, -0.5639648, 4.1715, 0.234375, 0.1604423, -0.0048676, 4.1715, 0.3085938, 4.1715, -0.9404297, 4.1715, -0.0229492, 0.1604423, 0.0010071, 4.1715, -0.0908203, 4.1715, -1.0068359, 4.1715, 0.0810547, , , , , , , , , , , , , , , , , , , , , , 
0.1609615, 0.0052033, 4.185, -0.6577148, 4.185, -0.5605469, 4.185, 0.3212891, 0.1609615, -0.0095674, 4.185, 0.7680664, 4.185, -0.5791016, 4.185, 0.2006836, 0.1609615, -0.0048676, 4.185, 0.3618164, 4.185, -0.9995117, 4.185, -0.0214844, 0.1609615, 0.0041962, 4.185, -0.0795898, 4.185, -1.0366211, 4.185, 0.1015625, , , , , , , , , , , , , , , , , , , , , , 
0.1614808, 0.0105745, 4.1985, -0.6791992, 4.1985, -0.5839844, 4.1985, 0.3808594, 0.1614808, -0.0097353, 4.1985, 0.690918, 4.1985, -0.5844727, 4.1985, 0.1499023, 0.1614808, -0.003357, 4.1985, 0.3203125, 4.1985, -0.987793, 4.1985, -0.0019531, 0.1614808, 0.0097353, 4.1985, -0.0908203, 4.1985, -1.0161133, 4.1985, 0.1445312, , , , , , , , , , , , , , , , , , , , , , 
0.162, 0.0129244, 4.212, -0.7788086, 4.212, -0.5385742, 4.212, 0.3608398, 0.162, -0.0082246, 4.212, 0.7265625, 4.212, -0.4980469, 4.212, 0.190918, 0.162, -0.002182, 4.212, 0.2910156, 4.212, -0.9389648, 4.212, 0.046875, 0.162, 0.0146029, 4.212, -0.1547852, 4.212, -0.9423828, 4.212, 0.1401367, , , , , , , , , , , , , , , , , , , , , , 
0.1625192, 0.0132601, 4.2255, -0.8359375, 4.2255, -0.5078125, 4.2255, 0.3295898, 0.1625192, -0.0058747, 4.2255, 0.9042969, 4.2255, -0.4311523, 4.2255, 0.2080078, 0.1625192, -0.0028534, 4.2255, 0.2773438, 4.2255, -0.9541016, 4.2255, 0.0415039, 0.1625192, 0.0166171, 4.2255, -0.2358398, 4.2255, -0.9321289, 4.2255, 0.1582031, , , , , , , , , , , , , , , , , , , , , , 
0.1630385, 0.0146029, 4.239, -0.8696289, 4.239, -0.4682617, 4.239, 0.3457031, 0.1630385, -0.0048676, 4.239, 0.9912109, 4.239, -0.5224609, 4.239, 0.1923828, 0.1630385, -0.0025177, 4.239, 0.3081055, 4.239, -0.9863281, 4.239, 0.0439453, 0.1630385, 0.0172885, 4.239, -0.25, 4.239, -0.9570312, 4.239, 0.159668, , , , , , , , , , , , , , , , , , , , , , 
0.1635577, 0.0172885, 4.2525, -0.7138672, 4.2525, -0.512207, 4.2525, 0.3828125, 0.1635577, -0.005539, 4.2525, 0.9863281, 4.2525, -0.5776367, 4.2525, 0.1972656, 0.1635577, -0.0018463, 4.2525, 0.2558594, 4.2525, -0.9775391, 4.2525, 0.0336914, 0.1635577, 0.018967, 4.2525, -0.2016602, 4.2525, -0.9907227, 4.2525, 0.1787109, , , , , , , , , , , , , , , , , , , , , , 
0.1640769, 0.0184634, 4.266, -0.6088867, 4.266, -0.5107422, 4.266, 0.3349609, 0.1640769, -0.0062104, 4.266, 0.7407227, 4.266, -0.5458984, 4.266, 0.0727539, 0.1640769, -0.0003357, 4.266, 0.2402344, 4.266, -0.9682617, 4.266, 0.0322266, 0.1640769, 0.0219883, 4.266, -0.2001953, 4.266, -0.9814453, 4.266, 0.1772461, , , , , , , , , , , , , , , , , , , , , , 
0.1645962, 0.0191348, 4.2795, -0.6010742, 4.2795, -0.5009766, 4.2795, 0.3710938, 0.1645962, -0.0075532, 4.2795, 0.6323242, 4.2795, -0.4506836, 4.2795, 0.2016602, 0.1645962, -0.0008392, 4.2795, 0.2827148, 4.2795, -0.9589844, 4.2795, 0.0136719, 0.1645962, 0.0256809, 4.2795, -0.2070312, 4.2795, -0.9223633, 4.2795, 0.1513672, , , , , , , , , , , , , , , , , , , , , , 
0.1651154, 0.0219883, 4.293, -0.7739258, 4.293, -0.5385742, 4.293, 0.3847656, 0.1651154, -0.0078889, 4.293, 0.7827148, 4.293, -0.4394531, 4.293, 0.2041016, 0.1651154, -0.0031891, 4.293, 0.3085938, 4.293, -0.9291992, 4.293, 0.0439453, 0.1651154, 0.0276951, 4.293, -0.1953125, 4.293, -0.9438477, 4.293, 0.1494141, , , , , , , , , , , , , , , , , , , , , , 
0.1656346, 0.0240024, 4.3065, -0.9960938, 4.3065, -0.5151367, 4.3065, 0.3486328, 0.1656346, -0.0068818, 4.3065, 0.9633789, 4.3065, -0.5219727, 4.3065, 0.2070312, 0.1656346, -0.005539, 4.3065, 0.3432617, 4.3065, -0.9760742, 4.3065, 0.0283203, 0.1656346, 0.027863, 4.3065, -0.1611328, 4.3065, -1, 4.3065, 0.1479492, , , , , , , , , , , , , , , , , , , , , , 
0.1661538, 0.026688, 4.32, -0.8691406, 4.32, -0.4907227, 4.32, 0.362793, 0.1661538, -0.0063783, 4.32, 0.8964844, 4.32, -0.5170898, 4.32, 0.1376953, 0.1661538, -0.0068818, 4.32, 0.3022461, 4.32, -1.0102539, 4.32, 0.0400391, 0.1661538, 0.0265202, 4.32, -0.1323242, 4.32, -0.9814453, 4.32, 0.1362305, , , , , , , , , , , , , , , , , , , , , , 
0.1666731, 0.0273594, 4.3335, -0.5996094, 4.3335, -0.5454102, 4.3335, 0.3789062, 0.1666731, -0.006714, 4.3335, 0.7807617, 4.3335, -0.4838867, 4.3335, 0.1748047, 0.1666731, -0.0072175, 4.3335, 0.2792969, 4.3335, -0.9511719, 4.3335, 0.0234375, 0.1666731, 0.0240024, 4.3335, -0.1293945, 4.3335, -0.9599609, 4.3335, 0.1274414, , , , , , , , , , , , , , , , , , , , , , 
0.1671923, 0.0231632, 4.347, -0.6479492, 4.347, -0.5507812, 4.347, 0.3696289, 0.1671923, -0.0075532, 4.347, 0.7558594, 4.347, -0.5307617, 4.347, 0.1962891, 0.1671923, -0.0068818, 4.347, 0.3408203, 4.347, -0.940918, 4.347, 0.027832, 0.1671923, 0.021149, 4.347, -0.1381836, 4.347, -0.96875, 4.347, 0.1264648, , , , , , , , , , , , , , , , , , , , , , 
0.1677115, 0.0196384, 4.3605, -0.8139648, 4.3605, -0.5151367, 4.3605, 0.3291016, 0.1677115, -0.0092317, 4.3605, 0.887207, 4.3605, -0.5483398, 4.3605, 0.1748047, 0.1677115, -0.0062104, 4.3605, 0.375, 4.3605, -0.9926758, 4.3605, 0.0356445, 0.1677115, 0.0176242, 4.3605, -0.1601562, 4.3605, -1.0009766, 4.3605, 0.1362305, , , , , , , , , , , , , , , , , , , , , , 
0.1682308, 0.0218204, 4.374, -0.8564453, 4.374, -0.5244141, 4.374, 0.340332, 0.1682308, -0.0109102, 4.374, 0.8657227, 4.374, -0.5180664, 4.374, 0.206543, 0.1682308, -0.0057069, 4.374, 0.2924805, 4.374, -0.9946289, 4.374, 0.0390625, 0.1682308, 0.0146029, 4.374, -0.1796875, 4.374, -0.9912109, 4.374, 0.1513672, , , , , , , , , , , , , , , , , , , , , , 
0.16875, 0.0223239, 4.3875, -0.8100586, 4.3875, -0.5214844, 4.3875, 0.3178711, 0.16875, -0.0099031, 4.3875, 0.800293, 4.3875, -0.4770508, 4.3875, 0.1733398, 0.16875, -0.0048676, 4.3875, 0.2563477, 4.3875, -0.9663086, 4.3875, 0.03125, 0.16875, 0.0129244, 4.3875, -0.2075195, 4.3875, -0.9550781, 4.3875, 0.1582031, , , , , , , , , , , , , , , , , , , , , , 
0.1692692, 0.0216526, 4.401, -0.71875, 4.401, -0.5180664, 4.401, 0.3476562, 0.1692692, -0.0062104, 4.401, 0.7646484, 4.401, -0.4838867, 4.401, 0.2382812, 0.1692692, -0.005539, 4.401, 0.2324219, 4.401, -0.940918, 4.401, 0.0483398, 0.1692692, 0.0119173, 4.401, -0.2265625, 4.401, -0.9365234, 4.401, 0.1474609, , , , , , , , , , , , , , , , , , , , , , 
0.1697885, 0.0236667, 4.4145, -0.7280273, 4.4145, -0.5131836, 4.4145, 0.4536133, 0.1697885, -0.0058747, 4.4145, 0.8164062, 4.4145, -0.484375, 4.4145, 0.2177734, 0.1697885, -0.0068818, 4.4145, 0.2685547, 4.4145, -0.9511719, 4.4145, 0.0512695, 0.1697885, 0.0090639, 4.4145, -0.2299805, 4.4145, -0.9277344, 4.4145, 0.125, , , , , , , , , , , , , , , , , , , , , , 
0.1703077, 0.0219883, 4.428, -0.8525391, 4.428, -0.4848633, 4.428, 0.2861328, 0.1703077, -0.0075532, 4.428, 1.0874023, 4.428, -0.4790039, 4.428, 0.1904297, 0.1703077, -0.0065461, 4.428, 0.2587891, 4.428, -0.9833984, 4.428, 0.0922852, 0.1703077, 0.0092317, 4.428, -0.2475586, 4.428, -0.9912109, 4.428, 0.1235352, , , , , , , , , , , , , , , , , , , , , , 
0.1708269, 0.0209812, 4.4415, -0.7666016, 4.4415, -0.4316406, 4.4415, 0.3666992, 0.1708269, -0.0075532, 4.4415, 0.7851562, 4.4415, -0.4790039, 4.4415, 0.105957, 0.1708269, -0.0068818, 4.4415, 0.2944336, 4.4415, -1.027832, 4.4415, 0.0234375, 0.1708269, 0.0092317, 4.4415, -0.1899414, 4.4415, -1.012207, 4.4415, 0.1884766, , , , , , , , , , , , , , , , , , , , , , 
0.1713462, 0.0172885, 4.455, -0.5859375, 4.455, -0.5498047, 4.455, 0.3525391, 0.1713462, -0.0082246, 4.455, 0.5991211, 4.455, -0.5668945, 4.455, 0.09375, 0.1713462, -0.0068818, 4.455, 0.3242188, 4.455, -0.9541016, 4.455, 0.003418, 0.1713462, 0.0083925, 4.455, -0.125, 4.455, -0.9833984, 4.455, 0.1572266, , , , , , , , , , , , , , , , , , , , , , 
