Timestamps,channel_1,channel_2,channel_3,channel_4,channel_5,channel_6,channel_7,channel_8,ACC_X,ACC_Y,ACC_Z,GYR_X,GYR_Y,GYR_Z
13_06_06_862,0.0,0.0,0.0,0.0,0.0,0.0,0.0,0.0,0.0,0.0,0.0,0.0,0.0,0.0
13_06_06_862,0.0,0.0,0.0,0.0,0.0,0.0,0.0,0.0,0.0,0.0,0.0,0.0,0.0,0.0
13_06_06_862,0.0,0.0,0.0,0.0,0.0,0.0,0.0,0.0,0.0,0.0,0.0,0.0,0.0,0.0
13_06_06_862,0.0,0.0,0.0,0.0,0.0,0.0,0.0,0.0,0.0,0.0,0.0,0.0,0.0,0.0
13_06_06_862,0.0,0.0,0.0,0.0,0.0,0.0,0.0,0.0,0.0,0.0,0.0,0.0,0.0,0.0
13_06_06_862,0.0,0.0,0.0,0.0,0.0,0.0,0.0,0.0,0.0,0.0,0.0,0.0,0.0,0.0
13_06_06_862,0.0,0.0,0.0,0.0,0.0,0.0,0.0,0.0,0.0,0.0,0.0,0.0,0.0,0.0
13_06_06_862,0.0,0.0,0.0,0.0,0.0,0.0,0.0,0.0,0.0,0.0,0.0,0.0,0.0,0.0
13_06_06_862,0.0,0.0,0.0,0.0,0.0,0.0,0.0,0.0,0.0,0.0,0.0,0.0,0.0,0.0
13_06_06_862,0.0,0.0,0.0,0.0,0.0,0.0,0.0,0.0,0.0,0.0,0.0,0.0,0.0,0.0
13_06_08_647,-3.0,-3.0,-1.0,-2.0,-4.0,-3.0,-4.0,-5.0,0.0,0.0,0.0,0.0,0.0,0.0
13_06_08_647,0.0,0.0,0.0,0.0,0.0,0.0,0.0,0.0,0.0,0.0,0.0,0.0,0.0,0.0
13_06_08_647,0.0,0.0,0.0,0.0,0.0,0.0,0.0,0.0,0.0,0.0,0.0,0.0,0.0,0.0
13_06_08_647,0.0,0.0,0.0,0.0,0.0,0.0,0.0,0.0,0.0,0.0,0.0,0.0,0.0,0.0
13_06_08_647,0.0,0.0,0.0,0.0,0.0,0.0,0.0,0.0,0.0,0.0,0.0,0.0,0.0,0.0
13_06_08_647,0.0,0.0,0.0,0.0,0.0,0.0,0.0,0.0,0.0,0.0,0.0,0.0,0.0,0.0
13_06_08_647,0.0,0.0,0.0,0.0,0.0,0.0,0.0,0.0,0.0,0.0,0.0,0.0,0.0,0.0
13_06_08_647,0.0,0.0,0.0,0.0,0.0,0.0,0.0,0.0,0.0,0.0,0.0,0.0,0.0,0.0
13_06_08_647,0.0,0.0,0.0,0.0,0.0,0.0,0.0,0.0,0.0,0.0,0.0,0.0,0.0,0.0
13_06_08_685,1.0,-4.0,0.0,1.0,2.0,2.0,-7.0,-3.0,0.91796875,-0.091796875,0.31298828125,-0.5487804878048781,0.853658536585366,0.853658536585366
13_06_08_685,-2.0,1.0,0.0,-2.0,-1.0,-2.0,2.0,1.0,0.93310546875,-0.09228515625,0.31982421875,-0.12195121951219513,-0.6707317073170732,0.7926829268292683
13_06_08_685,1.0,-4.0,0.0,1.0,2.0,2.0,-7.0,-3.0,0.93115234375,-0.09375,0.318359375,0.1829268292682927,-1.0365853658536586,0.5487804878048781
13_06_08_685,-2.0,1.0,0.0,-2.0,-1.0,-2.0,2.0,1.0,0.9267578125,-0.0927734375,0.3115234375,-0.48780487804878053,-1.4634146341463417,0.426829268292683
13_06_08_685,0.0,-1.0,0.0,1.0,-3.0,0.0,-3.0,-1.0,0.0,0.0,0.0,0.0,0.0,0.0
13_06_08_685,-2.0,-3.0,2.0,-2.0,-3.0,-4.0,2.0,-1.0,0.0,0.0,0.0,0.0,0.0,0.0
13_06_08_685,-4.0,-1.0,-2.0,0.0,-1.0,-1.0,-4.0,1.0,0.0,0.0,0.0,0.0,0.0,0.0
13_06_08_685,1.0,0.0,-1.0,-1.0,0.0,1.0,0.0,-5.0,0.0,0.0,0.0,0.0,0.0,0.0
13_06_08_685,-4.0,-1.0,-2.0,0.0,-1.0,-1.0,-4.0,1.0,0.0,0.0,0.0,0.0,0.0,0.0
13_06_08_685,1.0,0.0,-1.0,-1.0,0.0,1.0,0.0,-5.0,0.0,0.0,0.0,0.0,0.0,0.0
13_06_08_741,1.0,-2.0,-6.0,0.0,1.0,0.0,-5.0,0.0,0.91796875,-0.091796875,0.31298828125,-0.5487804878048781,0.853658536585366,0.853658536585366
13_06_08_741,0.0,-1.0,-1.0,1.0,-2.0,-3.0,-2.0,-4.0,0.93310546875,-0.09228515625,0.31982421875,-0.12195121951219513,-0.6707317073170732,0.7926829268292683
13_06_08_741,1.0,-4.0,0.0,1.0,2.0,2.0,-7.0,-3.0,0.93115234375,-0.09375,0.318359375,0.1829268292682927,-1.0365853658536586,0.5487804878048781
13_06_08_741,-2.0,1.0,0.0,-2.0,-1.0,-2.0,2.0,1.0,0.9267578125,-0.0927734375,0.3115234375,-0.48780487804878053,-1.4634146341463417,0.426829268292683
13_06_08_741,1.0,-4.0,0.0,1.0,2.0,2.0,-7.0,-3.0,0.0,0.0,0.0,0.0,0.0,0.0
13_06_08_741,-2.0,1.0,0.0,-2.0,-1.0,-2.0,2.0,1.0,0.0,0.0,0.0,0.0,0.0,0.0
13_06_08_741,0.0,-1.0,0.0,1.0,-3.0,0.0,-3.0,-1.0,0.0,0.0,0.0,0.0,0.0,0.0
13_06_08_741,-2.0,-3.0,2.0,-2.0,-3.0,-4.0,2.0,-1.0,0.0,0.0,0.0,0.0,0.0,0.0
13_06_08_788,-3.0,-4.0,1.0,-1.0,2.0,-2.0,9.0,-2.0,1.154296875,0.01123046875,0.55078125,-5.426829268292684,-0.9146341463414634,0.9756097560975611
13_06_08_788,-4.0,2.0,-3.0,-8.0,-5.0,2.0,-4.0,-3.0,0.2373046875,-0.16015625,-0.275390625,-3.536585365853659,-1.1585365853658538,1.829268292682927
13_06_08_788,1.0,3.0,-3.0,-4.0,2.0,-4.0,7.0,-1.0,0.794921875,-0.11181640625,0.2744140625,-1.2804878048780488,-0.24390243902439027,-0.06097560975609757
13_06_08_788,-6.0,3.0,-1.0,7.0,-8.0,1.0,-7.0,-3.0,0.91162109375,-0.09228515625,0.3017578125,-2.378048780487805,0.7926829268292683,0.853658536585366
13_06_08_788,-2.0,-1.0,3.0,3.0,2.0,-2.0,1.0,-1.0,0.91796875,-0.091796875,0.31298828125,-0.5487804878048781,0.853658536585366,0.853658536585366
13_06_08_788,-4.0,-1.0,-2.0,0.0,0.0,0.0,-5.0,1.0,0.93310546875,-0.09228515625,0.31982421875,-0.12195121951219513,-0.6707317073170732,0.7926829268292683
13_06_08_788,9.0,6.0,1.0,-3.0,1.0,-1.0,4.0,2.0,0.93115234375,-0.09375,0.318359375,0.1829268292682927,-1.0365853658536586,0.5487804878048781
13_06_08_788,-5.0,2.0,-3.0,-2.0,-5.0,-3.0,-6.0,-6.0,0.9267578125,-0.0927734375,0.3115234375,-0.48780487804878053,-1.4634146341463417,0.426829268292683
13_06_08_788,-3.0,1.0,6.0,-1.0,8.0,1.0,3.0,0.0,0.0,0.0,0.0,0.0,0.0,0.0
13_06_08_835,-2.0,-3.0,-4.0,-3.0,-4.0,1.0,0.0,-2.0,1.51318359375,0.0517578125,1.06396484375,-3.5975609756097566,-4.451219512195122,1.524390243902439
13_06_08_835,6.0,-2.0,-1.0,-4.0,2.0,-5.0,10.0,-3.0,0.8408203125,-0.19482421875,0.234375,2.6219512195121952,-5.121951219512195,-1.1585365853658538
13_06_08_835,-4.0,0.0,0.0,-3.0,-3.0,-1.0,-3.0,-3.0,0.33935546875,-0.2861328125,-0.4482421875,2.987804878048781,-3.658536585365854,-0.426829268292683
13_06_08_835,4.0,-2.0,-1.0,2.0,1.0,-5.0,7.0,0.0,1.154296875,0.01123046875,0.55078125,-5.426829268292684,-0.9146341463414634,0.9756097560975611
13_06_08_835,-1.0,1.0,-2.0,-1.0,-3.0,2.0,-8.0,0.0,0.2373046875,-0.16015625,-0.275390625,-3.536585365853659,-1.1585365853658538,1.829268292682927
13_06_08_835,0.0,-4.0,1.0,-1.0,3.0,-2.0,5.0,-2.0,0.794921875,-0.11181640625,0.2744140625,-1.2804878048780488,-0.24390243902439027,-0.06097560975609757
13_06_08_835,0.0,3.0,-3.0,-3.0,-2.0,-4.0,-6.0,1.0,0.91162109375,-0.09228515625,0.3017578125,-2.378048780487805,0.7926829268292683,0.853658536585366
13_06_08_835,1.0,-5.0,-1.0,-3.0,4.0,-5.0,7.0,-2.0,0.91796875,-0.091796875,0.31298828125,-0.5487804878048781,0.853658536585366,0.853658536585366
13_06_08_835,-1.0,5.0,-1.0,4.0,-2.0,-1.0,-5.0,2.0,0.93310546875,-0.09228515625,0.31982421875,-0.12195121951219513,-0.6707317073170732,0.7926829268292683
13_06_08_835,-3.0,-4.0,1.0,-1.0,2.0,-2.0,9.0,-2.0,0.93115234375,-0.09375,0.318359375,0.1829268292682927,-1.0365853658536586,0.5487804878048781
13_06_08_897,-1.0,0.0,2.0,3.0,-1.0,2.0,-5.0,1.0,1.0205078125,-0.01025390625,0.40625,-2.987804878048781,-4.146341463414634,0.6707317073170732
13_06_08_897,8.0,-3.0,-1.0,-3.0,6.0,-5.0,10.0,-1.0,1.51318359375,0.0517578125,1.06396484375,-3.5975609756097566,-4.451219512195122,1.524390243902439
13_06_08_897,-2.0,-3.0,-4.0,-3.0,-4.0,1.0,0.0,-2.0,0.8408203125,-0.19482421875,0.234375,2.6219512195121952,-5.121951219512195,-1.1585365853658538
13_06_08_897,6.0,-2.0,-1.0,-4.0,2.0,-5.0,10.0,-3.0,0.33935546875,-0.2861328125,-0.4482421875,2.987804878048781,-3.658536585365854,-0.426829268292683
13_06_08_897,-4.0,0.0,0.0,-3.0,-3.0,-1.0,-3.0,-3.0,1.154296875,0.01123046875,0.55078125,-5.426829268292684,-0.9146341463414634,0.9756097560975611
13_06_08_897,4.0,-2.0,-1.0,2.0,1.0,-5.0,7.0,0.0,0.2373046875,-0.16015625,-0.275390625,-3.536585365853659,-1.1585365853658538,1.829268292682927
13_06_08_897,-1.0,1.0,-2.0,-1.0,-3.0,2.0,-8.0,0.0,0.794921875,-0.11181640625,0.2744140625,-1.2804878048780488,-0.24390243902439027,-0.06097560975609757
13_06_08_897,0.0,-4.0,1.0,-1.0,3.0,-2.0,5.0,-2.0,0.91162109375,-0.09228515625,0.3017578125,-2.378048780487805,0.7926829268292683,0.853658536585366
13_06_08_897,0.0,3.0,-3.0,-3.0,-2.0,-4.0,-6.0,1.0,0.91796875,-0.091796875,0.31298828125,-0.5487804878048781,0.853658536585366,0.853658536585366
13_06_08_897,1.0,-5.0,-1.0,-3.0,4.0,-5.0,7.0,-2.0,0.93310546875,-0.09228515625,0.31982421875,-0.12195121951219513,-0.6707317073170732,0.7926829268292683
13_06_08_942,-1.0,2.0,-1.0,4.0,-5.0,1.0,-3.0,2.0,0.935546875,-0.14111328125,0.34912109375,1.0365853658536586,-3.2926829268292686,-1.707317073170732
13_06_08_942,2.0,-6.0,3.0,-3.0,4.0,-5.0,5.0,1.0,0.35498046875,-0.251953125,-0.455078125,3.048780487804878,-4.695121951219512,-0.9146341463414634
13_06_08_942,-1.0,1.0,-2.0,-5.0,-4.0,1.0,-3.0,2.0,1.0205078125,-0.01025390625,0.40625,-2.987804878048781,-4.146341463414634,0.6707317073170732
13_06_08_942,2.0,2.0,0.0,-1.0,7.0,-3.0,4.0,-1.0,1.51318359375,0.0517578125,1.06396484375,-3.5975609756097566,-4.451219512195122,1.524390243902439
13_06_08_942,-4.0,0.0,0.0,-2.0,1.0,3.0,-1.0,2.0,0.8408203125,-0.19482421875,0.234375,2.6219512195121952,-5.121951219512195,-1.1585365853658538
13_06_08_942,0.0,2.0,0.0,3.0,1.0,-4.0,8.0,-5.0,0.33935546875,-0.2861328125,-0.4482421875,2.987804878048781,-3.658536585365854,-0.426829268292683
13_06_08_942,-1.0,0.0,2.0,3.0,-1.0,2.0,-5.0,1.0,1.154296875,0.01123046875,0.55078125,-5.426829268292684,-0.9146341463414634,0.9756097560975611
13_06_08_942,8.0,-3.0,-1.0,-3.0,6.0,-5.0,10.0,-1.0,0.2373046875,-0.16015625,-0.275390625,-3.536585365853659,-1.1585365853658538,1.829268292682927
13_06_08_942,-2.0,-3.0,-4.0,-3.0,-4.0,1.0,0.0,-2.0,0.794921875,-0.11181640625,0.2744140625,-1.2804878048780488,-0.24390243902439027,-0.06097560975609757
13_06_08_942,6.0,-2.0,-1.0,-4.0,2.0,-5.0,10.0,-3.0,0.91162109375,-0.09228515625,0.3017578125,-2.378048780487805,0.7926829268292683,0.853658536585366
13_06_08_998,-3.0,-2.0,-4.0,1.0,-3.0,-2.0,-4.0,1.0,0.3720703125,-0.27197265625,-0.373046875,0.48780487804878053,0.30487804878048785,-0.6097560975609757
13_06_08_998,2.0,1.0,1.0,3.0,6.0,-1.0,4.0,1.0,0.935546875,-0.14111328125,0.34912109375,1.0365853658536586,-3.2926829268292686,-1.707317073170732
13_06_08_998,-7.0,1.0,-2.0,-2.0,-4.0,1.0,-5.0,1.0,0.35498046875,-0.251953125,-0.455078125,3.048780487804878,-4.695121951219512,-0.9146341463414634
13_06_08_998,7.0,1.0,2.0,-7.0,0.0,-2.0,3.0,1.0,1.0205078125,-0.01025390625,0.40625,-2.987804878048781,-4.146341463414634,0.6707317073170732
13_06_08_998,-2.0,1.0,0.0,-3.0,0.0,0.0,-4.0,-2.0,1.51318359375,0.0517578125,1.06396484375,-3.5975609756097566,-4.451219512195122,1.524390243902439
13_06_08_998,2.0,-3.0,-1.0,4.0,3.0,-4.0,6.0,-2.0,0.8408203125,-0.19482421875,0.234375,2.6219512195121952,-5.121951219512195,-1.1585365853658538
13_06_08_998,-1.0,2.0,-1.0,4.0,-5.0,1.0,-3.0,2.0,0.33935546875,-0.2861328125,-0.4482421875,2.987804878048781,-3.658536585365854,-0.426829268292683
13_06_08_998,2.0,-6.0,3.0,-3.0,4.0,-5.0,5.0,1.0,1.154296875,0.01123046875,0.55078125,-5.426829268292684,-0.9146341463414634,0.9756097560975611
13_06_08_998,-1.0,1.0,-2.0,-5.0,-4.0,1.0,-3.0,2.0,0.2373046875,-0.16015625,-0.275390625,-3.536585365853659,-1.1585365853658538,1.829268292682927
13_06_08_998,2.0,2.0,0.0,-1.0,7.0,-3.0,4.0,-1.0,0.794921875,-0.11181640625,0.2744140625,-1.2804878048780488,-0.24390243902439027,-0.06097560975609757
13_06_09_045,0.0,2.0,1.0,-1.0,-1.0,-2.0,-1.0,-4.0,0.3720703125,-0.27197265625,-0.373046875,0.48780487804878053,0.30487804878048785,-0.6097560975609757
13_06_09_045,0.0,3.0,0.0,-1.0,0.0,-3.0,2.0,-1.0,0.935546875,-0.14111328125,0.34912109375,1.0365853658536586,-3.2926829268292686,-1.707317073170732
13_06_09_045,-7.0,-1.0,1.0,-6.0,-1.0,3.0,-1.0,-3.0,0.35498046875,-0.251953125,-0.455078125,3.048780487804878,-4.695121951219512,-0.9146341463414634
13_06_09_045,5.0,-3.0,-2.0,-2.0,3.0,-3.0,1.0,-5.0,1.0205078125,-0.01025390625,0.40625,-2.987804878048781,-4.146341463414634,0.6707317073170732
13_06_09_045,-3.0,-2.0,-4.0,1.0,-3.0,-2.0,-4.0,1.0,1.51318359375,0.0517578125,1.06396484375,-3.5975609756097566,-4.451219512195122,1.524390243902439
13_06_09_045,2.0,1.0,1.0,3.0,6.0,-1.0,4.0,1.0,0.8408203125,-0.19482421875,0.234375,2.6219512195121952,-5.121951219512195,-1.1585365853658538
13_06_09_045,-7.0,1.0,-2.0,-2.0,-4.0,1.0,-5.0,1.0,0.33935546875,-0.2861328125,-0.4482421875,2.987804878048781,-3.658536585365854,-0.426829268292683
13_06_09_045,7.0,1.0,2.0,-7.0,0.0,-2.0,3.0,1.0,1.154296875,0.01123046875,0.55078125,-5.426829268292684,-0.9146341463414634,0.9756097560975611
13_06_09_045,-2.0,1.0,0.0,-3.0,0.0,0.0,-4.0,-2.0,0.2373046875,-0.16015625,-0.275390625,-3.536585365853659,-1.1585365853658538,1.829268292682927
13_06_09_045,2.0,-3.0,-1.0,4.0,3.0,-4.0,6.0,-2.0,0.794921875,-0.11181640625,0.2744140625,-1.2804878048780488,-0.24390243902439027,-0.06097560975609757
13_06_09_104,1.0,0.0,-4.0,-4.0,-4.0,-1.0,-2.0,-2.0,1.384765625,0.07568359375,0.8642578125,-8.902439024390244,2.7439024390243905,2.8658536585365857
13_06_09_104,-4.0,-7.0,-8.0,-1.0,1.0,-3.0,-6.0,-1.0,1.20458984375,-0.0615234375,0.705078125,-4.2682926829268295,1.707317073170732,0.6707317073170732
13_06_09_104,-2.0,3.0,3.0,2.0,0.0,-1.0,0.0,0.0,0.3720703125,-0.27197265625,-0.373046875,0.48780487804878053,0.30487804878048785,-0.6097560975609757
13_06_09_104,3.0,-9.0,-6.0,-4.0,-3.0,-3.0,3.0,-1.0,0.935546875,-0.14111328125,0.34912109375,1.0365853658536586,-3.2926829268292686,-1.707317073170732
13_06_09_104,0.0,2.0,1.0,-1.0,-1.0,-2.0,-1.0,-4.0,0.35498046875,-0.251953125,-0.455078125,3.048780487804878,-4.695121951219512,-0.9146341463414634
13_06_09_104,0.0,3.0,0.0,-1.0,0.0,-3.0,2.0,-1.0,1.0205078125,-0.01025390625,0.40625,-2.987804878048781,-4.146341463414634,0.6707317073170732
13_06_09_104,-7.0,-1.0,1.0,-6.0,-1.0,3.0,-1.0,-3.0,1.51318359375,0.0517578125,1.06396484375,-3.5975609756097566,-4.451219512195122,1.524390243902439
13_06_09_104,5.0,-3.0,-2.0,-2.0,3.0,-3.0,1.0,-5.0,0.8408203125,-0.19482421875,0.234375,2.6219512195121952,-5.121951219512195,-1.1585365853658538
13_06_09_104,-3.0,-2.0,-4.0,1.0,-3.0,-2.0,-4.0,1.0,0.33935546875,-0.2861328125,-0.4482421875,2.987804878048781,-3.658536585365854,-0.426829268292683
13_06_09_104,2.0,1.0,1.0,3.0,6.0,-1.0,4.0,1.0,1.154296875,0.01123046875,0.55078125,-5.426829268292684,-0.9146341463414634,0.9756097560975611
13_06_09_156,0.0,-2.0,-3.0,-2.0,2.0,-1.0,1.0,0.0,0.4921875,-0.1787109375,-0.251953125,-2.6219512195121952,2.0121951219512195,0.30487804878048785
13_06_09_156,-6.0,-3.0,0.0,-2.0,-4.0,1.0,-6.0,-1.0,1.384765625,0.07568359375,0.8642578125,-8.902439024390244,2.7439024390243905,2.8658536585365857
13_06_09_156,1.0,0.0,-4.0,-4.0,-4.0,-1.0,-2.0,-2.0,1.20458984375,-0.0615234375,0.705078125,-4.2682926829268295,1.707317073170732,0.6707317073170732
13_06_09_156,-4.0,-7.0,-8.0,-1.0,1.0,-3.0,-6.0,-1.0,0.3720703125,-0.27197265625,-0.373046875,0.48780487804878053,0.30487804878048785,-0.6097560975609757
13_06_09_156,-2.0,3.0,3.0,2.0,0.0,-1.0,0.0,0.0,0.935546875,-0.14111328125,0.34912109375,1.0365853658536586,-3.2926829268292686,-1.707317073170732
13_06_09_156,3.0,-9.0,-6.0,-4.0,-3.0,-3.0,3.0,-1.0,0.35498046875,-0.251953125,-0.455078125,3.048780487804878,-4.695121951219512,-0.9146341463414634
13_06_09_156,0.0,2.0,1.0,-1.0,-1.0,-2.0,-1.0,-4.0,1.0205078125,-0.01025390625,0.40625,-2.987804878048781,-4.146341463414634,0.6707317073170732
13_06_09_156,0.0,3.0,0.0,-1.0,0.0,-3.0,2.0,-1.0,1.51318359375,0.0517578125,1.06396484375,-3.5975609756097566,-4.451219512195122,1.524390243902439
13_06_09_156,-7.0,-1.0,1.0,-6.0,-1.0,3.0,-1.0,-3.0,0.8408203125,-0.19482421875,0.234375,2.6219512195121952,-5.121951219512195,-1.1585365853658538
13_06_09_156,5.0,-3.0,-2.0,-2.0,3.0,-3.0,1.0,-5.0,0.33935546875,-0.2861328125,-0.4482421875,2.987804878048781,-3.658536585365854,-0.426829268292683
13_06_09_195,-4.0,0.0,-6.0,4.0,-4.0,1.0,-5.0,-3.0,1.048828125,-0.01611328125,0.45166015625,-4.2682926829268295,-1.2804878048780488,-0.24390243902439027
13_06_09_195,6.0,-2.0,0.0,2.0,2.0,-5.0,6.0,-3.0,1.47021484375,0.0234375,1.015625,-4.2682926829268295,-1.2804878048780488,-1.1585365853658538
13_06_09_195,0.0,3.0,2.0,3.0,-1.0,-1.0,-5.0,-7.0,1.064453125,-0.12060546875,0.5166015625,1.1585365853658538,-1.6463414634146343,-1.0365853658536586
13_06_09_195,5.0,-2.0,1.0,-5.0,5.0,0.0,5.0,2.0,1.04052734375,-0.0078125,0.44677734375,-5.121951219512195,-0.12195121951219513,1.0975609756097562
13_06_09_195,-5.0,0.0,-1.0,-3.0,-2.0,3.0,-4.0,-1.0,0.4921875,-0.1787109375,-0.251953125,-2.6219512195121952,2.0121951219512195,0.30487804878048785
13_06_09_195,3.0,-3.0,-3.0,-3.0,1.0,-3.0,8.0,-1.0,1.384765625,0.07568359375,0.8642578125,-8.902439024390244,2.7439024390243905,2.8658536585365857
13_06_09_195,-7.0,0.0,-3.0,3.0,-2.0,3.0,-5.0,2.0,1.20458984375,-0.0615234375,0.705078125,-4.2682926829268295,1.707317073170732,0.6707317073170732
13_06_09_195,1.0,0.0,1.0,-1.0,1.0,-2.0,6.0,2.0,0.3720703125,-0.27197265625,-0.373046875,0.48780487804878053,0.30487804878048785,-0.6097560975609757
13_06_09_195,0.0,-2.0,0.0,1.0,-5.0,0.0,-7.0,-2.0,0.935546875,-0.14111328125,0.34912109375,1.0365853658536586,-3.2926829268292686,-1.707317073170732
13_06_09_285,2.0,-1.0,-2.0,-3.0,2.0,-6.0,8.0,-1.0,1.47021484375,0.0234375,1.015625,-4.2682926829268295,-1.2804878048780488,-1.1585365853658538
13_06_09_285,-4.0,0.0,-6.0,4.0,-4.0,1.0,-5.0,-3.0,1.064453125,-0.12060546875,0.5166015625,1.1585365853658538,-1.6463414634146343,-1.0365853658536586
13_06_09_285,6.0,-2.0,0.0,2.0,2.0,-5.0,6.0,-3.0,1.04052734375,-0.0078125,0.44677734375,-5.121951219512195,-0.12195121951219513,1.0975609756097562
13_06_09_285,0.0,3.0,2.0,3.0,-1.0,-1.0,-5.0,-7.0,0.4921875,-0.1787109375,-0.251953125,-2.6219512195121952,2.0121951219512195,0.30487804878048785
13_06_09_285,5.0,-2.0,1.0,-5.0,5.0,0.0,5.0,2.0,1.384765625,0.07568359375,0.8642578125,-8.902439024390244,2.7439024390243905,2.8658536585365857
13_06_09_285,-5.0,0.0,-1.0,-3.0,-2.0,3.0,-4.0,-1.0,1.20458984375,-0.0615234375,0.705078125,-4.2682926829268295,1.707317073170732,0.6707317073170732
13_06_09_285,3.0,-3.0,-3.0,-3.0,1.0,-3.0,8.0,-1.0,0.3720703125,-0.27197265625,-0.373046875,0.48780487804878053,0.30487804878048785,-0.6097560975609757
13_06_09_285,-7.0,0.0,-3.0,3.0,-2.0,3.0,-5.0,2.0,0.935546875,-0.14111328125,0.34912109375,1.0365853658536586,-3.2926829268292686,-1.707317073170732
13_06_09_327,4.0,-2.0,-1.0,4.0,5.0,-3.0,2.0,-2.0,1.50439453125,0.0556640625,1.04541015625,-4.451219512195122,1.9512195121951221,2.5609756097560976
13_06_09_327,-3.0,-1.0,0.0,-1.0,-2.0,0.0,-3.0,-3.0,1.4521484375,0.07666015625,0.94287109375,-5.3048780487804885,-0.3658536585365854,0.48780487804878053
13_06_09_327,3.0,-1.0,-2.0,-1.0,1.0,-5.0,6.0,-1.0,1.07763671875,-0.11767578125,0.52587890625,1.5853658536585367,-1.7682926829268295,-1.402439024390244
13_06_09_327,-3.0,-1.0,1.0,1.0,-5.0,-3.0,-4.0,-3.0,0.34716796875,-0.27978515625,-0.43603515625,3.9024390243902443,-2.1951219512195124,-1.8902439024390245
13_06_09_327,2.0,-3.0,3.0,1.0,3.0,-5.0,6.0,1.0,1.048828125,-0.01611328125,0.45166015625,-4.2682926829268295,-1.2804878048780488,-0.24390243902439027
13_06_09_327,-3.0,1.0,-3.0,-2.0,-2.0,0.0,-6.0,-1.0,1.47021484375,0.0234375,1.015625,-4.2682926829268295,-1.2804878048780488,-1.1585365853658538
13_06_09_327,3.0,-2.0,0.0,-3.0,3.0,-5.0,6.0,-4.0,1.064453125,-0.12060546875,0.5166015625,1.1585365853658538,-1.6463414634146343,-1.0365853658536586
13_06_09_327,-4.0,-4.0,-3.0,-1.0,-3.0,2.0,-3.0,0.0,1.04052734375,-0.0078125,0.44677734375,-5.121951219512195,-0.12195121951219513,1.0975609756097562
13_06_09_327,1.0,-3.0,0.0,2.0,1.0,0.0,6.0,-2.0,0.4921875,-0.1787109375,-0.251953125,-2.6219512195121952,2.0121951219512195,0.30487804878048785
13_06_09_327,-3.0,-2.0,4.0,-1.0,1.0,1.0,0.0,-2.0,1.384765625,0.07568359375,0.8642578125,-8.902439024390244,2.7439024390243905,2.8658536585365857
13_06_09_383,1.0,-1.0,-1.0,3.0,-2.0,-7.0,1.0,-3.0,0.896484375,-0.0498046875,0.27783203125,-3.658536585365854,1.6463414634146343,2.5609756097560976
13_06_09_383,-4.0,1.0,4.0,2.0,-2.0,0.0,-1.0,-3.0,1.50439453125,0.0556640625,1.04541015625,-4.451219512195122,1.9512195121951221,2.5609756097560976
13_06_09_383,4.0,-5.0,-6.0,-1.0,2.0,-4.0,3.0,1.0,1.4521484375,0.07666015625,0.94287109375,-5.3048780487804885,-0.3658536585365854,0.48780487804878053
13_06_09_383,-4.0,0.0,-1.0,0.0,-2.0,-4.0,-4.0,0.0,1.07763671875,-0.11767578125,0.52587890625,1.5853658536585367,-1.7682926829268295,-1.402439024390244
13_06_09_383,-1.0,-2.0,-5.0,-1.0,3.0,-3.0,7.0,-2.0,0.34716796875,-0.27978515625,-0.43603515625,3.9024390243902443,-2.1951219512195124,-1.8902439024390245
13_06_09_383,3.0,-2.0,-1.0,1.0,-3.0,-2.0,1.0,3.0,1.048828125,-0.01611328125,0.45166015625,-4.2682926829268295,-1.2804878048780488,-0.24390243902439027
13_06_09_383,4.0,-2.0,-1.0,4.0,5.0,-3.0,2.0,-2.0,1.47021484375,0.0234375,1.015625,-4.2682926829268295,-1.2804878048780488,-1.1585365853658538
13_06_09_383,-3.0,-1.0,0.0,-1.0,-2.0,0.0,-3.0,-3.0,1.064453125,-0.12060546875,0.5166015625,1.1585365853658538,-1.6463414634146343,-1.0365853658536586
13_06_09_383,3.0,-1.0,-2.0,-1.0,1.0,-5.0,6.0,-1.0,1.04052734375,-0.0078125,0.44677734375,-5.121951219512195,-0.12195121951219513,1.0975609756097562
13_06_09_383,-3.0,-1.0,1.0,1.0,-5.0,-3.0,-4.0,-3.0,0.4921875,-0.1787109375,-0.251953125,-2.6219512195121952,2.0121951219512195,0.30487804878048785
13_06_09_427,3.0,-4.0,-1.0,-2.0,1.0,0.0,1.0,-5.0,0.369140625,-0.2900390625,-0.365234375,4.634146341463415,0.6097560975609757,-0.6097560975609757
13_06_09_427,1.0,-6.0,-6.0,2.0,-4.0,-5.0,-5.0,-3.0,0.896484375,-0.0498046875,0.27783203125,-3.658536585365854,1.6463414634146343,2.5609756097560976
13_06_09_427,-1.0,0.0,1.0,1.0,1.0,1.0,1.0,-3.0,1.50439453125,0.0556640625,1.04541015625,-4.451219512195122,1.9512195121951221,2.5609756097560976
13_06_09_427,-2.0,-6.0,-5.0,-1.0,-2.0,-2.0,-6.0,-1.0,1.4521484375,0.07666015625,0.94287109375,-5.3048780487804885,-0.3658536585365854,0.48780487804878053
13_06_09_427,-3.0,-2.0,4.0,-4.0,-2.0,0.0,-4.0,-3.0,1.07763671875,-0.11767578125,0.52587890625,1.5853658536585367,-1.7682926829268295,-1.402439024390244
13_06_09_427,1.0,-8.0,-6.0,-3.0,-4.0,-8.0,-2.0,-2.0,0.34716796875,-0.27978515625,-0.43603515625,3.9024390243902443,-2.1951219512195124,-1.8902439024390245
13_06_09_427,-1.0,-3.0,-1.0,-3.0,1.0,1.0,0.0,1.0,1.048828125,-0.01611328125,0.45166015625,-4.2682926829268295,-1.2804878048780488,-0.24390243902439027
13_06_09_427,1.0,-1.0,-1.0,3.0,-2.0,-7.0,1.0,-3.0,1.47021484375,0.0234375,1.015625,-4.2682926829268295,-1.2804878048780488,-1.1585365853658538
13_06_09_427,-4.0,1.0,4.0,2.0,-2.0,0.0,-1.0,-3.0,1.064453125,-0.12060546875,0.5166015625,1.1585365853658538,-1.6463414634146343,-1.0365853658536586
13_06_09_476,-3.0,2.0,-5.0,-3.0,-4.0,0.0,-6.0,0.0,0.671875,-0.115234375,-0.0224609375,-0.24390243902439027,0.1829268292682927,0.12195121951219513
13_06_09_476,1.0,-1.0,-1.0,-1.0,-1.0,-1.0,7.0,6.0,0.85107421875,-0.189453125,0.24853515625,3.9024390243902443,-0.7317073170731708,-0.9146341463414634
13_06_09_476,-4.0,2.0,-3.0,1.0,-1.0,5.0,-8.0,-1.0,0.3837890625,-0.23583984375,-0.38427734375,3.1097560975609757,-0.6097560975609757,-0.6707317073170732
13_06_09_476,-1.0,-5.0,2.0,4.0,-3.0,-1.0,-1.0,1.0,1.25732421875,-0.0615234375,0.7626953125,0.30487804878048785,1.2804878048780488,0.5487804878048781
13_06_09_476,-5.0,-2.0,-4.0,-3.0,-4.0,3.0,-6.0,0.0,0.369140625,-0.2900390625,-0.365234375,4.634146341463415,0.6097560975609757,-0.6097560975609757
13_06_09_476,0.0,1.0,0.0,-2.0,-3.0,-3.0,-2.0,2.0,0.896484375,-0.0498046875,0.27783203125,-3.658536585365854,1.6463414634146343,2.5609756097560976
13_06_09_476,-5.0,-3.0,-5.0,-1.0,-7.0,4.0,-11.0,0.0,1.50439453125,0.0556640625,1.04541015625,-4.451219512195122,1.9512195121951221,2.5609756097560976
13_06_09_476,2.0,-3.0,0.0,2.0,-2.0,2.0,-1.0,-3.0,1.4521484375,0.07666015625,0.94287109375,-5.3048780487804885,-0.3658536585365854,0.48780487804878053
13_06_09_476,-4.0,-1.0,-5.0,-3.0,-4.0,1.0,-10.0,-3.0,1.07763671875,-0.11767578125,0.52587890625,1.5853658536585367,-1.7682926829268295,-1.402439024390244
13_06_09_476,3.0,-2.0,-3.0,-2.0,-1.0,-3.0,1.0,-1.0,0.34716796875,-0.27978515625,-0.43603515625,3.9024390243902443,-2.1951219512195124,-1.8902439024390245
13_06_09_533,-3.0,2.0,0.0,0.0,-3.0,3.0,-10.0,-1.0,0.671875,-0.115234375,-0.0224609375,-0.24390243902439027,0.1829268292682927,0.12195121951219513
13_06_09_533,0.0,3.0,9.0,-3.0,8.0,2.0,3.0,0.0,0.85107421875,-0.189453125,0.24853515625,3.9024390243902443,-0.7317073170731708,-0.9146341463414634
13_06_09_533,-3.0,2.0,-5.0,-3.0,-4.0,0.0,-6.0,0.0,0.3837890625,-0.23583984375,-0.38427734375,3.1097560975609757,-0.6097560975609757,-0.6707317073170732
13_06_09_533,1.0,-1.0,-1.0,-1.0,-1.0,-1.0,7.0,6.0,1.25732421875,-0.0615234375,0.7626953125,0.30487804878048785,1.2804878048780488,0.5487804878048781
13_06_09_533,-4.0,2.0,-3.0,1.0,-1.0,5.0,-8.0,-1.0,0.369140625,-0.2900390625,-0.365234375,4.634146341463415,0.6097560975609757,-0.6097560975609757
13_06_09_533,-1.0,-5.0,2.0,4.0,-3.0,-1.0,-1.0,1.0,0.896484375,-0.0498046875,0.27783203125,-3.658536585365854,1.6463414634146343,2.5609756097560976
13_06_09_533,-5.0,-2.0,-4.0,-3.0,-4.0,3.0,-6.0,0.0,1.50439453125,0.0556640625,1.04541015625,-4.451219512195122,1.9512195121951221,2.5609756097560976
13_06_09_533,0.0,1.0,0.0,-2.0,-3.0,-3.0,-2.0,2.0,1.4521484375,0.07666015625,0.94287109375,-5.3048780487804885,-0.3658536585365854,0.48780487804878053
13_06_09_585,-4.0,-3.0,2.0,-2.0,-1.0,0.0,-3.0,-1.0,1.36279296875,0.06787109375,0.82177734375,-3.5975609756097566,1.2804878048780488,1.3414634146341464
13_06_09_585,6.0,-3.0,-4.0,-2.0,0.0,-3.0,8.0,-1.0,0.341796875,-0.27880859375,-0.4228515625,4.939024390243903,1.1585365853658538,0.6097560975609757
13_06_09_585,-3.0,3.0,1.0,4.0,-2.0,1.0,-2.0,-1.0,1.03955078125,-0.0068359375,0.45068359375,-3.231707317073171,2.439024390243903,2.682926829268293
13_06_09_585,5.0,-2.0,-3.0,-5.0,2.0,-3.0,4.0,0.0,1.4482421875,0.02587890625,0.9716796875,-1.6463414634146343,1.7682926829268295,1.2195121951219514
13_06_09_585,-4.0,-3.0,0.0,0.0,-4.0,2.0,-6.0,-2.0,0.52001953125,-0.25537109375,-0.18212890625,5.426829268292684,0.30487804878048785,-1.0975609756097562
13_06_09_585,5.0,-6.0,0.0,-6.0,7.0,-3.0,7.0,-1.0,0.671875,-0.115234375,-0.0224609375,-0.24390243902439027,0.1829268292682927,0.12195121951219513
13_06_09_585,-6.0,2.0,5.0,0.0,-2.0,3.0,-7.0,0.0,0.85107421875,-0.189453125,0.24853515625,3.9024390243902443,-0.7317073170731708,-0.9146341463414634
13_06_09_585,3.0,-4.0,8.0,-5.0,2.0,-4.0,6.0,-1.0,0.3837890625,-0.23583984375,-0.38427734375,3.1097560975609757,-0.6097560975609757,-0.6707317073170732
13_06_09_585,-3.0,1.0,-2.0,-5.0,-3.0,4.0,-6.0,-2.0,1.25732421875,-0.0615234375,0.7626953125,0.30487804878048785,1.2804878048780488,0.5487804878048781
13_06_09_585,5.0,-1.0,2.0,0.0,2.0,-4.0,8.0,-6.0,0.369140625,-0.2900390625,-0.365234375,4.634146341463415,0.6097560975609757,-0.6097560975609757
13_06_09_629,-1.0,3.0,-1.0,4.0,-3.0,0.0,-3.0,2.0,0.41796875,-0.212890625,-0.33642578125,3.353658536585366,-0.30487804878048785,1.1585365853658538
13_06_09_629,4.0,0.0,1.0,1.0,4.0,-5.0,4.0,1.0,1.36279296875,0.06787109375,0.82177734375,-3.5975609756097566,1.2804878048780488,1.3414634146341464
13_06_09_629,-4.0,0.0,3.0,1.0,0.0,2.0,-3.0,-1.0,0.341796875,-0.27880859375,-0.4228515625,4.939024390243903,1.1585365853658538,0.6097560975609757
13_06_09_629,2.0,-3.0,-1.0,-6.0,5.0,-4.0,6.0,-2.0,1.03955078125,-0.0068359375,0.45068359375,-3.231707317073171,2.439024390243903,2.682926829268293
13_06_09_629,-4.0,-3.0,2.0,-2.0,-1.0,0.0,-3.0,-1.0,1.4482421875,0.02587890625,0.9716796875,-1.6463414634146343,1.7682926829268295,1.2195121951219514
13_06_09_629,6.0,-3.0,-4.0,-2.0,0.0,-3.0,8.0,-1.0,0.52001953125,-0.25537109375,-0.18212890625,5.426829268292684,0.30487804878048785,-1.0975609756097562
13_06_09_629,-3.0,3.0,1.0,4.0,-2.0,1.0,-2.0,-1.0,0.671875,-0.115234375,-0.0224609375,-0.24390243902439027,0.1829268292682927,0.12195121951219513
13_06_09_629,5.0,-2.0,-3.0,-5.0,2.0,-3.0,4.0,0.0,0.85107421875,-0.189453125,0.24853515625,3.9024390243902443,-0.7317073170731708,-0.9146341463414634
13_06_09_629,-4.0,-3.0,0.0,0.0,-4.0,2.0,-6.0,-2.0,0.3837890625,-0.23583984375,-0.38427734375,3.1097560975609757,-0.6097560975609757,-0.6707317073170732
13_06_09_629,5.0,-6.0,0.0,-6.0,7.0,-3.0,7.0,-1.0,1.25732421875,-0.0615234375,0.7626953125,0.30487804878048785,1.2804878048780488,0.5487804878048781
13_06_09_705,-3.0,-1.0,-1.0,2.0,0.0,0.0,-4.0,0.0,0.41796875,-0.212890625,-0.33642578125,3.353658536585366,-0.30487804878048785,1.1585365853658538
13_06_09_705,2.0,0.0,-2.0,0.0,1.0,-3.0,3.0,0.0,1.36279296875,0.06787109375,0.82177734375,-3.5975609756097566,1.2804878048780488,1.3414634146341464
13_06_09_705,-1.0,3.0,-1.0,4.0,-3.0,0.0,-3.0,2.0,0.341796875,-0.27880859375,-0.4228515625,4.939024390243903,1.1585365853658538,0.6097560975609757
13_06_09_705,4.0,0.0,1.0,1.0,4.0,-5.0,4.0,1.0,1.03955078125,-0.0068359375,0.45068359375,-3.231707317073171,2.439024390243903,2.682926829268293
13_06_09_705,-4.0,0.0,3.0,1.0,0.0,2.0,-3.0,-1.0,1.4482421875,0.02587890625,0.9716796875,-1.6463414634146343,1.7682926829268295,1.2195121951219514
13_06_09_705,2.0,-3.0,-1.0,-6.0,5.0,-4.0,6.0,-2.0,0.52001953125,-0.25537109375,-0.18212890625,5.426829268292684,0.30487804878048785,-1.0975609756097562
13_06_09_705,-4.0,-3.0,2.0,-2.0,-1.0,0.0,-3.0,-1.0,0.671875,-0.115234375,-0.0224609375,-0.24390243902439027,0.1829268292682927,0.12195121951219513
13_06_09_705,6.0,-3.0,-4.0,-2.0,0.0,-3.0,8.0,-1.0,0.85107421875,-0.189453125,0.24853515625,3.9024390243902443,-0.7317073170731708,-0.9146341463414634
13_06_09_705,-3.0,3.0,1.0,4.0,-2.0,1.0,-2.0,-1.0,0.3837890625,-0.23583984375,-0.38427734375,3.1097560975609757,-0.6097560975609757,-0.6707317073170732
13_06_09_705,5.0,-2.0,-3.0,-5.0,2.0,-3.0,4.0,0.0,1.25732421875,-0.0615234375,0.7626953125,0.30487804878048785,1.2804878048780488,0.5487804878048781
13_06_09_764,-2.0,2.0,0.0,-1.0,-5.0,1.0,-7.0,5.0,1.36279296875,0.06787109375,0.82177734375,-3.5975609756097566,1.2804878048780488,1.3414634146341464
13_06_09_764,7.0,-4.0,-7.0,-5.0,4.0,-5.0,6.0,-4.0,0.341796875,-0.27880859375,-0.4228515625,4.939024390243903,1.1585365853658538,0.6097560975609757
13_06_09_764,-3.0,-1.0,-1.0,2.0,0.0,0.0,-4.0,0.0,1.03955078125,-0.0068359375,0.45068359375,-3.231707317073171,2.439024390243903,2.682926829268293
13_06_09_764,2.0,0.0,-2.0,0.0,1.0,-3.0,3.0,0.0,1.4482421875,0.02587890625,0.9716796875,-1.6463414634146343,1.7682926829268295,1.2195121951219514
13_06_09_764,-1.0,3.0,-1.0,4.0,-3.0,0.0,-3.0,2.0,0.52001953125,-0.25537109375,-0.18212890625,5.426829268292684,0.30487804878048785,-1.0975609756097562
13_06_09_764,4.0,0.0,1.0,1.0,4.0,-5.0,4.0,1.0,0.671875,-0.115234375,-0.0224609375,-0.24390243902439027,0.1829268292682927,0.12195121951219513
13_06_09_764,-4.0,0.0,3.0,1.0,0.0,2.0,-3.0,-1.0,0.85107421875,-0.189453125,0.24853515625,3.9024390243902443,-0.7317073170731708,-0.9146341463414634
13_06_09_764,2.0,-3.0,-1.0,-6.0,5.0,-4.0,6.0,-2.0,0.3837890625,-0.23583984375,-0.38427734375,3.1097560975609757,-0.6097560975609757,-0.6707317073170732
13_06_09_809,-5.0,0.0,-4.0,1.0,-2.0,3.0,3.0,-1.0,1.50244140625,0.07568359375,1.0322265625,-4.390243902439025,0.5487804878048781,0.7926829268292683
13_06_09_809,0.0,-6.0,-6.0,0.0,-2.0,-4.0,-4.0,-1.0,0.81787109375,-0.19677734375,0.20263671875,4.085365853658537,-0.7926829268292683,0.48780487804878053
13_06_09_809,0.0,-5.0,2.0,-2.0,-3.0,0.0,-3.0,1.0,0.41796875,-0.212890625,-0.33642578125,3.353658536585366,-0.30487804878048785,1.1585365853658538
13_06_09_809,5.0,-1.0,1.0,-5.0,2.0,-3.0,3.0,-3.0,1.36279296875,0.06787109375,0.82177734375,-3.5975609756097566,1.2804878048780488,1.3414634146341464
13_06_09_809,-5.0,-1.0,0.0,-6.0,-2.0,2.0,-4.0,-2.0,0.341796875,-0.27880859375,-0.4228515625,4.939024390243903,1.1585365853658538,0.6097560975609757
13_06_09_809,-1.0,-4.0,-4.0,-2.0,1.0,-7.0,2.0,-1.0,1.03955078125,-0.0068359375,0.45068359375,-3.231707317073171,2.439024390243903,2.682926829268293
13_06_09_809,-2.0,0.0,-3.0,0.0,-3.0,0.0,-3.0,5.0,1.4482421875,0.02587890625,0.9716796875,-1.6463414634146343,1.7682926829268295,1.2195121951219514
13_06_09_809,4.0,-3.0,2.0,3.0,1.0,-1.0,5.0,1.0,0.52001953125,-0.25537109375,-0.18212890625,5.426829268292684,0.30487804878048785,-1.0975609756097562
13_06_09_809,-2.0,2.0,0.0,-1.0,-5.0,1.0,-7.0,5.0,0.671875,-0.115234375,-0.0224609375,-0.24390243902439027,0.1829268292682927,0.12195121951219513
13_06_09_809,7.0,-4.0,-7.0,-5.0,4.0,-5.0,6.0,-4.0,0.85107421875,-0.189453125,0.24853515625,3.9024390243902443,-0.7317073170731708,-0.9146341463414634
13_06_09_859,-3.0,0.0,-2.0,-3.0,-4.0,2.0,0.0,-3.0,1.05029296875,-0.0048828125,0.47705078125,-4.146341463414634,-1.0365853658536586,1.1585365853658538
13_06_09_859,0.0,1.0,-7.0,2.0,-2.0,3.0,-6.0,2.0,1.50244140625,0.07568359375,1.0322265625,-4.390243902439025,0.5487804878048781,0.7926829268292683
13_06_09_859,-4.0,-3.0,0.0,0.0,-2.0,-3.0,1.0,-4.0,0.81787109375,-0.19677734375,0.20263671875,4.085365853658537,-0.7926829268292683,0.48780487804878053
13_06_09_859,-7.0,2.0,-2.0,4.0,0.0,3.0,-6.0,2.0,0.41796875,-0.212890625,-0.33642578125,3.353658536585366,-0.30487804878048785,1.1585365853658538
13_06_09_859,-1.0,2.0,3.0,-1.0,-1.0,-1.0,-3.0,-2.0,1.36279296875,0.06787109375,0.82177734375,-3.5975609756097566,1.2804878048780488,1.3414634146341464
13_06_09_859,1.0,-4.0,-8.0,0.0,-2.0,-3.0,-6.0,2.0,0.341796875,-0.27880859375,-0.4228515625,4.939024390243903,1.1585365853658538,0.6097560975609757
13_06_09_859,-1.0,-4.0,-5.0,-4.0,-4.0,-1.0,1.0,0.0,1.03955078125,-0.0068359375,0.45068359375,-3.231707317073171,2.439024390243903,2.682926829268293
13_06_09_859,-6.0,-3.0,-4.0,3.0,2.0,-1.0,-3.0,-1.0,1.4482421875,0.02587890625,0.9716796875,-1.6463414634146343,1.7682926829268295,1.2195121951219514
13_06_09_859,-5.0,0.0,-4.0,1.0,-2.0,3.0,3.0,-1.0,0.52001953125,-0.25537109375,-0.18212890625,5.426829268292684,0.30487804878048785,-1.0975609756097562
13_06_09_859,0.0,-6.0,-6.0,0.0,-2.0,-4.0,-4.0,-1.0,0.671875,-0.115234375,-0.0224609375,-0.24390243902439027,0.1829268292682927,0.12195121951219513
13_06_09_910,2.0,2.0,1.0,-3.0,1.0,-2.0,4.0,-1.0,0.763671875,-0.0791015625,0.13134765625,-2.8658536585365857,0.48780487804878053,0.7317073170731708
13_06_09_910,-4.0,-3.0,-1.0,0.0,-4.0,0.0,-5.0,-2.0,0.7373046875,-0.21337890625,0.103515625,1.3414634146341464,-0.30487804878048785,0.30487804878048785
13_06_09_910,-5.0,-6.0,-1.0,-4.0,0.0,-2.0,5.0,-7.0,1.05029296875,-0.0048828125,0.47705078125,-4.146341463414634,-1.0365853658536586,1.1585365853658538
13_06_09_910,-1.0,-1.0,-3.0,3.0,-2.0,1.0,-7.0,-5.0,1.50244140625,0.07568359375,1.0322265625,-4.390243902439025,0.5487804878048781,0.7926829268292683
13_06_09_910,-1.0,0.0,-1.0,1.0,-1.0,-1.0,1.0,-2.0,0.81787109375,-0.19677734375,0.20263671875,4.085365853658537,-0.7926829268292683,0.48780487804878053
13_06_09_910,-3.0,2.0,-3.0,-3.0,-5.0,3.0,-5.0,-4.0,0.41796875,-0.212890625,-0.33642578125,3.353658536585366,-0.30487804878048785,1.1585365853658538
13_06_09_910,-3.0,0.0,-2.0,-3.0,-4.0,2.0,0.0,-3.0,1.36279296875,0.06787109375,0.82177734375,-3.5975609756097566,1.2804878048780488,1.3414634146341464
13_06_09_910,0.0,1.0,-7.0,2.0,-2.0,3.0,-6.0,2.0,0.341796875,-0.27880859375,-0.4228515625,4.939024390243903,1.1585365853658538,0.6097560975609757
13_06_09_910,-4.0,-3.0,0.0,0.0,-2.0,-3.0,1.0,-4.0,1.03955078125,-0.0068359375,0.45068359375,-3.231707317073171,2.439024390243903,2.682926829268293
13_06_09_910,-7.0,2.0,-2.0,4.0,0.0,3.0,-6.0,2.0,1.4482421875,0.02587890625,0.9716796875,-1.6463414634146343,1.7682926829268295,1.2195121951219514
13_06_09_971,2.0,2.0,-2.0,-5.0,2.0,-2.0,10.0,-2.0,0.44677734375,-0.27978515625,-0.27099609375,4.573170731707317,-0.9756097560975611,-0.48780487804878053
13_06_09_971,-7.0,1.0,-4.0,-4.0,-5.0,1.0,-5.0,-2.0,0.763671875,-0.0791015625,0.13134765625,-2.8658536585365857,0.48780487804878053,0.7317073170731708
13_06_09_971,2.0,2.0,1.0,-3.0,1.0,-2.0,4.0,-1.0,0.7373046875,-0.21337890625,0.103515625,1.3414634146341464,-0.30487804878048785,0.30487804878048785
13_06_09_971,-4.0,-3.0,-1.0,0.0,-4.0,0.0,-5.0,-2.0,1.05029296875,-0.0048828125,0.47705078125,-4.146341463414634,-1.0365853658536586,1.1585365853658538
13_06_09_971,-5.0,-6.0,-1.0,-4.0,0.0,-2.0,5.0,-7.0,1.50244140625,0.07568359375,1.0322265625,-4.390243902439025,0.5487804878048781,0.7926829268292683
13_06_09_971,-1.0,-1.0,-3.0,3.0,-2.0,1.0,-7.0,-5.0,0.81787109375,-0.19677734375,0.20263671875,4.085365853658537,-0.7926829268292683,0.48780487804878053
13_06_09_971,-1.0,0.0,-1.0,1.0,-1.0,-1.0,1.0,-2.0,0.41796875,-0.212890625,-0.33642578125,3.353658536585366,-0.30487804878048785,1.1585365853658538
13_06_09_971,-3.0,2.0,-3.0,-3.0,-5.0,3.0,-5.0,-4.0,1.36279296875,0.06787109375,0.82177734375,-3.5975609756097566,1.2804878048780488,1.3414634146341464
13_06_09_971,-3.0,0.0,-2.0,-3.0,-4.0,2.0,0.0,-3.0,0.341796875,-0.27880859375,-0.4228515625,4.939024390243903,1.1585365853658538,0.6097560975609757
13_06_09_971,0.0,1.0,-7.0,2.0,-2.0,3.0,-6.0,2.0,1.03955078125,-0.0068359375,0.45068359375,-3.231707317073171,2.439024390243903,2.682926829268293
13_06_10_004,-1.0,-1.0,-3.0,-1.0,-2.0,-1.0,-2.0,3.0,0.927734375,-0.08935546875,0.3095703125,-1.2195121951219514,-0.853658536585366,-1.5853658536585367
13_06_10_004,-3.0,0.0,2.0,-3.0,-2.0,-1.0,0.0,2.0,0.83740234375,-0.03076171875,0.2080078125,-3.1707317073170733,-1.3414634146341464,-1.829268292682927
13_06_10_004,-2.0,-1.0,-2.0,0.0,0.0,-3.0,-2.0,2.0,1.3818359375,-0.0107421875,0.8857421875,-1.4634146341463417,-0.426829268292683,-0.5487804878048781
13_06_10_004,2.0,-2.0,-3.0,-1.0,2.0,2.0,0.0,0.0,0.44677734375,-0.27978515625,-0.27099609375,4.573170731707317,-0.9756097560975611,-0.48780487804878053
13_06_10_004,-1.0,0.0,2.0,-4.0,0.0,-3.0,-4.0,-2.0,0.763671875,-0.0791015625,0.13134765625,-2.8658536585365857,0.48780487804878053,0.7317073170731708
13_06_10_004,-2.0,0.0,1.0,1.0,-5.0,2.0,-1.0,-4.0,0.7373046875,-0.21337890625,0.103515625,1.3414634146341464,-0.30487804878048785,0.30487804878048785
13_06_10_004,2.0,3.0,0.0,1.0,-3.0,-2.0,0.0,-2.0,1.05029296875,-0.0048828125,0.47705078125,-4.146341463414634,-1.0365853658536586,1.1585365853658538
13_06_10_004,-1.0,-2.0,0.0,0.0,4.0,2.0,1.0,1.0,1.50244140625,0.07568359375,1.0322265625,-4.390243902439025,0.5487804878048781,0.7926829268292683
13_06_10_004,-3.0,-2.0,2.0,0.0,0.0,-3.0,0.0,-2.0,0.81787109375,-0.19677734375,0.20263671875,4.085365853658537,-0.7926829268292683,0.48780487804878053
13_06_10_081,2.0,-2.0,-4.0,0.0,-5.0,1.0,2.0,-2.0,0.9248046875,-0.08984375,0.3095703125,-1.2195121951219514,-0.853658536585366,-0.853658536585366
13_06_10_081,-2.0,1.0,4.0,-1.0,0.0,0.0,2.0,-2.0,0.927734375,-0.08935546875,0.3095703125,-1.2195121951219514,-0.853658536585366,-1.5853658536585367
13_06_10_081,-1.0,-2.0,-3.0,0.0,-2.0,0.0,1.0,-2.0,0.83740234375,-0.03076171875,0.2080078125,-3.1707317073170733,-1.3414634146341464,-1.829268292682927
13_06_10_081,-1.0,-1.0,-3.0,-1.0,-2.0,-1.0,-2.0,3.0,1.3818359375,-0.0107421875,0.8857421875,-1.4634146341463417,-0.426829268292683,-0.5487804878048781
13_06_10_081,-3.0,0.0,2.0,-3.0,-2.0,-1.0,0.0,2.0,0.44677734375,-0.27978515625,-0.27099609375,4.573170731707317,-0.9756097560975611,-0.48780487804878053
13_06_10_081,-2.0,-1.0,-2.0,0.0,0.0,-3.0,-2.0,2.0,0.763671875,-0.0791015625,0.13134765625,-2.8658536585365857,0.48780487804878053,0.7317073170731708
13_06_10_081,2.0,-2.0,-3.0,-1.0,2.0,2.0,0.0,0.0,0.7373046875,-0.21337890625,0.103515625,1.3414634146341464,-0.30487804878048785,0.30487804878048785
13_06_10_081,-1.0,0.0,2.0,-4.0,0.0,-3.0,-4.0,-2.0,1.05029296875,-0.0048828125,0.47705078125,-4.146341463414634,-1.0365853658536586,1.1585365853658538
13_06_10_081,-2.0,0.0,1.0,1.0,-5.0,2.0,-1.0,-4.0,1.50244140625,0.07568359375,1.0322265625,-4.390243902439025,0.5487804878048781,0.7926829268292683
13_06_10_081,2.0,3.0,0.0,1.0,-3.0,-2.0,0.0,-2.0,0.81787109375,-0.19677734375,0.20263671875,4.085365853658537,-0.7926829268292683,0.48780487804878053
13_06_10_143,0.0,2.0,2.0,-1.0,1.0,-1.0,-2.0,-3.0,0.9267578125,-0.10009765625,0.30908203125,-2.073170731707317,-0.7317073170731708,-0.5487804878048781
13_06_10_143,4.0,-1.0,-4.0,2.0,1.0,-2.0,-3.0,-2.0,0.9248046875,-0.0947265625,0.31005859375,-2.0121951219512195,-0.6707317073170732,-0.6707317073170732
13_06_10_143,2.0,0.0,-1.0,1.0,-1.0,0.0,3.0,1.0,0.9248046875,-0.08984375,0.3095703125,-1.2195121951219514,-0.853658536585366,-0.853658536585366
13_06_10_143,0.0,1.0,2.0,-3.0,1.0,-1.0,-2.0,1.0,0.927734375,-0.08935546875,0.3095703125,-1.2195121951219514,-0.853658536585366,-1.5853658536585367
13_06_10_143,3.0,-2.0,-3.0,-4.0,-3.0,-3.0,-3.0,-6.0,0.83740234375,-0.03076171875,0.2080078125,-3.1707317073170733,-1.3414634146341464,-1.829268292682927
13_06_10_143,-1.0,4.0,4.0,1.0,0.0,-2.0,-4.0,-3.0,1.3818359375,-0.0107421875,0.8857421875,-1.4634146341463417,-0.426829268292683,-0.5487804878048781
13_06_10_143,2.0,-2.0,-4.0,0.0,-5.0,1.0,2.0,-2.0,0.44677734375,-0.27978515625,-0.27099609375,4.573170731707317,-0.9756097560975611,-0.48780487804878053
13_06_10_143,-2.0,1.0,4.0,-1.0,0.0,0.0,2.0,-2.0,0.763671875,-0.0791015625,0.13134765625,-2.8658536585365857,0.48780487804878053,0.7317073170731708
13_06_10_143,-1.0,-2.0,-3.0,0.0,-2.0,0.0,1.0,-2.0,0.7373046875,-0.21337890625,0.103515625,1.3414634146341464,-0.30487804878048785,0.30487804878048785
13_06_10_143,-1.0,-1.0,-3.0,-1.0,-2.0,-1.0,-2.0,3.0,1.05029296875,-0.0048828125,0.47705078125,-4.146341463414634,-1.0365853658536586,1.1585365853658538
13_06_10_178,-1.0,-1.0,2.0,-3.0,2.0,0.0,-3.0,-2.0,0.92236328125,-0.10498046875,0.3095703125,-1.6463414634146343,-1.5853658536585367,-0.853658536585366
13_06_10_178,-2.0,-1.0,1.0,-1.0,-3.0,-1.0,0.0,0.0,0.9267578125,-0.10009765625,0.30908203125,-2.073170731707317,-0.7317073170731708,-0.5487804878048781
13_06_10_178,1.0,0.0,-2.0,-1.0,-1.0,-6.0,-2.0,3.0,0.9248046875,-0.0947265625,0.31005859375,-2.0121951219512195,-0.6707317073170732,-0.6707317073170732
13_06_10_178,-3.0,-1.0,0.0,-1.0,-3.0,1.0,1.0,0.0,0.9248046875,-0.08984375,0.3095703125,-1.2195121951219514,-0.853658536585366,-0.853658536585366
13_06_10_178,-5.0,-1.0,0.0,-2.0,2.0,-2.0,0.0,-2.0,0.927734375,-0.08935546875,0.3095703125,-1.2195121951219514,-0.853658536585366,-1.5853658536585367
13_06_10_178,-3.0,0.0,-1.0,1.0,1.0,2.0,0.0,-3.0,0.83740234375,-0.03076171875,0.2080078125,-3.1707317073170733,-1.3414634146341464,-1.829268292682927
13_06_10_178,0.0,2.0,2.0,-1.0,1.0,-1.0,-2.0,-3.0,1.3818359375,-0.0107421875,0.8857421875,-1.4634146341463417,-0.426829268292683,-0.5487804878048781
13_06_10_178,4.0,-1.0,-4.0,2.0,1.0,-2.0,-3.0,-2.0,0.44677734375,-0.27978515625,-0.27099609375,4.573170731707317,-0.9756097560975611,-0.48780487804878053
13_06_10_178,2.0,0.0,-1.0,1.0,-1.0,0.0,3.0,1.0,0.763671875,-0.0791015625,0.13134765625,-2.8658536585365857,0.48780487804878053,0.7317073170731708
13_06_10_178,0.0,1.0,2.0,-3.0,1.0,-1.0,-2.0,1.0,0.7373046875,-0.21337890625,0.103515625,1.3414634146341464,-0.30487804878048785,0.30487804878048785
13_06_10_237,0.0,1.0,-6.0,0.0,-1.0,1.0,-4.0,-1.0,0.923828125,-0.1083984375,0.314453125,-1.829268292682927,-2.1951219512195124,-0.9756097560975611
13_06_10_237,-3.0,-1.0,-3.0,0.0,-4.0,-3.0,1.0,0.0,0.92236328125,-0.10498046875,0.3095703125,-1.6463414634146343,-1.5853658536585367,-0.853658536585366
13_06_10_237,0.0,0.0,0.0,1.0,-1.0,0.0,-1.0,1.0,0.9267578125,-0.10009765625,0.30908203125,-2.073170731707317,-0.7317073170731708,-0.5487804878048781
13_06_10_237,-1.0,1.0,-1.0,-4.0,-1.0,2.0,0.0,-1.0,0.9248046875,-0.0947265625,0.31005859375,-2.0121951219512195,-0.6707317073170732,-0.6707317073170732
13_06_10_237,-1.0,-4.0,-2.0,0.0,-2.0,-4.0,1.0,3.0,0.9248046875,-0.08984375,0.3095703125,-1.2195121951219514,-0.853658536585366,-0.853658536585366
13_06_10_237,-1.0,0.0,-4.0,-4.0,-2.0,-4.0,-2.0,-2.0,0.927734375,-0.08935546875,0.3095703125,-1.2195121951219514,-0.853658536585366,-1.5853658536585367
13_06_10_237,1.0,1.0,1.0,-2.0,-3.0,-1.0,0.0,-1.0,0.83740234375,-0.03076171875,0.2080078125,-3.1707317073170733,-1.3414634146341464,-1.829268292682927
13_06_10_237,0.0,0.0,0.0,0.0,-1.0,-1.0,-3.0,-2.0,1.3818359375,-0.0107421875,0.8857421875,-1.4634146341463417,-0.426829268292683,-0.5487804878048781
13_06_10_237,0.0,-3.0,-3.0,-2.0,-2.0,1.0,-2.0,-1.0,0.44677734375,-0.27978515625,-0.27099609375,4.573170731707317,-0.9756097560975611,-0.48780487804878053
13_06_10_290,0.0,0.0,-3.0,1.0,2.0,-4.0,-2.0,-4.0,0.9267578125,-0.10009765625,0.30908203125,-2.073170731707317,-0.7317073170731708,-0.5487804878048781
13_06_10_290,2.0,-3.0,-1.0,0.0,-2.0,0.0,-3.0,3.0,0.9248046875,-0.0947265625,0.31005859375,-2.0121951219512195,-0.6707317073170732,-0.6707317073170732
13_06_10_290,-4.0,-2.0,-1.0,2.0,-3.0,0.0,-1.0,2.0,0.9248046875,-0.08984375,0.3095703125,-1.2195121951219514,-0.853658536585366,-0.853658536585366
13_06_10_290,-1.0,-1.0,2.0,-5.0,-1.0,0.0,1.0,1.0,0.927734375,-0.08935546875,0.3095703125,-1.2195121951219514,-0.853658536585366,-1.5853658536585367
13_06_10_329,0.0,2.0,-1.0,-1.0,1.0,0.0,-2.0,-1.0,0.9296875,-0.10400390625,0.3134765625,2.25609756097561,-1.3414634146341464,0.5487804878048781
13_06_10_329,0.0,1.0,1.0,-1.0,0.0,-3.0,1.0,-2.0,0.9326171875,-0.09619140625,0.31787109375,1.829268292682927,-1.707317073170732,0.3658536585365854
13_06_10_329,-4.0,4.0,-2.0,1.0,0.0,1.0,-5.0,0.0,0.935546875,-0.0986328125,0.3173828125,1.6463414634146343,-1.9512195121951221,0.0
13_06_10_329,2.0,2.0,-3.0,-3.0,-1.0,-1.0,1.0,-2.0,0.92919921875,-0.09716796875,0.3173828125,1.402439024390244,-2.5,-0.12195121951219513
13_06_10_329,-4.0,1.0,-4.0,-1.0,-1.0,0.0,0.0,-2.0,0.92626953125,-0.10205078125,0.3134765625,0.6097560975609757,-2.7439024390243905,-0.48780487804878053
13_06_10_329,2.0,-4.0,-3.0,0.0,1.0,-2.0,-4.0,-2.0,0.92626953125,-0.1025390625,0.3134765625,0.0,-3.1097560975609757,-0.7926829268292683
13_06_10_329,-2.0,2.0,2.0,1.0,0.0,-5.0,1.0,2.0,0.92724609375,-0.103515625,0.3125,-0.48780487804878053,-3.1097560975609757,-1.0975609756097562
13_06_10_329,-4.0,-1.0,-4.0,0.0,1.0,-1.0,3.0,-4.0,0.923828125,-0.1083984375,0.314453125,-1.829268292682927,-2.1951219512195124,-0.9756097560975611
13_06_10_329,3.0,-3.0,-1.0,2.0,-1.0,-3.0,3.0,-2.0,0.92236328125,-0.10498046875,0.3095703125,-1.6463414634146343,-1.5853658536585367,-0.853658536585366
13_06_10_329,1.0,1.0,0.0,-2.0,-1.0,-3.0,-4.0,0.0,0.9267578125,-0.10009765625,0.30908203125,-2.073170731707317,-0.7317073170731708,-0.5487804878048781
13_06_10_376,-2.0,-1.0,-4.0,-2.0,2.0,2.0,1.0,-3.0,0.9296875,-0.09716796875,0.31591796875,3.2926829268292686,-0.9146341463414634,0.7317073170731708
13_06_10_376,-2.0,-2.0,2.0,-1.0,1.0,-1.0,0.0,2.0,0.92578125,-0.1005859375,0.3203125,3.1097560975609757,-1.0975609756097562,0.6707317073170732
13_06_10_376,-2.0,2.0,-3.0,-3.0,-1.0,-2.0,-4.0,2.0,0.9296875,-0.10400390625,0.3134765625,2.25609756097561,-1.3414634146341464,0.5487804878048781
13_06_10_376,0.0,3.0,-2.0,1.0,-3.0,-2.0,2.0,1.0,0.9326171875,-0.09619140625,0.31787109375,1.829268292682927,-1.707317073170732,0.3658536585365854
13_06_10_376,-4.0,-2.0,2.0,-2.0,0.0,-1.0,0.0,1.0,0.935546875,-0.0986328125,0.3173828125,1.6463414634146343,-1.9512195121951221,0.0
13_06_10_376,-2.0,-3.0,4.0,-1.0,-2.0,-2.0,1.0,0.0,0.92919921875,-0.09716796875,0.3173828125,1.402439024390244,-2.5,-0.12195121951219513
13_06_10_376,-1.0,2.0,-4.0,0.0,1.0,-2.0,2.0,3.0,0.92626953125,-0.10205078125,0.3134765625,0.6097560975609757,-2.7439024390243905,-0.48780487804878053
13_06_10_376,-2.0,0.0,0.0,2.0,-4.0,1.0,-3.0,-3.0,0.92626953125,-0.1025390625,0.3134765625,0.0,-3.1097560975609757,-0.7926829268292683
13_06_10_376,0.0,-1.0,-2.0,1.0,-1.0,0.0,-3.0,1.0,0.92724609375,-0.103515625,0.3125,-0.48780487804878053,-3.1097560975609757,-1.0975609756097562
13_06_10_431,-2.0,-4.0,0.0,-5.0,-5.0,2.0,-3.0,-1.0,0.92724609375,-0.09619140625,0.3115234375,3.5975609756097566,-0.1829268292682927,0.853658536585366
13_06_10_431,-2.0,-3.0,-3.0,4.0,-3.0,-1.0,-3.0,-1.0,0.93115234375,-0.09765625,0.3125,3.2926829268292686,-0.426829268292683,0.7926829268292683
13_06_10_431,0.0,0.0,3.0,0.0,-3.0,0.0,-3.0,5.0,0.931640625,-0.09521484375,0.30859375,3.353658536585366,-0.7317073170731708,0.7317073170731708
13_06_10_431,0.0,2.0,-4.0,-4.0,-1.0,-3.0,-5.0,0.0,0.9296875,-0.09716796875,0.31591796875,3.2926829268292686,-0.9146341463414634,0.7317073170731708
13_06_10_431,-1.0,0.0,-3.0,0.0,2.0,-2.0,3.0,-1.0,0.92578125,-0.1005859375,0.3203125,3.1097560975609757,-1.0975609756097562,0.6707317073170732
13_06_10_431,-2.0,-5.0,-5.0,3.0,-2.0,-1.0,-4.0,1.0,0.9296875,-0.10400390625,0.3134765625,2.25609756097561,-1.3414634146341464,0.5487804878048781
13_06_10_431,2.0,0.0,1.0,2.0,-1.0,1.0,-1.0,3.0,0.9326171875,-0.09619140625,0.31787109375,1.829268292682927,-1.707317073170732,0.3658536585365854
13_06_10_431,2.0,-1.0,2.0,0.0,-2.0,-2.0,-4.0,0.0,0.935546875,-0.0986328125,0.3173828125,1.6463414634146343,-1.9512195121951221,0.0
13_06_10_431,-3.0,3.0,-3.0,-3.0,-3.0,-2.0,-3.0,-3.0,0.92919921875,-0.09716796875,0.3173828125,1.402439024390244,-2.5,-0.12195121951219513
13_06_10_478,1.0,-1.0,-3.0,0.0,-1.0,-3.0,2.0,-2.0,0.9296875,-0.08740234375,0.30517578125,3.414634146341464,0.24390243902439027,1.2195121951219514
13_06_10_478,-3.0,-2.0,-3.0,1.0,1.0,-2.0,0.0,-3.0,0.931640625,-0.095703125,0.30615234375,3.5975609756097566,0.06097560975609757,1.0365853658536586
13_06_10_478,-3.0,-2.0,-3.0,1.0,2.0,-2.0,-3.0,0.0,0.92724609375,-0.09619140625,0.3115234375,3.5975609756097566,-0.1829268292682927,0.853658536585366
13_06_10_478,-1.0,-1.0,1.0,0.0,-1.0,-1.0,-1.0,1.0,0.93115234375,-0.09765625,0.3125,3.2926829268292686,-0.426829268292683,0.7926829268292683
13_06_10_478,-7.0,0.0,-1.0,-1.0,0.0,-1.0,-1.0,1.0,0.931640625,-0.09521484375,0.30859375,3.353658536585366,-0.7317073170731708,0.7317073170731708
13_06_10_478,-2.0,-4.0,0.0,-5.0,-5.0,2.0,-3.0,-1.0,0.9296875,-0.09716796875,0.31591796875,3.2926829268292686,-0.9146341463414634,0.7317073170731708
13_06_10_478,-2.0,-3.0,-3.0,4.0,-3.0,-1.0,-3.0,-1.0,0.92578125,-0.1005859375,0.3203125,3.1097560975609757,-1.0975609756097562,0.6707317073170732
13_06_10_478,0.0,0.0,3.0,0.0,-3.0,0.0,-3.0,5.0,0.9296875,-0.10400390625,0.3134765625,2.25609756097561,-1.3414634146341464,0.5487804878048781
13_06_10_478,0.0,2.0,-4.0,-4.0,-1.0,-3.0,-5.0,0.0,0.9326171875,-0.09619140625,0.31787109375,1.829268292682927,-1.707317073170732,0.3658536585365854
13_06_10_478,-1.0,0.0,-3.0,0.0,2.0,-2.0,3.0,-1.0,0.935546875,-0.0986328125,0.3173828125,1.6463414634146343,-1.9512195121951221,0.0
13_06_10_533,-3.0,-2.0,-3.0,1.0,2.0,-2.0,-3.0,0.0,0.931640625,-0.09521484375,0.30859375,3.353658536585366,-0.7317073170731708,0.7317073170731708
13_06_10_533,-1.0,-1.0,1.0,0.0,-1.0,-1.0,-1.0,1.0,0.9296875,-0.09716796875,0.31591796875,3.2926829268292686,-0.9146341463414634,0.7317073170731708
13_06_10_533,-7.0,0.0,-1.0,-1.0,0.0,-1.0,-1.0,1.0,0.92578125,-0.1005859375,0.3203125,3.1097560975609757,-1.0975609756097562,0.6707317073170732
13_06_10_533,-2.0,-4.0,0.0,-5.0,-5.0,2.0,-3.0,-1.0,0.9296875,-0.10400390625,0.3134765625,2.25609756097561,-1.3414634146341464,0.5487804878048781
13_06_10_533,-2.0,-3.0,-3.0,4.0,-3.0,-1.0,-3.0,-1.0,0.9326171875,-0.09619140625,0.31787109375,1.829268292682927,-1.707317073170732,0.3658536585365854
13_06_10_533,0.0,0.0,3.0,0.0,-3.0,0.0,-3.0,5.0,0.935546875,-0.0986328125,0.3173828125,1.6463414634146343,-1.9512195121951221,0.0
13_06_10_616,-2.0,-3.0,1.0,-3.0,-1.0,-1.0,-1.0,0.0,0.9296875,-0.08740234375,0.30517578125,3.414634146341464,0.24390243902439027,1.2195121951219514
13_06_10_616,-2.0,-1.0,4.0,-1.0,2.0,-1.0,0.0,2.0,0.931640625,-0.095703125,0.30615234375,3.5975609756097566,0.06097560975609757,1.0365853658536586
13_06_10_616,-3.0,1.0,-2.0,0.0,-3.0,-2.0,4.0,-2.0,0.92724609375,-0.09619140625,0.3115234375,3.5975609756097566,-0.1829268292682927,0.853658536585366
13_06_10_616,2.0,-2.0,-1.0,-1.0,-3.0,2.0,2.0,1.0,0.93115234375,-0.09765625,0.3125,3.2926829268292686,-0.426829268292683,0.7926829268292683
13_06_10_616,1.0,-1.0,-3.0,0.0,-1.0,-3.0,2.0,-2.0,0.931640625,-0.09521484375,0.30859375,3.353658536585366,-0.7317073170731708,0.7317073170731708
13_06_10_616,-3.0,-2.0,-3.0,1.0,1.0,-2.0,0.0,-3.0,0.9296875,-0.09716796875,0.31591796875,3.2926829268292686,-0.9146341463414634,0.7317073170731708
13_06_10_616,-3.0,-2.0,-3.0,1.0,2.0,-2.0,-3.0,0.0,0.92578125,-0.1005859375,0.3203125,3.1097560975609757,-1.0975609756097562,0.6707317073170732
13_06_10_616,-1.0,-1.0,1.0,0.0,-1.0,-1.0,-1.0,1.0,0.9296875,-0.10400390625,0.3134765625,2.25609756097561,-1.3414634146341464,0.5487804878048781
13_06_10_616,-7.0,0.0,-1.0,-1.0,0.0,-1.0,-1.0,1.0,0.9326171875,-0.09619140625,0.31787109375,1.829268292682927,-1.707317073170732,0.3658536585365854
13_06_10_616,-2.0,-4.0,0.0,-5.0,-5.0,2.0,-3.0,-1.0,0.935546875,-0.0986328125,0.3173828125,1.6463414634146343,-1.9512195121951221,0.0
13_06_10_657,-5.0,-2.0,-5.0,-1.0,-2.0,2.0,-3.0,1.0,0.927734375,-0.09765625,0.31005859375,3.536585365853659,0.6097560975609757,1.3414634146341464
13_06_10_657,-4.0,2.0,-3.0,1.0,-3.0,0.0,-6.0,2.0,0.9287109375,-0.09033203125,0.3095703125,3.1707317073170733,0.5487804878048781,1.402439024390244
13_06_10_657,1.0,-1.0,-2.0,1.0,-1.0,-2.0,1.0,1.0,0.9296875,-0.08740234375,0.30517578125,3.414634146341464,0.24390243902439027,1.2195121951219514
13_06_10_657,-6.0,4.0,2.0,-1.0,-2.0,-3.0,-3.0,-1.0,0.931640625,-0.095703125,0.30615234375,3.5975609756097566,0.06097560975609757,1.0365853658536586
13_06_10_657,1.0,-2.0,-6.0,0.0,-3.0,0.0,1.0,3.0,0.92724609375,-0.09619140625,0.3115234375,3.5975609756097566,-0.1829268292682927,0.853658536585366
13_06_10_657,1.0,-2.0,-6.0,-3.0,1.0,-2.0,-3.0,-1.0,0.93115234375,-0.09765625,0.3125,3.2926829268292686,-0.426829268292683,0.7926829268292683
13_06_10_657,-2.0,-3.0,1.0,-3.0,-1.0,-1.0,-1.0,0.0,0.931640625,-0.09521484375,0.30859375,3.353658536585366,-0.7317073170731708,0.7317073170731708
13_06_10_657,-2.0,-1.0,4.0,-1.0,2.0,-1.0,0.0,2.0,0.9296875,-0.09716796875,0.31591796875,3.2926829268292686,-0.9146341463414634,0.7317073170731708
13_06_10_657,-3.0,1.0,-2.0,0.0,-3.0,-2.0,4.0,-2.0,0.92578125,-0.1005859375,0.3203125,3.1097560975609757,-1.0975609756097562,0.6707317073170732
13_06_10_657,2.0,-2.0,-1.0,-1.0,-3.0,2.0,2.0,1.0,0.9296875,-0.10400390625,0.3134765625,2.25609756097561,-1.3414634146341464,0.5487804878048781
13_06_10_751,1.0,-3.0,0.0,-1.0,-1.0,0.0,0.0,-3.0,0.927734375,-0.09765625,0.31005859375,3.536585365853659,0.6097560975609757,1.3414634146341464
13_06_10_751,4.0,0.0,0.0,-1.0,-2.0,-1.0,0.0,-1.0,0.9287109375,-0.09033203125,0.3095703125,3.1707317073170733,0.5487804878048781,1.402439024390244
13_06_10_751,-5.0,-2.0,-5.0,-1.0,-2.0,2.0,-3.0,1.0,0.9296875,-0.08740234375,0.30517578125,3.414634146341464,0.24390243902439027,1.2195121951219514
13_06_10_751,-4.0,2.0,-3.0,1.0,-3.0,0.0,-6.0,2.0,0.931640625,-0.095703125,0.30615234375,3.5975609756097566,0.06097560975609757,1.0365853658536586
13_06_10_751,1.0,-1.0,-2.0,1.0,-1.0,-2.0,1.0,1.0,0.92724609375,-0.09619140625,0.3115234375,3.5975609756097566,-0.1829268292682927,0.853658536585366
13_06_10_751,-6.0,4.0,2.0,-1.0,-2.0,-3.0,-3.0,-1.0,0.93115234375,-0.09765625,0.3125,3.2926829268292686,-0.426829268292683,0.7926829268292683
13_06_10_751,1.0,-2.0,-6.0,0.0,-3.0,0.0,1.0,3.0,0.931640625,-0.09521484375,0.30859375,3.353658536585366,-0.7317073170731708,0.7317073170731708
13_06_10_751,1.0,-2.0,-6.0,-3.0,1.0,-2.0,-3.0,-1.0,0.9296875,-0.09716796875,0.31591796875,3.2926829268292686,-0.9146341463414634,0.7317073170731708
13_06_10_751,-2.0,-3.0,1.0,-3.0,-1.0,-1.0,-1.0,0.0,0.92578125,-0.1005859375,0.3203125,3.1097560975609757,-1.0975609756097562,0.6707317073170732
13_06_10_751,-2.0,-1.0,4.0,-1.0,2.0,-1.0,0.0,2.0,0.9296875,-0.10400390625,0.3134765625,2.25609756097561,-1.3414634146341464,0.5487804878048781
13_06_10_803,0.0,-1.0,0.0,0.0,-3.0,-2.0,3.0,0.0,0.927734375,-0.09765625,0.31005859375,3.536585365853659,0.6097560975609757,1.3414634146341464
13_06_10_803,-1.0,-4.0,-2.0,-1.0,0.0,-1.0,-1.0,-3.0,0.9287109375,-0.09033203125,0.3095703125,3.1707317073170733,0.5487804878048781,1.402439024390244
13_06_10_803,0.0,1.0,-2.0,1.0,-3.0,1.0,-2.0,0.0,0.9296875,-0.08740234375,0.30517578125,3.414634146341464,0.24390243902439027,1.2195121951219514
13_06_10_803,-1.0,-2.0,-2.0,-3.0,-2.0,-3.0,2.0,2.0,0.931640625,-0.095703125,0.30615234375,3.5975609756097566,0.06097560975609757,1.0365853658536586
13_06_10_803,1.0,-3.0,0.0,-1.0,-1.0,0.0,0.0,-3.0,0.92724609375,-0.09619140625,0.3115234375,3.5975609756097566,-0.1829268292682927,0.853658536585366
13_06_10_803,4.0,0.0,0.0,-1.0,-2.0,-1.0,0.0,-1.0,0.93115234375,-0.09765625,0.3125,3.2926829268292686,-0.426829268292683,0.7926829268292683
13_06_10_803,-5.0,-2.0,-5.0,-1.0,-2.0,2.0,-3.0,1.0,0.931640625,-0.09521484375,0.30859375,3.353658536585366,-0.7317073170731708,0.7317073170731708
13_06_10_803,-4.0,2.0,-3.0,1.0,-3.0,0.0,-6.0,2.0,0.9296875,-0.09716796875,0.31591796875,3.2926829268292686,-0.9146341463414634,0.7317073170731708
13_06_10_803,1.0,-1.0,-2.0,1.0,-1.0,-2.0,1.0,1.0,0.92578125,-0.1005859375,0.3203125,3.1097560975609757,-1.0975609756097562,0.6707317073170732
13_06_10_803,-6.0,4.0,2.0,-1.0,-2.0,-3.0,-3.0,-1.0,0.9296875,-0.10400390625,0.3134765625,2.25609756097561,-1.3414634146341464,0.5487804878048781
13_06_10_854,3.0,-1.0,-5.0,-2.0,1.0,1.0,0.0,-2.0,0.9296875,-0.076171875,0.3115234375,5.365853658536586,-0.7926829268292683,1.5853658536585367
13_06_10_854,-4.0,-2.0,-1.0,1.0,-3.0,-1.0,-1.0,-2.0,0.93115234375,-0.07861328125,0.302734375,7.195121951219513,-2.3170731707317076,1.829268292682927
13_06_10_854,-1.0,-2.0,-3.0,0.0,-1.0,0.0,0.0,-1.0,0.939453125,-0.087890625,0.3046875,7.500000000000001,-1.9512195121951221,1.829268292682927
13_06_10_854,-2.0,2.0,0.0,-1.0,1.0,1.0,-1.0,0.0,0.927734375,-0.09765625,0.31005859375,3.536585365853659,0.6097560975609757,1.3414634146341464
13_06_10_854,-4.0,-5.0,0.0,-1.0,0.0,2.0,1.0,-4.0,0.9287109375,-0.09033203125,0.3095703125,3.1707317073170733,0.5487804878048781,1.402439024390244
13_06_10_854,1.0,-2.0,-2.0,-3.0,1.0,-4.0,-1.0,-5.0,0.9296875,-0.08740234375,0.30517578125,3.414634146341464,0.24390243902439027,1.2195121951219514
13_06_10_854,1.0,-2.0,1.0,0.0,-3.0,0.0,-1.0,-3.0,0.931640625,-0.095703125,0.30615234375,3.5975609756097566,0.06097560975609757,1.0365853658536586
13_06_10_854,-2.0,1.0,1.0,-1.0,-4.0,-1.0,-1.0,-3.0,0.92724609375,-0.09619140625,0.3115234375,3.5975609756097566,-0.1829268292682927,0.853658536585366
13_06_10_854,-3.0,0.0,0.0,-1.0,0.0,-1.0,3.0,-2.0,0.93115234375,-0.09765625,0.3125,3.2926829268292686,-0.426829268292683,0.7926829268292683
13_06_10_854,-1.0,-3.0,-1.0,-2.0,1.0,-2.0,-4.0,-2.0,0.931640625,-0.09521484375,0.30859375,3.353658536585366,-0.7317073170731708,0.7317073170731708
13_06_10_907,2.0,1.0,2.0,1.0,0.0,-2.0,-2.0,-3.0,0.93115234375,-0.07861328125,0.302734375,7.195121951219513,-2.3170731707317076,1.829268292682927
13_06_10_907,-2.0,-3.0,0.0,2.0,-3.0,-2.0,1.0,-2.0,0.939453125,-0.087890625,0.3046875,7.500000000000001,-1.9512195121951221,1.829268292682927
13_06_10_907,3.0,-1.0,-5.0,-2.0,1.0,1.0,0.0,-2.0,0.927734375,-0.09765625,0.31005859375,3.536585365853659,0.6097560975609757,1.3414634146341464
13_06_10_907,-4.0,-2.0,-1.0,1.0,-3.0,-1.0,-1.0,-2.0,0.9287109375,-0.09033203125,0.3095703125,3.1707317073170733,0.5487804878048781,1.402439024390244
13_06_10_907,-1.0,-2.0,-3.0,0.0,-1.0,0.0,0.0,-1.0,0.9296875,-0.08740234375,0.30517578125,3.414634146341464,0.24390243902439027,1.2195121951219514
13_06_10_907,-2.0,2.0,0.0,-1.0,1.0,1.0,-1.0,0.0,0.931640625,-0.095703125,0.30615234375,3.5975609756097566,0.06097560975609757,1.0365853658536586
13_06_10_907,-4.0,-5.0,0.0,-1.0,0.0,2.0,1.0,-4.0,0.92724609375,-0.09619140625,0.3115234375,3.5975609756097566,-0.1829268292682927,0.853658536585366
13_06_10_907,1.0,-2.0,-2.0,-3.0,1.0,-4.0,-1.0,-5.0,0.93115234375,-0.09765625,0.3125,3.2926829268292686,-0.426829268292683,0.7926829268292683
13_06_10_957,1.0,-2.0,-6.0,2.0,-4.0,0.0,2.0,0.0,0.93212890625,-0.09375,0.30615234375,3.7195121951219514,0.30487804878048785,0.7317073170731708
13_06_10_957,0.0,-1.0,0.0,0.0,-4.0,-2.0,-3.0,-5.0,0.9287109375,-0.08447265625,0.3037109375,3.658536585365854,0.30487804878048785,0.9146341463414634
13_06_10_957,0.0,0.0,2.0,-1.0,-3.0,2.0,0.0,1.0,0.931640625,-0.08203125,0.3056640625,4.329268292682928,0.30487804878048785,0.9756097560975611
13_06_10_957,-1.0,-5.0,0.0,2.0,0.0,-2.0,-8.0,-2.0,0.9296875,-0.076171875,0.3115234375,5.365853658536586,-0.7926829268292683,1.5853658536585367
13_06_10_957,0.0,-2.0,-4.0,1.0,1.0,-1.0,0.0,-2.0,0.93115234375,-0.07861328125,0.302734375,7.195121951219513,-2.3170731707317076,1.829268292682927
13_06_10_957,2.0,1.0,2.0,1.0,0.0,-2.0,-2.0,-3.0,0.939453125,-0.087890625,0.3046875,7.500000000000001,-1.9512195121951221,1.829268292682927
13_06_10_957,-2.0,-3.0,0.0,2.0,-3.0,-2.0,1.0,-2.0,0.927734375,-0.09765625,0.31005859375,3.536585365853659,0.6097560975609757,1.3414634146341464
13_06_10_957,3.0,-1.0,-5.0,-2.0,1.0,1.0,0.0,-2.0,0.9287109375,-0.09033203125,0.3095703125,3.1707317073170733,0.5487804878048781,1.402439024390244
13_06_10_957,-4.0,-2.0,-1.0,1.0,-3.0,-1.0,-1.0,-2.0,0.9296875,-0.08740234375,0.30517578125,3.414634146341464,0.24390243902439027,1.2195121951219514
13_06_11_007,-2.0,-6.0,-1.0,1.0,0.0,0.0,3.0,2.0,0.931640625,-0.08203125,0.3056640625,4.329268292682928,0.30487804878048785,0.9756097560975611
13_06_11_007,-4.0,2.0,-1.0,0.0,2.0,-1.0,0.0,-2.0,0.9296875,-0.076171875,0.3115234375,5.365853658536586,-0.7926829268292683,1.5853658536585367
13_06_11_007,-4.0,1.0,-2.0,0.0,1.0,2.0,1.0,2.0,0.93115234375,-0.07861328125,0.302734375,7.195121951219513,-2.3170731707317076,1.829268292682927
13_06_11_007,0.0,-3.0,0.0,0.0,-1.0,-1.0,-2.0,0.0,0.939453125,-0.087890625,0.3046875,7.500000000000001,-1.9512195121951221,1.829268292682927
13_06_11_007,-3.0,-2.0,-3.0,0.0,1.0,0.0,0.0,2.0,0.927734375,-0.09765625,0.31005859375,3.536585365853659,0.6097560975609757,1.3414634146341464
13_06_11_007,0.0,0.0,0.0,-1.0,0.0,-2.0,-1.0,0.0,0.9287109375,-0.09033203125,0.3095703125,3.1707317073170733,0.5487804878048781,1.402439024390244
13_06_11_007,1.0,-2.0,-6.0,2.0,-4.0,0.0,2.0,0.0,0.9296875,-0.08740234375,0.30517578125,3.414634146341464,0.24390243902439027,1.2195121951219514
13_06_11_053,-5.0,-2.0,0.0,-1.0,0.0,-3.0,-3.0,-4.0,0.9443359375,-0.109375,0.32373046875,5.548780487804878,-2.8658536585365857,2.25609756097561
13_06_11_053,2.0,-2.0,2.0,-3.0,1.0,-3.0,-2.0,0.0,0.92578125,-0.09375,0.3017578125,3.4756097560975614,-0.6707317073170732,2.439024390243903
13_06_11_053,-1.0,-2.0,-3.0,0.0,0.0,-1.0,1.0,-2.0,0.9228515625,-0.0908203125,0.29150390625,3.658536585365854,0.1829268292682927,1.4634146341463417
13_06_11_053,1.0,-2.0,0.0,0.0,-1.0,0.0,-1.0,-1.0,0.92724609375,-0.09326171875,0.29736328125,4.329268292682928,0.12195121951219513,0.7926829268292683
13_06_11_053,1.0,1.0,0.0,-1.0,-3.0,-1.0,-3.0,-3.0,0.93212890625,-0.09375,0.30615234375,3.7195121951219514,0.30487804878048785,0.7317073170731708
13_06_11_053,0.0,-1.0,-1.0,-3.0,-3.0,-1.0,0.0,-2.0,0.9287109375,-0.08447265625,0.3037109375,3.658536585365854,0.30487804878048785,0.9146341463414634
13_06_11_053,-1.0,0.0,4.0,0.0,0.0,-3.0,2.0,-1.0,0.931640625,-0.08203125,0.3056640625,4.329268292682928,0.30487804878048785,0.9756097560975611
13_06_11_053,3.0,0.0,1.0,0.0,-1.0,2.0,0.0,1.0,0.9296875,-0.076171875,0.3115234375,5.365853658536586,-0.7926829268292683,1.5853658536585367
13_06_11_053,0.0,-3.0,-3.0,0.0,-1.0,0.0,1.0,6.0,0.93115234375,-0.07861328125,0.302734375,7.195121951219513,-2.3170731707317076,1.829268292682927
13_06_11_053,-3.0,-6.0,-3.0,0.0,1.0,-1.0,-3.0,-5.0,0.939453125,-0.087890625,0.3046875,7.500000000000001,-1.9512195121951221,1.829268292682927
13_06_11_104,2.0,-2.0,-2.0,-2.0,0.0,0.0,0.0,-2.0,0.94873046875,-0.12060546875,0.3173828125,8.170731707317074,-4.939024390243903,0.24390243902439027
13_06_11_104,2.0,0.0,2.0,-1.0,1.0,0.0,0.0,-2.0,0.9443359375,-0.109375,0.32373046875,5.548780487804878,-2.8658536585365857,2.25609756097561
13_06_11_104,-4.0,0.0,-1.0,0.0,-1.0,1.0,1.0,1.0,0.92578125,-0.09375,0.3017578125,3.4756097560975614,-0.6707317073170732,2.439024390243903
13_06_11_104,-5.0,-2.0,0.0,-1.0,0.0,-3.0,-3.0,-4.0,0.9228515625,-0.0908203125,0.29150390625,3.658536585365854,0.1829268292682927,1.4634146341463417
13_06_11_104,2.0,-2.0,2.0,-3.0,1.0,-3.0,-2.0,0.0,0.92724609375,-0.09326171875,0.29736328125,4.329268292682928,0.12195121951219513,0.7926829268292683
13_06_11_104,-1.0,-2.0,-3.0,0.0,0.0,-1.0,1.0,-2.0,0.93212890625,-0.09375,0.30615234375,3.7195121951219514,0.30487804878048785,0.7317073170731708
13_06_11_104,1.0,-2.0,0.0,0.0,-1.0,0.0,-1.0,-1.0,0.9287109375,-0.08447265625,0.3037109375,3.658536585365854,0.30487804878048785,0.9146341463414634
13_06_11_104,1.0,1.0,0.0,-1.0,-3.0,-1.0,-3.0,-3.0,0.931640625,-0.08203125,0.3056640625,4.329268292682928,0.30487804878048785,0.9756097560975611
13_06_11_104,0.0,-1.0,-1.0,-3.0,-3.0,-1.0,0.0,-2.0,0.9296875,-0.076171875,0.3115234375,5.365853658536586,-0.7926829268292683,1.5853658536585367
13_06_11_156,-1.0,-2.0,1.0,-1.0,-3.0,-4.0,1.0,1.0,0.94873046875,-0.12060546875,0.3173828125,8.170731707317074,-4.939024390243903,0.24390243902439027
13_06_11_156,0.0,1.0,-3.0,-1.0,2.0,1.0,0.0,-1.0,0.9443359375,-0.109375,0.32373046875,5.548780487804878,-2.8658536585365857,2.25609756097561
13_06_11_156,0.0,-5.0,-3.0,0.0,1.0,-2.0,1.0,-2.0,0.92578125,-0.09375,0.3017578125,3.4756097560975614,-0.6707317073170732,2.439024390243903
13_06_11_156,2.0,-2.0,-2.0,-2.0,0.0,0.0,0.0,-2.0,0.9228515625,-0.0908203125,0.29150390625,3.658536585365854,0.1829268292682927,1.4634146341463417
13_06_11_156,2.0,0.0,2.0,-1.0,1.0,0.0,0.0,-2.0,0.92724609375,-0.09326171875,0.29736328125,4.329268292682928,0.12195121951219513,0.7926829268292683
13_06_11_156,-4.0,0.0,-1.0,0.0,-1.0,1.0,1.0,1.0,0.93212890625,-0.09375,0.30615234375,3.7195121951219514,0.30487804878048785,0.7317073170731708
13_06_11_156,-5.0,-2.0,0.0,-1.0,0.0,-3.0,-3.0,-4.0,0.9287109375,-0.08447265625,0.3037109375,3.658536585365854,0.30487804878048785,0.9146341463414634
13_06_11_156,2.0,-2.0,2.0,-3.0,1.0,-3.0,-2.0,0.0,0.931640625,-0.08203125,0.3056640625,4.329268292682928,0.30487804878048785,0.9756097560975611
13_06_11_205,1.0,-2.0,1.0,-2.0,-3.0,-1.0,2.0,2.0,0.90380859375,-0.12548828125,0.29150390625,-7.560975609756098,7.195121951219513,-0.30487804878048785
13_06_11_205,-1.0,-3.0,1.0,-1.0,-3.0,-2.0,1.0,-3.0,0.919921875,-0.10400390625,0.29248046875,-5.914634146341464,7.378048780487806,0.853658536585366
13_06_11_205,-2.0,-2.0,2.0,2.0,-4.0,-1.0,2.0,2.0,0.9404296875,-0.0654296875,0.2822265625,-0.30487804878048785,1.7682926829268295,-0.48780487804878053
13_06_11_205,0.0,-2.0,1.0,-2.0,0.0,-1.0,0.0,-2.0,0.93701171875,-0.0771484375,0.27978515625,-0.06097560975609757,-1.829268292682927,-1.3414634146341464
13_06_11_205,0.0,-2.0,-5.0,-2.0,4.0,0.0,2.0,-3.0,0.9326171875,-0.08154296875,0.2919921875,3.536585365853659,-4.817073170731708,-1.4634146341463417
13_06_11_205,2.0,-1.0,1.0,-2.0,2.0,-3.0,-2.0,-6.0,0.93310546875,-0.10400390625,0.30859375,7.621951219512196,-5.731707317073171,-1.2195121951219514
13_06_11_205,-4.0,1.0,0.0,3.0,1.0,-2.0,-1.0,0.0,0.94873046875,-0.12060546875,0.3173828125,8.170731707317074,-4.939024390243903,0.24390243902439027
13_06_11_205,-1.0,1.0,-3.0,-3.0,-2.0,0.0,2.0,-3.0,0.9443359375,-0.109375,0.32373046875,5.548780487804878,-2.8658536585365857,2.25609756097561
13_06_11_205,-3.0,0.0,-5.0,-2.0,-3.0,0.0,0.0,-3.0,0.92578125,-0.09375,0.3017578125,3.4756097560975614,-0.6707317073170732,2.439024390243903
13_06_11_205,4.0,-4.0,-1.0,1.0,0.0,-3.0,-1.0,0.0,0.9228515625,-0.0908203125,0.29150390625,3.658536585365854,0.1829268292682927,1.4634146341463417
13_06_11_257,-7.0,-1.0,-4.0,0.0,0.0,-3.0,1.0,0.0,0.919921875,-0.10400390625,0.29248046875,-5.914634146341464,7.378048780487806,0.853658536585366
13_06_11_257,-4.0,1.0,-6.0,2.0,0.0,-1.0,2.0,-6.0,0.9404296875,-0.0654296875,0.2822265625,-0.30487804878048785,1.7682926829268295,-0.48780487804878053
13_06_11_257,-1.0,-4.0,-3.0,3.0,-5.0,-3.0,-2.0,2.0,0.93701171875,-0.0771484375,0.27978515625,-0.06097560975609757,-1.829268292682927,-1.3414634146341464
13_06_11_257,1.0,-2.0,1.0,-2.0,-3.0,-1.0,2.0,2.0,0.9326171875,-0.08154296875,0.2919921875,3.536585365853659,-4.817073170731708,-1.4634146341463417
13_06_11_257,-1.0,-3.0,1.0,-1.0,-3.0,-2.0,1.0,-3.0,0.93310546875,-0.10400390625,0.30859375,7.621951219512196,-5.731707317073171,-1.2195121951219514
13_06_11_257,-2.0,-2.0,2.0,2.0,-4.0,-1.0,2.0,2.0,0.94873046875,-0.12060546875,0.3173828125,8.170731707317074,-4.939024390243903,0.24390243902439027
13_06_11_257,0.0,-2.0,1.0,-2.0,0.0,-1.0,0.0,-2.0,0.9443359375,-0.109375,0.32373046875,5.548780487804878,-2.8658536585365857,2.25609756097561
13_06_11_257,0.0,-2.0,-5.0,-2.0,4.0,0.0,2.0,-3.0,0.92578125,-0.09375,0.3017578125,3.4756097560975614,-0.6707317073170732,2.439024390243903
13_06_11_257,2.0,-1.0,1.0,-2.0,2.0,-3.0,-2.0,-6.0,0.9228515625,-0.0908203125,0.29150390625,3.658536585365854,0.1829268292682927,1.4634146341463417
13_06_11_321,-2.0,-1.0,-1.0,-1.0,-1.0,1.0,-1.0,0.0,0.90869140625,-0.1484375,0.2734375,-9.146341463414634,2.3170731707317076,-9.817073170731708
13_06_11_321,-3.0,-1.0,1.0,0.0,-1.0,1.0,-7.0,2.0,0.876953125,-0.14453125,0.2880859375,-8.048780487804878,2.987804878048781,-6.463414634146342
13_06_11_321,-1.0,0.0,-2.0,-3.0,0.0,0.0,1.0,-1.0,0.88037109375,-0.130859375,0.291015625,-6.341463414634147,4.817073170731708,-4.390243902439025
13_06_11_321,-2.0,-1.0,1.0,1.0,-1.0,1.0,-1.0,-3.0,0.88623046875,-0.1337890625,0.29248046875,-6.829268292682928,6.2804878048780495,-2.1341463414634148
13_06_11_321,0.0,1.0,1.0,1.0,2.0,-1.0,3.0,1.0,0.90380859375,-0.12548828125,0.29150390625,-7.560975609756098,7.195121951219513,-0.30487804878048785
13_06_11_321,1.0,-1.0,0.0,0.0,-5.0,-4.0,-3.0,-1.0,0.919921875,-0.10400390625,0.29248046875,-5.914634146341464,7.378048780487806,0.853658536585366
13_06_11_321,1.0,-2.0,-6.0,-2.0,-1.0,0.0,2.0,0.0,0.9404296875,-0.0654296875,0.2822265625,-0.30487804878048785,1.7682926829268295,-0.48780487804878053
13_06_11_321,-3.0,-2.0,-2.0,1.0,-1.0,-1.0,-4.0,1.0,0.93701171875,-0.0771484375,0.27978515625,-0.06097560975609757,-1.829268292682927,-1.3414634146341464
13_06_11_321,1.0,-3.0,3.0,1.0,0.0,-5.0,2.0,1.0,0.9326171875,-0.08154296875,0.2919921875,3.536585365853659,-4.817073170731708,-1.4634146341463417
13_06_11_321,-2.0,-4.0,-2.0,-1.0,-2.0,2.0,-1.0,-3.0,0.93310546875,-0.10400390625,0.30859375,7.621951219512196,-5.731707317073171,-1.2195121951219514
13_06_11_362,1.0,0.0,-5.0,-4.0,-2.0,-3.0,1.0,0.0,0.90869140625,-0.1484375,0.2734375,-9.146341463414634,2.3170731707317076,-9.817073170731708
13_06_11_362,-5.0,0.0,0.0,1.0,0.0,-2.0,0.0,0.0,0.876953125,-0.14453125,0.2880859375,-8.048780487804878,2.987804878048781,-6.463414634146342
13_06_11_362,2.0,-8.0,0.0,-1.0,-2.0,-3.0,-1.0,0.0,0.88037109375,-0.130859375,0.291015625,-6.341463414634147,4.817073170731708,-4.390243902439025
13_06_11_362,-2.0,0.0,3.0,2.0,1.0,0.0,-1.0,2.0,0.88623046875,-0.1337890625,0.29248046875,-6.829268292682928,6.2804878048780495,-2.1341463414634148
13_06_11_362,-2.0,-1.0,-1.0,-1.0,-1.0,1.0,-1.0,0.0,0.90380859375,-0.12548828125,0.29150390625,-7.560975609756098,7.195121951219513,-0.30487804878048785
13_06_11_362,-3.0,-1.0,1.0,0.0,-1.0,1.0,-7.0,2.0,0.919921875,-0.10400390625,0.29248046875,-5.914634146341464,7.378048780487806,0.853658536585366
13_06_11_362,-1.0,0.0,-2.0,-3.0,0.0,0.0,1.0,-1.0,0.9404296875,-0.0654296875,0.2822265625,-0.30487804878048785,1.7682926829268295,-0.48780487804878053
13_06_11_362,-2.0,-1.0,1.0,1.0,-1.0,1.0,-1.0,-3.0,0.93701171875,-0.0771484375,0.27978515625,-0.06097560975609757,-1.829268292682927,-1.3414634146341464
13_06_11_424,0.0,-2.0,3.0,0.0,1.0,-3.0,3.0,-1.0,1.00830078125,0.02978515625,0.31591796875,-30.30487804878049,8.048780487804878,-9.695121951219512
13_06_11_424,-2.0,-3.0,2.0,1.0,1.0,-1.0,-3.0,-1.0,1.0537109375,-0.0322265625,0.30859375,-13.658536585365855,5.853658536585367,-12.073170731707318
13_06_11_424,-2.0,-1.0,-6.0,-1.0,-1.0,-2.0,4.0,-3.0,1.05517578125,-0.10400390625,0.30908203125,-3.9024390243902443,4.51219512195122,-13.29268292682927
13_06_11_424,-1.0,-1.0,-3.0,3.0,-1.0,0.0,-4.0,-2.0,1.0234375,-0.1435546875,0.296875,-3.1097560975609757,3.658536585365854,-12.80487804878049
13_06_11_424,-1.0,-1.0,-3.0,-2.0,2.0,-2.0,0.0,-3.0,0.95703125,-0.14990234375,0.2900390625,-6.52439024390244,2.6219512195121952,-11.463414634146343
13_06_11_424,-5.0,1.0,-4.0,0.0,-1.0,-1.0,-4.0,-1.0,0.90869140625,-0.1484375,0.2734375,-9.146341463414634,2.3170731707317076,-9.817073170731708
13_06_11_424,3.0,-1.0,1.0,0.0,-2.0,-2.0,-3.0,0.0,0.876953125,-0.14453125,0.2880859375,-8.048780487804878,2.987804878048781,-6.463414634146342
13_06_11_424,-1.0,0.0,1.0,0.0,-4.0,2.0,-3.0,0.0,0.88037109375,-0.130859375,0.291015625,-6.341463414634147,4.817073170731708,-4.390243902439025
13_06_11_424,0.0,0.0,-3.0,-2.0,1.0,-4.0,-2.0,2.0,0.88623046875,-0.1337890625,0.29248046875,-6.829268292682928,6.2804878048780495,-2.1341463414634148
13_06_11_424,-4.0,-4.0,-3.0,-3.0,0.0,-2.0,-1.0,3.0,0.90380859375,-0.12548828125,0.29150390625,-7.560975609756098,7.195121951219513,-0.30487804878048785
13_06_11_468,-4.0,-14.0,1.0,-2.0,-3.0,0.0,-2.0,0.0,1.0234375,-0.1435546875,0.296875,-3.1097560975609757,3.658536585365854,-12.80487804878049
13_06_11_468,0.0,-3.0,-3.0,0.0,-1.0,1.0,1.0,2.0,0.95703125,-0.14990234375,0.2900390625,-6.52439024390244,2.6219512195121952,-11.463414634146343
13_06_11_468,0.0,-2.0,3.0,0.0,1.0,-3.0,3.0,-1.0,0.90869140625,-0.1484375,0.2734375,-9.146341463414634,2.3170731707317076,-9.817073170731708
13_06_11_468,-2.0,-3.0,2.0,1.0,1.0,-1.0,-3.0,-1.0,0.876953125,-0.14453125,0.2880859375,-8.048780487804878,2.987804878048781,-6.463414634146342
13_06_11_468,-2.0,-1.0,-6.0,-1.0,-1.0,-2.0,4.0,-3.0,0.88037109375,-0.130859375,0.291015625,-6.341463414634147,4.817073170731708,-4.390243902439025
13_06_11_468,-1.0,-1.0,-3.0,3.0,-1.0,0.0,-4.0,-2.0,0.88623046875,-0.1337890625,0.29248046875,-6.829268292682928,6.2804878048780495,-2.1341463414634148
13_06_11_515,1.0,17.0,-2.0,-2.0,-1.0,-2.0,4.0,-4.0,1.00830078125,0.02978515625,0.31591796875,-30.30487804878049,8.048780487804878,-9.695121951219512
13_06_11_515,-1.0,-26.0,4.0,3.0,1.0,0.0,-8.0,1.0,1.0537109375,-0.0322265625,0.30859375,-13.658536585365855,5.853658536585367,-12.073170731707318
13_06_11_515,2.0,-5.0,3.0,-3.0,0.0,1.0,-1.0,-5.0,1.05517578125,-0.10400390625,0.30908203125,-3.9024390243902443,4.51219512195122,-13.29268292682927
13_06_11_515,-3.0,-2.0,0.0,-2.0,-4.0,1.0,1.0,-3.0,1.0234375,-0.1435546875,0.296875,-3.1097560975609757,3.658536585365854,-12.80487804878049
13_06_11_515,-1.0,-2.0,-5.0,4.0,4.0,-6.0,2.0,0.0,0.95703125,-0.14990234375,0.2900390625,-6.52439024390244,2.6219512195121952,-11.463414634146343
13_06_11_515,-1.0,-1.0,-2.0,-4.0,-5.0,0.0,0.0,-1.0,0.90869140625,-0.1484375,0.2734375,-9.146341463414634,2.3170731707317076,-9.817073170731708
13_06_11_561,0.0,4.0,-5.0,-3.0,1.0,-2.0,0.0,0.0,0.93701171875,0.0439453125,0.4189453125,-15.365853658536587,10.670731707317074,-3.231707317073171
13_06_11_561,-2.0,-3.0,-1.0,11.0,-2.0,-2.0,0.0,-4.0,0.92333984375,0.01513671875,0.4228515625,-11.463414634146343,12.378048780487806,-0.5487804878048781
13_06_11_561,-1.0,-1.0,-4.0,-5.0,-3.0,1.0,-1.0,2.0,0.8642578125,-0.025390625,0.41650390625,-19.02439024390244,14.573170731707318,-0.9146341463414634
13_06_11_561,4.0,-5.0,-4.0,2.0,-4.0,0.0,-2.0,-2.0,0.84130859375,-0.0419921875,0.392578125,-34.87804878048781,14.634146341463415,-1.524390243902439
13_06_11_561,-1.0,2.0,2.0,-6.0,-2.0,-6.0,-3.0,-5.0,0.87451171875,-0.01806640625,0.36279296875,-46.951219512195124,13.04878048780488,-3.353658536585366
13_06_11_561,-3.0,-1.0,-1.0,-7.0,-3.0,-3.0,1.0,-2.0,0.93505859375,0.03857421875,0.3359375,-45.00000000000001,10.548780487804878,-5.975609756097562
13_06_11_561,-2.0,6.0,-8.0,0.0,-4.0,1.0,-2.0,-1.0,1.00830078125,0.02978515625,0.31591796875,-30.30487804878049,8.048780487804878,-9.695121951219512
13_06_11_561,-2.0,-7.0,-1.0,-1.0,-3.0,2.0,1.0,-3.0,1.0537109375,-0.0322265625,0.30859375,-13.658536585365855,5.853658536585367,-12.073170731707318
13_06_11_561,3.0,2.0,-5.0,0.0,1.0,-3.0,0.0,-2.0,1.05517578125,-0.10400390625,0.30908203125,-3.9024390243902443,4.51219512195122,-13.29268292682927
13_06_11_561,-2.0,-3.0,-4.0,1.0,1.0,-1.0,-2.0,-2.0,1.0234375,-0.1435546875,0.296875,-3.1097560975609757,3.658536585365854,-12.80487804878049
13_06_11_611,0.0,-5.0,-5.0,-4.0,-1.0,0.0,-2.0,1.0,0.81103515625,-0.01953125,0.474609375,-37.987804878048784,12.01219512195122,-11.52439024390244
13_06_11_611,-2.0,-4.0,4.0,0.0,-3.0,-3.0,-3.0,-3.0,0.83154296875,0.0126953125,0.44580078125,-38.04878048780488,12.256097560975611,-8.841463414634147
13_06_11_611,-1.0,-1.0,-1.0,-5.0,1.0,-3.0,0.0,-4.0,0.85595703125,0.0478515625,0.42919921875,-35.54878048780488,11.951219512195124,-6.097560975609756
13_06_11_611,-3.0,1.0,0.0,2.0,0.0,0.0,-4.0,0.0,0.93701171875,0.0439453125,0.4189453125,-15.365853658536587,10.670731707317074,-3.231707317073171
13_06_11_611,-4.0,1.0,5.0,-1.0,-2.0,-1.0,-4.0,1.0,0.92333984375,0.01513671875,0.4228515625,-11.463414634146343,12.378048780487806,-0.5487804878048781
13_06_11_611,-2.0,-2.0,-4.0,-4.0,-6.0,-1.0,-2.0,1.0,0.8642578125,-0.025390625,0.41650390625,-19.02439024390244,14.573170731707318,-0.9146341463414634
13_06_11_611,1.0,1.0,-1.0,7.0,0.0,1.0,1.0,-2.0,0.84130859375,-0.0419921875,0.392578125,-34.87804878048781,14.634146341463415,-1.524390243902439
13_06_11_611,2.0,1.0,-3.0,-1.0,6.0,-2.0,1.0,-3.0,0.87451171875,-0.01806640625,0.36279296875,-46.951219512195124,13.04878048780488,-3.353658536585366
13_06_11_611,0.0,-5.0,1.0,1.0,-1.0,-2.0,-1.0,-4.0,0.93505859375,0.03857421875,0.3359375,-45.00000000000001,10.548780487804878,-5.975609756097562
13_06_11_611,-1.0,1.0,-5.0,0.0,-2.0,-1.0,-1.0,1.0,1.00830078125,0.02978515625,0.31591796875,-30.30487804878049,8.048780487804878,-9.695121951219512
13_06_11_672,-3.0,-1.0,-2.0,-1.0,-4.0,-1.0,1.0,3.0,0.81103515625,-0.01953125,0.474609375,-37.987804878048784,12.01219512195122,-11.52439024390244
13_06_11_672,0.0,-5.0,-5.0,-4.0,-1.0,0.0,-2.0,1.0,0.83154296875,0.0126953125,0.44580078125,-38.04878048780488,12.256097560975611,-8.841463414634147
13_06_11_672,-2.0,-4.0,4.0,0.0,-3.0,-3.0,-3.0,-3.0,0.85595703125,0.0478515625,0.42919921875,-35.54878048780488,11.951219512195124,-6.097560975609756
13_06_11_672,-1.0,-1.0,-1.0,-5.0,1.0,-3.0,0.0,-4.0,0.93701171875,0.0439453125,0.4189453125,-15.365853658536587,10.670731707317074,-3.231707317073171
13_06_11_672,-3.0,1.0,0.0,2.0,0.0,0.0,-4.0,0.0,0.92333984375,0.01513671875,0.4228515625,-11.463414634146343,12.378048780487806,-0.5487804878048781
13_06_11_672,-4.0,1.0,5.0,-1.0,-2.0,-1.0,-4.0,1.0,0.8642578125,-0.025390625,0.41650390625,-19.02439024390244,14.573170731707318,-0.9146341463414634
13_06_11_672,-2.0,-2.0,-4.0,-4.0,-6.0,-1.0,-2.0,1.0,0.84130859375,-0.0419921875,0.392578125,-34.87804878048781,14.634146341463415,-1.524390243902439
13_06_11_672,1.0,1.0,-1.0,7.0,0.0,1.0,1.0,-2.0,0.87451171875,-0.01806640625,0.36279296875,-46.951219512195124,13.04878048780488,-3.353658536585366
13_06_11_672,2.0,1.0,-3.0,-1.0,6.0,-2.0,1.0,-3.0,0.93505859375,0.03857421875,0.3359375,-45.00000000000001,10.548780487804878,-5.975609756097562
13_06_11_721,-5.0,-2.0,-20.0,-3.0,-2.0,-6.0,-4.0,-1.0,0.75146484375,-0.1591796875,0.5712890625,-35.426829268292686,8.353658536585366,-15.975609756097562
13_06_11_721,-3.0,2.0,0.0,1.0,0.0,-1.0,-1.0,-3.0,0.7333984375,-0.115234375,0.54638671875,-40.0,7.743902439024391,-18.719512195121954
13_06_11_721,-3.0,2.0,0.0,0.0,0.0,-3.0,-3.0,-6.0,0.73291015625,-0.10009765625,0.5302734375,-41.890243902439025,8.231707317073171,-20.121951219512198
13_06_11_721,0.0,-3.0,2.0,3.0,0.0,-3.0,1.0,-3.0,0.7568359375,-0.09912109375,0.51611328125,-42.804878048780495,9.451219512195122,-19.32926829268293
13_06_11_721,-3.0,-2.0,-1.0,1.0,1.0,3.0,0.0,1.0,0.78955078125,-0.06103515625,0.50341796875,-40.426829268292686,11.219512195121952,-15.670731707317074
13_06_11_721,1.0,-3.0,6.0,4.0,-1.0,2.0,-2.0,-2.0,0.81103515625,-0.01953125,0.474609375,-37.987804878048784,12.01219512195122,-11.52439024390244
13_06_11_721,0.0,-1.0,-8.0,-5.0,-2.0,-2.0,-3.0,3.0,0.83154296875,0.0126953125,0.44580078125,-38.04878048780488,12.256097560975611,-8.841463414634147
13_06_11_721,-1.0,0.0,-4.0,-7.0,-1.0,-2.0,-1.0,-1.0,0.85595703125,0.0478515625,0.42919921875,-35.54878048780488,11.951219512195124,-6.097560975609756
13_06_11_721,-3.0,-6.0,2.0,3.0,2.0,4.0,-1.0,-3.0,0.93701171875,0.0439453125,0.4189453125,-15.365853658536587,10.670731707317074,-3.231707317073171
13_06_11_721,0.0,-1.0,-9.0,-2.0,0.0,0.0,1.0,-1.0,0.92333984375,0.01513671875,0.4228515625,-11.463414634146343,12.378048780487806,-0.5487804878048781
13_06_11_800,-3.0,-1.0,-6.0,2.0,-5.0,1.0,-4.0,5.0,0.75146484375,-0.1591796875,0.5712890625,-35.426829268292686,8.353658536585366,-15.975609756097562
13_06_11_800,1.0,0.0,0.0,-2.0,1.0,1.0,2.0,-1.0,0.7333984375,-0.115234375,0.54638671875,-40.0,7.743902439024391,-18.719512195121954
13_06_11_800,-5.0,-2.0,-20.0,-3.0,-2.0,-6.0,-4.0,-1.0,0.73291015625,-0.10009765625,0.5302734375,-41.890243902439025,8.231707317073171,-20.121951219512198
13_06_11_800,-3.0,2.0,0.0,1.0,0.0,-1.0,-1.0,-3.0,0.7568359375,-0.09912109375,0.51611328125,-42.804878048780495,9.451219512195122,-19.32926829268293
13_06_11_800,-3.0,2.0,0.0,0.0,0.0,-3.0,-3.0,-6.0,0.78955078125,-0.06103515625,0.50341796875,-40.426829268292686,11.219512195121952,-15.670731707317074
13_06_11_800,0.0,-3.0,2.0,3.0,0.0,-3.0,1.0,-3.0,0.81103515625,-0.01953125,0.474609375,-37.987804878048784,12.01219512195122,-11.52439024390244
13_06_11_800,-3.0,-2.0,-1.0,1.0,1.0,3.0,0.0,1.0,0.83154296875,0.0126953125,0.44580078125,-38.04878048780488,12.256097560975611,-8.841463414634147
13_06_11_800,1.0,-3.0,6.0,4.0,-1.0,2.0,-2.0,-2.0,0.85595703125,0.0478515625,0.42919921875,-35.54878048780488,11.951219512195124,-6.097560975609756
13_06_11_800,0.0,-1.0,-8.0,-5.0,-2.0,-2.0,-3.0,3.0,0.93701171875,0.0439453125,0.4189453125,-15.365853658536587,10.670731707317074,-3.231707317073171
13_06_11_800,-1.0,0.0,-4.0,-7.0,-1.0,-2.0,-1.0,-1.0,0.92333984375,0.01513671875,0.4228515625,-11.463414634146343,12.378048780487806,-0.5487804878048781
13_06_11_845,0.0,0.0,19.0,9.0,4.0,3.0,-5.0,2.0,0.75341796875,-0.23583984375,0.62451171875,-3.658536585365854,27.378048780487806,15.182926829268293
13_06_11_845,0.0,-2.0,-4.0,-6.0,-1.0,-1.0,0.0,1.0,0.748046875,-0.22509765625,0.60595703125,-11.402439024390246,21.28048780487805,8.414634146341465
13_06_11_845,-4.0,-2.0,-14.0,-2.0,-3.0,-2.0,-4.0,-1.0,0.77001953125,-0.1875,0.58349609375,-18.475609756097562,7.865853658536586,-8.475609756097562
13_06_11_845,1.0,-1.0,2.0,-3.0,2.0,-5.0,-1.0,-1.0,0.75830078125,-0.18359375,0.58154296875,-24.573170731707318,7.621951219512196,-11.951219512195124
13_06_11_845,-2.0,0.0,3.0,-1.0,1.0,0.0,-2.0,-1.0,0.75146484375,-0.1591796875,0.5712890625,-35.426829268292686,8.353658536585366,-15.975609756097562
13_06_11_845,-2.0,1.0,-2.0,-1.0,-1.0,-1.0,-2.0,2.0,0.7333984375,-0.115234375,0.54638671875,-40.0,7.743902439024391,-18.719512195121954
13_06_11_845,-3.0,1.0,1.0,0.0,0.0,0.0,-4.0,0.0,0.73291015625,-0.10009765625,0.5302734375,-41.890243902439025,8.231707317073171,-20.121951219512198
13_06_11_845,-2.0,2.0,1.0,0.0,-3.0,-5.0,1.0,-2.0,0.7568359375,-0.09912109375,0.51611328125,-42.804878048780495,9.451219512195122,-19.32926829268293
13_06_11_845,0.0,-3.0,-16.0,-7.0,-5.0,2.0,-2.0,2.0,0.78955078125,-0.06103515625,0.50341796875,-40.426829268292686,11.219512195121952,-15.670731707317074
13_06_11_845,-5.0,-6.0,-6.0,-1.0,-5.0,1.0,1.0,-2.0,0.81103515625,-0.01953125,0.474609375,-37.987804878048784,12.01219512195122,-11.52439024390244
13_06_11_883,0.0,-2.0,1.0,2.0,2.0,-1.0,0.0,-4.0,0.76123046875,-0.2138671875,0.65576171875,1.1585365853658538,32.86585365853659,20.60975609756098
13_06_11_883,-3.0,-4.0,-1.0,3.0,-2.0,-1.0,2.0,-4.0,0.75341796875,-0.23583984375,0.62451171875,-3.658536585365854,27.378048780487806,15.182926829268293
13_06_11_883,1.0,-1.0,-1.0,-2.0,-1.0,-2.0,-3.0,-2.0,0.748046875,-0.22509765625,0.60595703125,-11.402439024390246,21.28048780487805,8.414634146341465
13_06_11_883,-2.0,1.0,-2.0,-1.0,-4.0,-1.0,-3.0,3.0,0.77001953125,-0.1875,0.58349609375,-18.475609756097562,7.865853658536586,-8.475609756097562
13_06_11_883,0.0,-4.0,-20.0,-2.0,1.0,0.0,-3.0,-1.0,0.75830078125,-0.18359375,0.58154296875,-24.573170731707318,7.621951219512196,-11.951219512195124
13_06_11_883,-1.0,1.0,2.0,1.0,-2.0,-1.0,-3.0,0.0,0.75146484375,-0.1591796875,0.5712890625,-35.426829268292686,8.353658536585366,-15.975609756097562
13_06_11_883,-2.0,-1.0,4.0,-3.0,-2.0,1.0,-1.0,-2.0,0.7333984375,-0.115234375,0.54638671875,-40.0,7.743902439024391,-18.719512195121954
13_06_11_883,-6.0,-4.0,-2.0,-5.0,-2.0,-3.0,-3.0,-1.0,0.73291015625,-0.10009765625,0.5302734375,-41.890243902439025,8.231707317073171,-20.121951219512198
13_06_11_883,-3.0,-2.0,-23.0,-7.0,-3.0,-2.0,1.0,-2.0,0.7568359375,-0.09912109375,0.51611328125,-42.804878048780495,9.451219512195122,-19.32926829268293
13_06_11_942,-5.0,0.0,6.0,-2.0,-5.0,0.0,-3.0,-1.0,0.748046875,-0.22509765625,0.60595703125,-11.402439024390246,21.28048780487805,8.414634146341465
13_06_11_942,0.0,-2.0,1.0,2.0,2.0,-1.0,0.0,-4.0,0.77001953125,-0.1875,0.58349609375,-18.475609756097562,7.865853658536586,-8.475609756097562
13_06_11_942,-3.0,-4.0,-1.0,3.0,-2.0,-1.0,2.0,-4.0,0.75830078125,-0.18359375,0.58154296875,-24.573170731707318,7.621951219512196,-11.951219512195124
13_06_11_942,1.0,-1.0,-1.0,-2.0,-1.0,-2.0,-3.0,-2.0,0.75146484375,-0.1591796875,0.5712890625,-35.426829268292686,8.353658536585366,-15.975609756097562
13_06_11_942,-2.0,1.0,-2.0,-1.0,-4.0,-1.0,-3.0,3.0,0.7333984375,-0.115234375,0.54638671875,-40.0,7.743902439024391,-18.719512195121954
13_06_11_942,0.0,-4.0,-20.0,-2.0,1.0,0.0,-3.0,-1.0,0.73291015625,-0.10009765625,0.5302734375,-41.890243902439025,8.231707317073171,-20.121951219512198
13_06_11_980,4.0,-1.0,-11.0,-1.0,-3.0,-1.0,-3.0,-5.0,0.7060546875,-0.24609375,0.7060546875,-7.073170731707318,40.426829268292686,47.01219512195122
13_06_11_980,1.0,3.0,5.0,-4.0,-5.0,-2.0,-4.0,4.0,0.73681640625,-0.25927734375,0.7099609375,-14.451219512195124,42.987804878048784,43.41463414634147
13_06_11_980,-6.0,2.0,3.0,0.0,5.0,-1.0,-1.0,-2.0,0.76416015625,-0.24658203125,0.7080078125,-18.231707317073173,44.451219512195124,39.451219512195124
13_06_11_980,-2.0,-1.0,-1.0,-3.0,-2.0,-1.0,-4.0,-1.0,0.76416015625,-0.2216796875,0.6953125,-15.426829268292684,45.00000000000001,35.0609756097561
13_06_11_980,-3.0,-7.0,-5.0,-2.0,3.0,-1.0,-1.0,0.0,0.75244140625,-0.2041015625,0.68115234375,-8.231707317073171,42.86585365853659,29.39024390243903
13_06_11_980,2.0,1.0,-4.0,-1.0,3.0,-5.0,0.0,2.0,0.7626953125,-0.205078125,0.6689453125,-1.7682926829268295,38.53658536585366,24.634146341463417
13_06_11_980,-1.0,1.0,3.0,2.0,1.0,0.0,-4.0,-3.0,0.76123046875,-0.2138671875,0.65576171875,1.1585365853658538,32.86585365853659,20.60975609756098
13_06_11_980,-1.0,-2.0,-6.0,2.0,1.0,0.0,1.0,-4.0,0.75341796875,-0.23583984375,0.62451171875,-3.658536585365854,27.378048780487806,15.182926829268293
13_06_11_980,-4.0,-3.0,-2.0,1.0,-3.0,-1.0,-2.0,-1.0,0.748046875,-0.22509765625,0.60595703125,-11.402439024390246,21.28048780487805,8.414634146341465
13_06_11_980,-4.0,0.0,4.0,0.0,0.0,0.0,1.0,1.0,0.77001953125,-0.1875,0.58349609375,-18.475609756097562,7.865853658536586,-8.475609756097562
13_06_12_036,0.0,2.0,5.0,-1.0,3.0,-2.0,1.0,-1.0,0.62109375,-0.23095703125,0.65673828125,9.51219512195122,26.402439024390247,56.585365853658544
13_06_12_036,0.0,-10.0,-1.0,-1.0,1.0,-3.0,-1.0,-1.0,0.63623046875,-0.22900390625,0.67578125,5.2439024390243905,30.853658536585368,53.84146341463415
13_06_12_036,-2.0,2.0,-2.0,1.0,-3.0,-3.0,0.0,-2.0,0.66796875,-0.23486328125,0.6904296875,-0.48780487804878053,36.21951219512196,50.54878048780488
13_06_12_036,0.0,0.0,-1.0,-3.0,-2.0,-2.0,-3.0,-1.0,0.7060546875,-0.24609375,0.7060546875,-7.073170731707318,40.426829268292686,47.01219512195122
13_06_12_036,-1.0,3.0,6.0,0.0,1.0,0.0,-2.0,1.0,0.73681640625,-0.25927734375,0.7099609375,-14.451219512195124,42.987804878048784,43.41463414634147
13_06_12_036,2.0,-1.0,6.0,-5.0,-2.0,1.0,-4.0,2.0,0.76416015625,-0.24658203125,0.7080078125,-18.231707317073173,44.451219512195124,39.451219512195124
13_06_12_036,-2.0,2.0,-3.0,2.0,-1.0,2.0,2.0,-1.0,0.76416015625,-0.2216796875,0.6953125,-15.426829268292684,45.00000000000001,35.0609756097561
13_06_12_036,-8.0,1.0,4.0,1.0,-3.0,-1.0,1.0,-2.0,0.75244140625,-0.2041015625,0.68115234375,-8.231707317073171,42.86585365853659,29.39024390243903
13_06_12_036,-4.0,-2.0,2.0,8.0,1.0,-1.0,0.0,2.0,0.7626953125,-0.205078125,0.6689453125,-1.7682926829268295,38.53658536585366,24.634146341463417
13_06_12_036,-1.0,1.0,1.0,1.0,0.0,-2.0,0.0,0.0,0.76123046875,-0.2138671875,0.65576171875,1.1585365853658538,32.86585365853659,20.60975609756098
13_06_12_086,-2.0,-3.0,1.0,0.0,0.0,0.0,-3.0,-1.0,0.69775390625,-0.30224609375,0.7216796875,9.085365853658537,19.939024390243905,57.865853658536594
13_06_12_086,-4.0,-2.0,-2.0,4.0,1.0,1.0,-5.0,-3.0,0.62109375,-0.23095703125,0.65673828125,9.51219512195122,26.402439024390247,56.585365853658544
13_06_12_086,-1.0,2.0,7.0,-2.0,0.0,-2.0,2.0,-3.0,0.63623046875,-0.22900390625,0.67578125,5.2439024390243905,30.853658536585368,53.84146341463415
13_06_12_086,-5.0,5.0,1.0,3.0,-3.0,2.0,-3.0,2.0,0.66796875,-0.23486328125,0.6904296875,-0.48780487804878053,36.21951219512196,50.54878048780488
13_06_12_086,0.0,-4.0,3.0,-7.0,-5.0,-4.0,2.0,-4.0,0.7060546875,-0.24609375,0.7060546875,-7.073170731707318,40.426829268292686,47.01219512195122
13_06_12_086,1.0,-5.0,-6.0,0.0,-4.0,2.0,-1.0,-3.0,0.73681640625,-0.25927734375,0.7099609375,-14.451219512195124,42.987804878048784,43.41463414634147
13_06_12_086,3.0,-1.0,-4.0,-1.0,0.0,0.0,-1.0,-1.0,0.76416015625,-0.24658203125,0.7080078125,-18.231707317073173,44.451219512195124,39.451219512195124
13_06_12_086,-4.0,-1.0,-1.0,1.0,-3.0,-2.0,-1.0,1.0,0.76416015625,-0.2216796875,0.6953125,-15.426829268292684,45.00000000000001,35.0609756097561
13_06_12_144,-6.0,1.0,0.0,-6.0,-4.0,-1.0,0.0,-1.0,0.69775390625,-0.30224609375,0.7216796875,9.085365853658537,19.939024390243905,57.865853658536594
13_06_12_144,3.0,-2.0,-14.0,-4.0,-2.0,-2.0,1.0,-2.0,0.62109375,-0.23095703125,0.65673828125,9.51219512195122,26.402439024390247,56.585365853658544
13_06_12_144,-5.0,1.0,1.0,-1.0,-2.0,-3.0,0.0,1.0,0.63623046875,-0.22900390625,0.67578125,5.2439024390243905,30.853658536585368,53.84146341463415
13_06_12_144,-1.0,-2.0,-1.0,1.0,0.0,0.0,2.0,-4.0,0.66796875,-0.23486328125,0.6904296875,-0.48780487804878053,36.21951219512196,50.54878048780488
13_06_12_144,2.0,2.0,-20.0,-6.0,1.0,-1.0,0.0,0.0,0.7060546875,-0.24609375,0.7060546875,-7.073170731707318,40.426829268292686,47.01219512195122
13_06_12_144,-2.0,-3.0,1.0,0.0,0.0,0.0,-3.0,-1.0,0.73681640625,-0.25927734375,0.7099609375,-14.451219512195124,42.987804878048784,43.41463414634147
13_06_12_144,-4.0,-2.0,-2.0,4.0,1.0,1.0,-5.0,-3.0,0.76416015625,-0.24658203125,0.7080078125,-18.231707317073173,44.451219512195124,39.451219512195124
13_06_12_188,2.0,0.0,-11.0,-3.0,-2.0,0.0,4.0,-2.0,0.84716796875,-0.275390625,0.36865234375,17.804878048780488,9.390243902439025,28.414634146341466
13_06_12_188,-6.0,-26.0,-11.0,-6.0,-3.0,-1.0,-1.0,-3.0,0.8486328125,-0.2236328125,0.35107421875,7.25609756097561,3.963414634146342,31.280487804878053
13_06_12_188,1.0,8.0,-8.0,0.0,-1.0,0.0,-2.0,-1.0,0.90625,-0.2041015625,0.3955078125,10.914634146341465,-3.7195121951219514,31.03658536585366
13_06_12_188,5.0,4.0,12.0,0.0,-1.0,-3.0,-3.0,-1.0,0.9775390625,-0.30908203125,0.51904296875,14.26829268292683,-10.914634146341465,29.08536585365854
13_06_12_188,-6.0,-2.0,-17.0,-3.0,-2.0,-4.0,0.0,-2.0,1.0361328125,-0.447265625,0.64892578125,12.439024390243903,-12.682926829268293,35.36585365853659
13_06_12_188,2.0,0.0,11.0,0.0,1.0,0.0,-3.0,-1.0,0.91552734375,-0.435546875,0.74951171875,11.52439024390244,1.7682926829268295,51.09756097560976
13_06_12_188,2.0,-1.0,-8.0,-6.0,-3.0,-2.0,-2.0,1.0,0.69775390625,-0.30224609375,0.7216796875,9.085365853658537,19.939024390243905,57.865853658536594
13_06_12_188,-3.0,1.0,7.0,2.0,-2.0,1.0,0.0,1.0,0.62109375,-0.23095703125,0.65673828125,9.51219512195122,26.402439024390247,56.585365853658544
13_06_12_188,1.0,3.0,-10.0,1.0,0.0,1.0,-2.0,1.0,0.63623046875,-0.22900390625,0.67578125,5.2439024390243905,30.853658536585368,53.84146341463415
13_06_12_239,5.0,4.0,9.0,-4.0,-5.0,-3.0,-5.0,1.0,0.9345703125,-0.24072265625,0.40283203125,33.47560975609756,8.719512195121952,16.82926829268293
13_06_12_239,0.0,3.0,-8.0,2.0,0.0,1.0,-3.0,-1.0,0.92138671875,-0.28515625,0.41552734375,40.36585365853659,11.646341463414634,20.0609756097561
13_06_12_239,2.0,0.0,1.0,6.0,3.0,-3.0,0.0,0.0,0.87939453125,-0.28955078125,0.40625,34.207317073170735,11.890243902439025,23.84146341463415
13_06_12_239,-2.0,-3.0,5.0,0.0,-1.0,-1.0,4.0,-2.0,0.84716796875,-0.275390625,0.36865234375,17.804878048780488,9.390243902439025,28.414634146341466
13_06_12_239,-2.0,-2.0,-4.0,-4.0,0.0,-1.0,-3.0,-3.0,0.8486328125,-0.2236328125,0.35107421875,7.25609756097561,3.963414634146342,31.280487804878053
13_06_12_239,2.0,-8.0,-4.0,0.0,-2.0,2.0,1.0,1.0,0.90625,-0.2041015625,0.3955078125,10.914634146341465,-3.7195121951219514,31.03658536585366
13_06_12_239,-1.0,3.0,9.0,-1.0,-1.0,-1.0,0.0,1.0,0.9775390625,-0.30908203125,0.51904296875,14.26829268292683,-10.914634146341465,29.08536585365854
13_06_12_239,-2.0,0.0,-26.0,-1.0,0.0,0.0,1.0,-5.0,1.0361328125,-0.447265625,0.64892578125,12.439024390243903,-12.682926829268293,35.36585365853659
13_06_12_239,-5.0,-3.0,12.0,1.0,-2.0,1.0,0.0,-1.0,0.91552734375,-0.435546875,0.74951171875,11.52439024390244,1.7682926829268295,51.09756097560976
13_06_12_239,-1.0,-2.0,-6.0,-5.0,2.0,-2.0,0.0,-1.0,0.69775390625,-0.30224609375,0.7216796875,9.085365853658537,19.939024390243905,57.865853658536594
13_06_12_285,-1.0,-5.0,-13.0,-5.0,-1.0,0.0,-1.0,-2.0,0.8720703125,-0.2509765625,0.34326171875,-1.0365853658536586,-0.6707317073170732,9.207317073170733
13_06_12_285,2.0,9.0,9.0,0.0,-4.0,-2.0,2.0,1.0,0.923828125,-0.22119140625,0.36572265625,1.524390243902439,0.426829268292683,11.707317073170733
13_06_12_285,3.0,-4.0,5.0,1.0,-1.0,1.0,-5.0,4.0,0.93994140625,-0.20703125,0.37841796875,16.34146341463415,4.085365853658537,13.902439024390246
13_06_12_285,-2.0,-4.0,3.0,-3.0,0.0,-2.0,-4.0,1.0,0.9345703125,-0.24072265625,0.40283203125,33.47560975609756,8.719512195121952,16.82926829268293
13_06_12_285,3.0,4.0,-2.0,0.0,1.0,-2.0,-1.0,-3.0,0.92138671875,-0.28515625,0.41552734375,40.36585365853659,11.646341463414634,20.0609756097561
13_06_12_285,-1.0,-3.0,-1.0,0.0,0.0,1.0,-3.0,-3.0,0.87939453125,-0.28955078125,0.40625,34.207317073170735,11.890243902439025,23.84146341463415
13_06_12_285,1.0,2.0,-4.0,1.0,0.0,0.0,-2.0,4.0,0.84716796875,-0.275390625,0.36865234375,17.804878048780488,9.390243902439025,28.414634146341466
13_06_12_285,-3.0,3.0,10.0,0.0,0.0,0.0,2.0,3.0,0.8486328125,-0.2236328125,0.35107421875,7.25609756097561,3.963414634146342,31.280487804878053
13_06_12_285,-4.0,11.0,4.0,-5.0,-1.0,3.0,-4.0,0.0,0.90625,-0.2041015625,0.3955078125,10.914634146341465,-3.7195121951219514,31.03658536585366
13_06_12_285,-3.0,3.0,-1.0,3.0,3.0,1.0,0.0,-1.0,0.9775390625,-0.30908203125,0.51904296875,14.26829268292683,-10.914634146341465,29.08536585365854
13_06_12_341,-6.0,5.0,0.0,-6.0,-5.0,-3.0,0.0,-1.0,0.7802734375,-0.24267578125,0.3544921875,17.195121951219512,-1.4634146341463417,4.451219512195122
13_06_12_341,1.0,8.0,11.0,2.0,0.0,-1.0,1.0,-4.0,0.81640625,-0.26708984375,0.34716796875,8.414634146341465,-0.7317073170731708,6.463414634146342
13_06_12_341,-1.0,-4.0,-8.0,-5.0,-2.0,-2.0,-4.0,-1.0,0.8720703125,-0.2509765625,0.34326171875,-1.0365853658536586,-0.6707317073170732,9.207317073170733
13_06_12_341,-4.0,-14.0,0.0,1.0,-3.0,-3.0,-1.0,1.0,0.923828125,-0.22119140625,0.36572265625,1.524390243902439,0.426829268292683,11.707317073170733
13_06_12_341,3.0,10.0,7.0,-1.0,1.0,-2.0,3.0,-1.0,0.93994140625,-0.20703125,0.37841796875,16.34146341463415,4.085365853658537,13.902439024390246
13_06_12_341,-3.0,-7.0,4.0,-2.0,0.0,-2.0,3.0,1.0,0.9345703125,-0.24072265625,0.40283203125,33.47560975609756,8.719512195121952,16.82926829268293
13_06_12_341,-1.0,3.0,-7.0,0.0,-1.0,0.0,0.0,0.0,0.92138671875,-0.28515625,0.41552734375,40.36585365853659,11.646341463414634,20.0609756097561
13_06_12_341,-1.0,6.0,11.0,0.0,-1.0,-2.0,1.0,-3.0,0.87939453125,-0.28955078125,0.40625,34.207317073170735,11.890243902439025,23.84146341463415
13_06_12_341,-1.0,-5.0,-13.0,-5.0,-1.0,0.0,-1.0,-2.0,0.84716796875,-0.275390625,0.36865234375,17.804878048780488,9.390243902439025,28.414634146341466
13_06_12_341,2.0,9.0,9.0,0.0,-4.0,-2.0,2.0,1.0,0.8486328125,-0.2236328125,0.35107421875,7.25609756097561,3.963414634146342,31.280487804878053
13_06_12_391,-6.0,-36.0,-18.0,-5.0,-3.0,-5.0,-4.0,-3.0,0.81640625,-0.26708984375,0.34716796875,8.414634146341465,-0.7317073170731708,6.463414634146342
13_06_12_391,3.0,7.0,13.0,2.0,0.0,-2.0,-1.0,1.0,0.8720703125,-0.2509765625,0.34326171875,-1.0365853658536586,-0.6707317073170732,9.207317073170733
13_06_12_391,0.0,2.0,6.0,0.0,-1.0,3.0,-2.0,-1.0,0.923828125,-0.22119140625,0.36572265625,1.524390243902439,0.426829268292683,11.707317073170733
13_06_12_391,-5.0,2.0,-50.0,-3.0,-8.0,0.0,-3.0,-2.0,0.93994140625,-0.20703125,0.37841796875,16.34146341463415,4.085365853658537,13.902439024390246
13_06_12_391,-3.0,0.0,10.0,1.0,-2.0,-1.0,-2.0,1.0,0.9345703125,-0.24072265625,0.40283203125,33.47560975609756,8.719512195121952,16.82926829268293
13_06_12_391,1.0,-11.0,10.0,2.0,2.0,-2.0,0.0,-1.0,0.92138671875,-0.28515625,0.41552734375,40.36585365853659,11.646341463414634,20.0609756097561
13_06_12_441,-1.0,16.0,8.0,2.0,0.0,0.0,0.0,-3.0,0.78125,-0.2431640625,0.3828125,20.914634146341466,-8.231707317073171,2.073170731707317
13_06_12_441,3.0,13.0,24.0,3.0,1.0,3.0,-1.0,-2.0,0.7548828125,-0.232421875,0.3779296875,21.890243902439025,-3.963414634146342,3.536585365853659
13_06_12_441,-1.0,-18.0,-43.0,-3.0,-2.0,0.0,-3.0,-3.0,0.7802734375,-0.24267578125,0.3544921875,17.195121951219512,-1.4634146341463417,4.451219512195122
13_06_12_441,2.0,12.0,25.0,3.0,0.0,2.0,-4.0,0.0,0.81640625,-0.26708984375,0.34716796875,8.414634146341465,-0.7317073170731708,6.463414634146342
13_06_12_441,-5.0,-1.0,-14.0,0.0,-2.0,0.0,-1.0,-3.0,0.8720703125,-0.2509765625,0.34326171875,-1.0365853658536586,-0.6707317073170732,9.207317073170733
13_06_12_441,3.0,-7.0,6.0,-3.0,-1.0,-1.0,-1.0,2.0,0.923828125,-0.22119140625,0.36572265625,1.524390243902439,0.426829268292683,11.707317073170733
13_06_12_441,-4.0,3.0,0.0,2.0,-1.0,3.0,-3.0,0.0,0.93994140625,-0.20703125,0.37841796875,16.34146341463415,4.085365853658537,13.902439024390246
13_06_12_441,2.0,18.0,17.0,-3.0,-5.0,-4.0,1.0,-5.0,0.9345703125,-0.24072265625,0.40283203125,33.47560975609756,8.719512195121952,16.82926829268293
13_06_12_495,-5.0,-14.0,0.0,-2.0,1.0,0.0,1.0,-3.0,0.8818359375,-0.2802734375,0.3857421875,11.219512195121952,-17.134146341463417,-16.219512195121954
13_06_12_495,-1.0,10.0,22.0,0.0,0.0,1.0,-1.0,0.0,0.84716796875,-0.29150390625,0.36865234375,12.865853658536587,-17.682926829268293,-14.51219512195122
13_06_12_495,1.0,-2.0,-9.0,0.0,-3.0,4.0,-2.0,-1.0,0.8193359375,-0.2646484375,0.376953125,14.573170731707318,-16.890243902439025,-10.975609756097562
13_06_12_495,2.0,5.0,9.0,-1.0,4.0,-2.0,-1.0,3.0,0.81103515625,-0.26708984375,0.39697265625,16.34146341463415,-16.34146341463415,-6.341463414634147
13_06_12_495,1.0,8.0,8.0,1.0,-2.0,1.0,-1.0,0.0,0.81591796875,-0.27490234375,0.3798828125,16.76829268292683,-14.329268292682928,-4.146341463414634
13_06_12_495,2.0,11.0,4.0,-3.0,0.0,-2.0,0.0,1.0,0.8134765625,-0.271484375,0.396484375,18.658536585365855,-13.475609756097562,-0.7926829268292683
13_06_12_495,1.0,-4.0,9.0,1.0,2.0,2.0,-5.0,1.0,0.78125,-0.2431640625,0.3828125,20.914634146341466,-8.231707317073171,2.073170731707317
13_06_12_495,-3.0,-3.0,41.0,4.0,1.0,-2.0,-3.0,1.0,0.7548828125,-0.232421875,0.3779296875,21.890243902439025,-3.963414634146342,3.536585365853659
13_06_12_495,0.0,13.0,-80.0,0.0,3.0,-1.0,3.0,9.0,0.7802734375,-0.24267578125,0.3544921875,17.195121951219512,-1.4634146341463417,4.451219512195122
13_06_12_495,4.0,20.0,27.0,-2.0,-3.0,1.0,-2.0,0.0,0.81640625,-0.26708984375,0.34716796875,8.414634146341465,-0.7317073170731708,6.463414634146342
13_06_12_539,-3.0,-12.0,-3.0,-1.0,-1.0,20.0,3.0,1.0,0.8876953125,-0.2568359375,0.3916015625,5.609756097560976,-17.073170731707318,-17.98780487804878
13_06_12_539,-2.0,-19.0,-19.0,-3.0,-4.0,-8.0,-1.0,-1.0,0.8818359375,-0.2802734375,0.3857421875,11.219512195121952,-17.134146341463417,-16.219512195121954
13_06_12_539,0.0,28.0,-1.0,-3.0,-1.0,-7.0,-5.0,4.0,0.84716796875,-0.29150390625,0.36865234375,12.865853658536587,-17.682926829268293,-14.51219512195122
13_06_12_539,2.0,-1.0,1.0,3.0,0.0,-6.0,-1.0,-7.0,0.8193359375,-0.2646484375,0.376953125,14.573170731707318,-16.890243902439025,-10.975609756097562
13_06_12_539,-1.0,-7.0,-4.0,-3.0,0.0,-4.0,1.0,3.0,0.81103515625,-0.26708984375,0.39697265625,16.34146341463415,-16.34146341463415,-6.341463414634147
13_06_12_539,-6.0,1.0,-25.0,-5.0,-1.0,-3.0,-6.0,-33.0,0.81591796875,-0.27490234375,0.3798828125,16.76829268292683,-14.329268292682928,-4.146341463414634
13_06_12_539,-3.0,1.0,20.0,3.0,1.0,3.0,-1.0,-12.0,0.8134765625,-0.271484375,0.396484375,18.658536585365855,-13.475609756097562,-0.7926829268292683
13_06_12_539,-5.0,-14.0,0.0,-2.0,1.0,0.0,1.0,-3.0,0.78125,-0.2431640625,0.3828125,20.914634146341466,-8.231707317073171,2.073170731707317
13_06_12_539,-1.0,10.0,22.0,0.0,0.0,1.0,-1.0,0.0,0.7548828125,-0.232421875,0.3779296875,21.890243902439025,-3.963414634146342,3.536585365853659
13_06_12_626,-2.0,18.0,-12.0,-11.0,-4.0,-4.0,-4.0,6.0,0.8701171875,-0.20654296875,0.41015625,5.365853658536586,-22.682926829268293,-20.914634146341466
13_06_12_626,-9.0,-29.0,4.0,-2.0,1.0,38.0,6.0,1.0,0.84375,-0.19091796875,0.39892578125,9.26829268292683,-19.81707317073171,-20.731707317073173
13_06_12_626,2.0,7.0,13.0,-4.0,-3.0,-1.0,-2.0,-1.0,0.87060546875,-0.22998046875,0.37939453125,5.670731707317073,-18.963414634146343,-22.439024390243905
13_06_12_626,2.0,-3.0,-15.0,-4.0,-2.0,-1.0,-1.0,-1.0,0.87939453125,-0.2529296875,0.40087890625,4.573170731707317,-19.26829268292683,-20.182926829268293
13_06_12_626,-7.0,1.0,8.0,-1.0,2.0,-2.0,-5.0,-4.0,0.8876953125,-0.2568359375,0.3916015625,5.609756097560976,-17.073170731707318,-17.98780487804878
13_06_12_626,3.0,0.0,10.0,0.0,-2.0,-4.0,-3.0,-2.0,0.8818359375,-0.2802734375,0.3857421875,11.219512195121952,-17.134146341463417,-16.219512195121954
13_06_12_626,-4.0,11.0,-15.0,-1.0,-2.0,-4.0,-3.0,-3.0,0.84716796875,-0.29150390625,0.36865234375,12.865853658536587,-17.682926829268293,-14.51219512195122
13_06_12_626,1.0,5.0,23.0,0.0,1.0,0.0,-1.0,0.0,0.8193359375,-0.2646484375,0.376953125,14.573170731707318,-16.890243902439025,-10.975609756097562
13_06_12_626,0.0,4.0,5.0,5.0,-2.0,-3.0,-2.0,0.0,0.81103515625,-0.26708984375,0.39697265625,16.34146341463415,-16.34146341463415,-6.341463414634147
13_06_12_626,5.0,-1.0,10.0,-1.0,-5.0,-5.0,0.0,0.0,0.81591796875,-0.27490234375,0.3798828125,16.76829268292683,-14.329268292682928,-4.146341463414634
13_06_12_666,1.0,1.0,3.0,1.0,2.0,0.0,-3.0,-2.0,0.93359375,-0.24462890625,0.392578125,12.926829268292684,-25.243902439024392,-27.80487804878049
13_06_12_666,-4.0,2.0,1.0,1.0,2.0,-1.0,-5.0,-1.0,0.92236328125,-0.279296875,0.3935546875,7.500000000000001,-24.939024390243905,-25.426829268292686
13_06_12_666,3.0,5.0,15.0,1.0,-2.0,0.0,0.0,1.0,0.89013671875,-0.2470703125,0.41259765625,2.8658536585365857,-24.512195121951223,-22.25609756097561
13_06_12_666,1.0,-4.0,-6.0,-4.0,-6.0,-4.0,-1.0,-5.0,0.8701171875,-0.20654296875,0.41015625,5.365853658536586,-22.682926829268293,-20.914634146341466
13_06_12_666,-5.0,-1.0,-3.0,1.0,-4.0,-3.0,1.0,0.0,0.84375,-0.19091796875,0.39892578125,9.26829268292683,-19.81707317073171,-20.731707317073173
13_06_12_666,1.0,3.0,-22.0,-5.0,1.0,-9.0,-2.0,2.0,0.87060546875,-0.22998046875,0.37939453125,5.670731707317073,-18.963414634146343,-22.439024390243905
13_06_12_666,-3.0,3.0,7.0,4.0,-2.0,7.0,0.0,1.0,0.87939453125,-0.2529296875,0.40087890625,4.573170731707317,-19.26829268292683,-20.182926829268293
13_06_12_666,1.0,5.0,-3.0,0.0,1.0,-4.0,-4.0,-5.0,0.8876953125,-0.2568359375,0.3916015625,5.609756097560976,-17.073170731707318,-17.98780487804878
13_06_12_666,1.0,-1.0,-6.0,1.0,-1.0,-6.0,6.0,-1.0,0.8818359375,-0.2802734375,0.3857421875,11.219512195121952,-17.134146341463417,-16.219512195121954
13_06_12_666,-1.0,2.0,-6.0,0.0,4.0,18.0,1.0,0.0,0.84716796875,-0.29150390625,0.36865234375,12.865853658536587,-17.682926829268293,-14.51219512195122
13_06_12_719,1.0,2.0,-4.0,-1.0,-4.0,-2.0,1.0,-6.0,0.9794921875,-0.13623046875,0.3857421875,6.2804878048780495,-26.463414634146343,-32.13414634146342
13_06_12_719,-2.0,0.0,14.0,-2.0,2.0,-3.0,3.0,-1.0,0.96923828125,-0.19189453125,0.38232421875,14.756097560975611,-26.463414634146343,-29.573170731707318
13_06_12_719,-1.0,-8.0,-1.0,1.0,-1.0,-1.0,-3.0,-2.0,0.93359375,-0.24462890625,0.392578125,12.926829268292684,-25.243902439024392,-27.80487804878049
13_06_12_719,-1.0,6.0,-5.0,0.0,-1.0,1.0,3.0,2.0,0.92236328125,-0.279296875,0.3935546875,7.500000000000001,-24.939024390243905,-25.426829268292686
13_06_12_719,-2.0,-3.0,4.0,-3.0,-2.0,3.0,2.0,-1.0,0.89013671875,-0.2470703125,0.41259765625,2.8658536585365857,-24.512195121951223,-22.25609756097561
13_06_12_719,-1.0,2.0,4.0,-1.0,-1.0,0.0,0.0,0.0,0.8701171875,-0.20654296875,0.41015625,5.365853658536586,-22.682926829268293,-20.914634146341466
13_06_12_719,1.0,1.0,3.0,1.0,2.0,0.0,-3.0,-2.0,0.84375,-0.19091796875,0.39892578125,9.26829268292683,-19.81707317073171,-20.731707317073173
13_06_12_719,-4.0,2.0,1.0,1.0,2.0,-1.0,-5.0,-1.0,0.87060546875,-0.22998046875,0.37939453125,5.670731707317073,-18.963414634146343,-22.439024390243905
13_06_12_719,3.0,5.0,15.0,1.0,-2.0,0.0,0.0,1.0,0.87939453125,-0.2529296875,0.40087890625,4.573170731707317,-19.26829268292683,-20.182926829268293
13_06_12_719,1.0,-4.0,-6.0,-4.0,-6.0,-4.0,-1.0,-5.0,0.8876953125,-0.2568359375,0.3916015625,5.609756097560976,-17.073170731707318,-17.98780487804878
13_06_12_762,0.0,0.0,6.0,2.0,-2.0,9.0,-4.0,-2.0,0.99072265625,-0.1376953125,0.3828125,-1.524390243902439,-25.670731707317074,-33.84146341463415
13_06_12_762,-1.0,6.0,-4.0,-1.0,-1.0,-1.0,-2.0,-2.0,0.9794921875,-0.13623046875,0.3857421875,6.2804878048780495,-26.463414634146343,-32.13414634146342
13_06_12_762,2.0,-1.0,3.0,5.0,1.0,-2.0,-2.0,0.0,0.96923828125,-0.19189453125,0.38232421875,14.756097560975611,-26.463414634146343,-29.573170731707318
13_06_12_762,-1.0,-6.0,-1.0,0.0,-1.0,-5.0,4.0,-1.0,0.93359375,-0.24462890625,0.392578125,12.926829268292684,-25.243902439024392,-27.80487804878049
13_06_12_762,0.0,-6.0,3.0,0.0,0.0,-5.0,0.0,-3.0,0.92236328125,-0.279296875,0.3935546875,7.500000000000001,-24.939024390243905,-25.426829268292686
13_06_12_762,2.0,-24.0,-30.0,-4.0,-3.0,-1.0,0.0,1.0,0.89013671875,-0.2470703125,0.41259765625,2.8658536585365857,-24.512195121951223,-22.25609756097561
13_06_12_762,-4.0,6.0,14.0,2.0,-4.0,4.0,-2.0,-2.0,0.8701171875,-0.20654296875,0.41015625,5.365853658536586,-22.682926829268293,-20.914634146341466
13_06_12_762,-1.0,0.0,-5.0,-5.0,-4.0,-1.0,-1.0,1.0,0.84375,-0.19091796875,0.39892578125,9.26829268292683,-19.81707317073171,-20.731707317073173
13_06_12_762,1.0,-1.0,8.0,0.0,2.0,1.0,-2.0,-1.0,0.87060546875,-0.22998046875,0.37939453125,5.670731707317073,-18.963414634146343,-22.439024390243905
13_06_12_825,-1.0,7.0,1.0,1.0,-1.0,-29.0,-4.0,-4.0,0.86767578125,-0.04833984375,0.3994140625,9.085365853658537,-11.52439024390244,-40.1219512195122
13_06_12_825,-1.0,1.0,4.0,-3.0,-3.0,3.0,0.0,1.0,0.87109375,-0.08935546875,0.39013671875,6.158536585365854,-10.609756097560977,-35.0
13_06_12_825,-2.0,-2.0,-14.0,-2.0,-2.0,9.0,-1.0,3.0,0.9052734375,-0.1357421875,0.37646484375,-0.7317073170731708,-12.560975609756099,-35.0
13_06_12_825,-2.0,-3.0,15.0,-1.0,-1.0,-14.0,-3.0,1.0,0.994140625,-0.15478515625,0.37841796875,-7.378048780487806,-21.52439024390244,-35.54878048780488
13_06_12_825,2.0,-2.0,1.0,0.0,-3.0,-1.0,1.0,3.0,0.99072265625,-0.1376953125,0.3828125,-1.524390243902439,-25.670731707317074,-33.84146341463415
13_06_12_825,-2.0,-2.0,2.0,0.0,-2.0,-6.0,-1.0,-1.0,0.9794921875,-0.13623046875,0.3857421875,6.2804878048780495,-26.463414634146343,-32.13414634146342
13_06_12_825,4.0,2.0,10.0,-5.0,-2.0,-1.0,-2.0,-3.0,0.96923828125,-0.19189453125,0.38232421875,14.756097560975611,-26.463414634146343,-29.573170731707318
13_06_12_825,4.0,2.0,24.0,0.0,3.0,16.0,-1.0,4.0,0.93359375,-0.24462890625,0.392578125,12.926829268292684,-25.243902439024392,-27.80487804878049
13_06_12_825,0.0,4.0,4.0,3.0,-3.0,-12.0,-3.0,-1.0,0.92236328125,-0.279296875,0.3935546875,7.500000000000001,-24.939024390243905,-25.426829268292686
13_06_12_825,-4.0,-4.0,0.0,-1.0,0.0,3.0,2.0,-4.0,0.89013671875,-0.2470703125,0.41259765625,2.8658536585365857,-24.512195121951223,-22.25609756097561
13_06_12_876,-1.0,0.0,0.0,0.0,-3.0,-7.0,-2.0,0.0,0.86767578125,-0.04833984375,0.3994140625,9.085365853658537,-11.52439024390244,-40.1219512195122
13_06_12_876,2.0,0.0,-26.0,-4.0,-4.0,-5.0,1.0,4.0,0.87109375,-0.08935546875,0.39013671875,6.158536585365854,-10.609756097560977,-35.0
13_06_12_876,-1.0,7.0,1.0,1.0,-1.0,-29.0,-4.0,-4.0,0.9052734375,-0.1357421875,0.37646484375,-0.7317073170731708,-12.560975609756099,-35.0
13_06_12_876,-1.0,1.0,4.0,-3.0,-3.0,3.0,0.0,1.0,0.994140625,-0.15478515625,0.37841796875,-7.378048780487806,-21.52439024390244,-35.54878048780488
13_06_12_876,-2.0,-2.0,-14.0,-2.0,-2.0,9.0,-1.0,3.0,0.99072265625,-0.1376953125,0.3828125,-1.524390243902439,-25.670731707317074,-33.84146341463415
13_06_12_876,-2.0,-3.0,15.0,-1.0,-1.0,-14.0,-3.0,1.0,0.9794921875,-0.13623046875,0.3857421875,6.2804878048780495,-26.463414634146343,-32.13414634146342
13_06_12_876,2.0,-2.0,1.0,0.0,-3.0,-1.0,1.0,3.0,0.96923828125,-0.19189453125,0.38232421875,14.756097560975611,-26.463414634146343,-29.573170731707318
13_06_12_876,-2.0,-2.0,2.0,0.0,-2.0,-6.0,-1.0,-1.0,0.93359375,-0.24462890625,0.392578125,12.926829268292684,-25.243902439024392,-27.80487804878049
13_06_12_876,4.0,2.0,10.0,-5.0,-2.0,-1.0,-2.0,-3.0,0.92236328125,-0.279296875,0.3935546875,7.500000000000001,-24.939024390243905,-25.426829268292686
13_06_12_876,4.0,2.0,24.0,0.0,3.0,16.0,-1.0,4.0,0.89013671875,-0.2470703125,0.41259765625,2.8658536585365857,-24.512195121951223,-22.25609756097561
13_06_12_921,0.0,-4.0,-4.0,-3.0,-2.0,9.0,0.0,0.0,0.72509765625,0.0400390625,0.38232421875,-27.25609756097561,-19.939024390243905,-20.182926829268293
13_06_12_921,-2.0,1.0,-1.0,1.0,1.0,-8.0,0.0,-2.0,0.72509765625,0.07080078125,0.44482421875,-21.28048780487805,-21.402439024390247,-27.378048780487806
13_06_12_921,-1.0,-1.0,-1.0,-3.0,0.0,-2.0,1.0,-3.0,0.8505859375,0.001953125,0.45703125,1.829268292682927,-18.414634146341466,-39.024390243902445
13_06_12_921,2.0,-3.0,6.0,-1.0,0.0,-1.0,-3.0,-3.0,0.86474609375,-0.02880859375,0.43896484375,4.2682926829268295,-12.80487804878049,-42.37804878048781
13_06_12_921,-5.0,-5.0,4.0,0.0,1.0,-3.0,-4.0,-5.0,0.86767578125,-0.04833984375,0.3994140625,9.085365853658537,-11.52439024390244,-40.1219512195122
13_06_12_921,3.0,7.0,-6.0,-2.0,1.0,0.0,-5.0,2.0,0.87109375,-0.08935546875,0.39013671875,6.158536585365854,-10.609756097560977,-35.0
13_06_12_921,3.0,-8.0,5.0,-2.0,-2.0,0.0,1.0,-3.0,0.9052734375,-0.1357421875,0.37646484375,-0.7317073170731708,-12.560975609756099,-35.0
13_06_12_921,3.0,1.0,6.0,-5.0,-3.0,-4.0,-2.0,-4.0,0.994140625,-0.15478515625,0.37841796875,-7.378048780487806,-21.52439024390244,-35.54878048780488
13_06_12_921,-4.0,-3.0,-1.0,-1.0,2.0,8.0,1.0,-1.0,0.99072265625,-0.1376953125,0.3828125,-1.524390243902439,-25.670731707317074,-33.84146341463415
13_06_12_921,-4.0,-7.0,7.0,1.0,0.0,-2.0,2.0,-1.0,0.9794921875,-0.13623046875,0.3857421875,6.2804878048780495,-26.463414634146343,-32.13414634146342
13_06_12_983,-2.0,-6.0,6.0,-1.0,-5.0,-6.0,2.0,-2.0,0.794921875,0.00634765625,0.458984375,-5.670731707317073,-15.182926829268293,-13.536585365853659
13_06_12_983,3.0,23.0,5.0,0.0,-4.0,-4.0,-3.0,-1.0,0.71484375,-0.0185546875,0.43359375,-23.10975609756098,-18.29268292682927,-13.109756097560977
13_06_12_983,-5.0,-5.0,5.0,0.0,0.0,-2.0,-3.0,-1.0,0.72509765625,0.0400390625,0.38232421875,-27.25609756097561,-19.939024390243905,-20.182926829268293
13_06_12_983,-11.0,1.0,-2.0,1.0,0.0,0.0,-5.0,-2.0,0.72509765625,0.07080078125,0.44482421875,-21.28048780487805,-21.402439024390247,-27.378048780487806
13_06_12_983,1.0,-6.0,-1.0,-2.0,-2.0,2.0,3.0,-2.0,0.8505859375,0.001953125,0.45703125,1.829268292682927,-18.414634146341466,-39.024390243902445
13_06_12_983,0.0,0.0,1.0,0.0,-1.0,10.0,-1.0,2.0,0.86474609375,-0.02880859375,0.43896484375,4.2682926829268295,-12.80487804878049,-42.37804878048781
13_06_12_983,-4.0,1.0,1.0,0.0,0.0,-8.0,2.0,-2.0,0.86767578125,-0.04833984375,0.3994140625,9.085365853658537,-11.52439024390244,-40.1219512195122
13_06_12_983,3.0,-4.0,-4.0,-3.0,-3.0,-3.0,2.0,-3.0,0.87109375,-0.08935546875,0.39013671875,6.158536585365854,-10.609756097560977,-35.0
13_06_12_983,0.0,-4.0,-4.0,-3.0,-2.0,9.0,0.0,0.0,0.9052734375,-0.1357421875,0.37646484375,-0.7317073170731708,-12.560975609756099,-35.0
13_06_12_983,-2.0,1.0,-1.0,1.0,1.0,-8.0,0.0,-2.0,0.994140625,-0.15478515625,0.37841796875,-7.378048780487806,-21.52439024390244,-35.54878048780488
13_06_13_025,-2.0,4.0,2.0,2.0,-3.0,-1.0,-6.0,2.0,0.74169921875,0.1015625,0.45703125,-4.207317073170732,-19.390243902439025,-5.2439024390243905
13_06_13_025,0.0,-2.0,4.0,-1.0,2.0,0.0,-2.0,-1.0,0.7548828125,0.12451171875,0.46923828125,4.2682926829268295,-16.951219512195124,-8.963414634146343
13_06_13_025,0.0,-1.0,1.0,-3.0,-2.0,-1.0,-6.0,0.0,0.76416015625,0.0791015625,0.47314453125,3.780487804878049,-14.695121951219514,-11.76829268292683
13_06_13_025,0.0,1.0,4.0,2.0,-2.0,-2.0,1.0,0.0,0.794921875,0.00634765625,0.458984375,-5.670731707317073,-15.182926829268293,-13.536585365853659
13_06_13_025,-5.0,-24.0,-15.0,-1.0,-1.0,-4.0,2.0,-3.0,0.71484375,-0.0185546875,0.43359375,-23.10975609756098,-18.29268292682927,-13.109756097560977
13_06_13_025,-1.0,5.0,5.0,0.0,-4.0,-5.0,-4.0,-3.0,0.72509765625,0.0400390625,0.38232421875,-27.25609756097561,-19.939024390243905,-20.182926829268293
13_06_13_025,-8.0,-5.0,-11.0,-5.0,-1.0,-3.0,0.0,-10.0,0.72509765625,0.07080078125,0.44482421875,-21.28048780487805,-21.402439024390247,-27.378048780487806
13_06_13_025,2.0,21.0,4.0,-2.0,5.0,0.0,-1.0,5.0,0.8505859375,0.001953125,0.45703125,1.829268292682927,-18.414634146341466,-39.024390243902445
13_06_13_025,-2.0,-7.0,-3.0,2.0,-1.0,-1.0,0.0,3.0,0.86474609375,-0.02880859375,0.43896484375,4.2682926829268295,-12.80487804878049,-42.37804878048781
13_06_13_071,-5.0,-8.0,-12.0,-9.0,-4.0,-7.0,3.0,-5.0,0.861328125,0.001953125,0.4013671875,-12.926829268292684,-23.231707317073173,-3.414634146341464
13_06_13_071,3.0,6.0,10.0,3.0,-2.0,4.0,-7.0,1.0,0.81982421875,0.044921875,0.42529296875,-13.475609756097562,-22.621951219512198,-3.536585365853659
13_06_13_071,-3.0,-10.0,-7.0,-1.0,-2.0,-12.0,-5.0,-1.0,0.78125,0.07763671875,0.4423828125,-10.853658536585368,-21.158536585365855,-3.1707317073170733
13_06_13_071,0.0,22.0,7.0,1.0,-1.0,11.0,-7.0,-5.0,0.74169921875,0.1015625,0.45703125,-4.207317073170732,-19.390243902439025,-5.2439024390243905
13_06_13_071,-1.0,-5.0,-7.0,-1.0,-1.0,-5.0,7.0,1.0,0.7548828125,0.12451171875,0.46923828125,4.2682926829268295,-16.951219512195124,-8.963414634146343
13_06_13_071,-4.0,0.0,-5.0,-3.0,-1.0,3.0,-7.0,-1.0,0.76416015625,0.0791015625,0.47314453125,3.780487804878049,-14.695121951219514,-11.76829268292683
13_06_13_071,-6.0,-18.0,-21.0,-5.0,-5.0,-7.0,-5.0,6.0,0.794921875,0.00634765625,0.458984375,-5.670731707317073,-15.182926829268293,-13.536585365853659
13_06_13_071,-1.0,25.0,3.0,-2.0,0.0,-5.0,-1.0,-10.0,0.71484375,-0.0185546875,0.43359375,-23.10975609756098,-18.29268292682927,-13.109756097560977
13_06_13_071,3.0,-23.0,2.0,-2.0,2.0,9.0,1.0,6.0,0.72509765625,0.0400390625,0.38232421875,-27.25609756097561,-19.939024390243905,-20.182926829268293
13_06_13_071,6.0,13.0,13.0,3.0,0.0,6.0,-5.0,5.0,0.72509765625,0.07080078125,0.44482421875,-21.28048780487805,-21.402439024390247,-27.378048780487806
13_06_13_131,1.0,4.0,-2.0,-2.0,-4.0,-7.0,-2.0,-1.0,0.8486328125,0.00830078125,0.345703125,-3.2926829268292686,-21.158536585365855,-4.207317073170732
13_06_13_131,3.0,-19.0,2.0,-5.0,-2.0,-4.0,-5.0,0.0,0.861328125,0.001953125,0.4013671875,-12.926829268292684,-23.231707317073173,-3.414634146341464
13_06_13_131,-5.0,11.0,1.0,4.0,-1.0,-18.0,-6.0,0.0,0.81982421875,0.044921875,0.42529296875,-13.475609756097562,-22.621951219512198,-3.536585365853659
13_06_13_131,3.0,-10.0,3.0,0.0,1.0,-2.0,-2.0,-1.0,0.78125,0.07763671875,0.4423828125,-10.853658536585368,-21.158536585365855,-3.1707317073170733
13_06_13_131,0.0,2.0,-1.0,-3.0,-2.0,-4.0,-4.0,4.0,0.74169921875,0.1015625,0.45703125,-4.207317073170732,-19.390243902439025,-5.2439024390243905
13_06_13_131,-5.0,-8.0,-12.0,-9.0,-4.0,-7.0,3.0,-5.0,0.7548828125,0.12451171875,0.46923828125,4.2682926829268295,-16.951219512195124,-8.963414634146343
13_06_13_131,3.0,6.0,10.0,3.0,-2.0,4.0,-7.0,1.0,0.76416015625,0.0791015625,0.47314453125,3.780487804878049,-14.695121951219514,-11.76829268292683
13_06_13_131,-3.0,-10.0,-7.0,-1.0,-2.0,-12.0,-5.0,-1.0,0.794921875,0.00634765625,0.458984375,-5.670731707317073,-15.182926829268293,-13.536585365853659
13_06_13_131,0.0,22.0,7.0,1.0,-1.0,11.0,-7.0,-5.0,0.71484375,-0.0185546875,0.43359375,-23.10975609756098,-18.29268292682927,-13.109756097560977
13_06_13_185,-2.0,2.0,-6.0,-2.0,-3.0,-3.0,-1.0,-1.0,0.88720703125,0.04248046875,0.291015625,-0.7926829268292683,-19.695121951219512,9.817073170731708
13_06_13_185,3.0,10.0,19.0,2.0,-3.0,-7.0,-1.0,-1.0,0.861328125,0.05859375,0.2705078125,-0.30487804878048785,-18.78048780487805,5.121951219512195
13_06_13_185,-3.0,-12.0,-25.0,-4.0,1.0,-7.0,-3.0,-1.0,0.84228515625,0.046875,0.3017578125,2.804878048780488,-18.658536585365855,-1.4634146341463417
13_06_13_185,6.0,31.0,9.0,3.0,0.0,3.0,-4.0,-3.0,0.8486328125,0.00830078125,0.345703125,-3.2926829268292686,-21.158536585365855,-4.207317073170732
13_06_13_185,2.0,-7.0,11.0,-2.0,0.0,-21.0,2.0,1.0,0.861328125,0.001953125,0.4013671875,-12.926829268292684,-23.231707317073173,-3.414634146341464
13_06_13_185,4.0,-1.0,-2.0,0.0,-2.0,-5.0,-4.0,7.0,0.81982421875,0.044921875,0.42529296875,-13.475609756097562,-22.621951219512198,-3.536585365853659
13_06_13_185,-1.0,-2.0,5.0,4.0,6.0,10.0,0.0,-4.0,0.78125,0.07763671875,0.4423828125,-10.853658536585368,-21.158536585365855,-3.1707317073170733
13_06_13_185,-2.0,-2.0,-9.0,2.0,0.0,15.0,1.0,0.0,0.74169921875,0.1015625,0.45703125,-4.207317073170732,-19.390243902439025,-5.2439024390243905
13_06_13_185,0.0,-1.0,2.0,-2.0,1.0,4.0,-1.0,-5.0,0.7548828125,0.12451171875,0.46923828125,4.2682926829268295,-16.951219512195124,-8.963414634146343
13_06_13_185,1.0,4.0,-2.0,-2.0,-4.0,-7.0,-2.0,-1.0,0.76416015625,0.0791015625,0.47314453125,3.780487804878049,-14.695121951219514,-11.76829268292683
13_06_13_234,9.0,4.0,-5.0,-4.0,-2.0,-6.0,-3.0,3.0,0.9931640625,0.0322265625,0.244140625,12.987804878048781,-17.682926829268293,11.463414634146343
13_06_13_234,-8.0,-9.0,0.0,9.0,4.0,-8.0,0.0,-8.0,1.00048828125,-0.00830078125,0.248046875,12.926829268292684,-20.365853658536587,9.207317073170733
13_06_13_234,-4.0,5.0,-18.0,-11.0,-7.0,26.0,5.0,-3.0,0.97216796875,-0.021484375,0.263671875,8.841463414634147,-21.158536585365855,10.182926829268293
13_06_13_234,3.0,4.0,0.0,1.0,-2.0,7.0,-1.0,0.0,0.88720703125,0.04248046875,0.291015625,-0.7926829268292683,-19.695121951219512,9.817073170731708
13_06_13_234,-4.0,-32.0,-11.0,-2.0,-1.0,-15.0,-3.0,1.0,0.861328125,0.05859375,0.2705078125,-0.30487804878048785,-18.78048780487805,5.121951219512195
13_06_13_234,1.0,11.0,7.0,-4.0,1.0,-7.0,3.0,4.0,0.84228515625,0.046875,0.3017578125,2.804878048780488,-18.658536585365855,-1.4634146341463417
13_06_13_234,7.0,28.0,6.0,3.0,-2.0,-2.0,-4.0,0.0,0.8486328125,0.00830078125,0.345703125,-3.2926829268292686,-21.158536585365855,-4.207317073170732
13_06_13_234,1.0,-16.0,-17.0,-4.0,-1.0,-3.0,1.0,0.0,0.861328125,0.001953125,0.4013671875,-12.926829268292684,-23.231707317073173,-3.414634146341464
13_06_13_234,-1.0,3.0,-10.0,-1.0,-1.0,1.0,5.0,-1.0,0.81982421875,0.044921875,0.42529296875,-13.475609756097562,-22.621951219512198,-3.536585365853659
13_06_13_234,-1.0,-6.0,1.0,5.0,4.0,1.0,2.0,-1.0,0.78125,0.07763671875,0.4423828125,-10.853658536585368,-21.158536585365855,-3.1707317073170733
13_06_13_287,-4.0,5.0,-18.0,-11.0,-7.0,26.0,5.0,-3.0,0.861328125,0.05859375,0.2705078125,-0.30487804878048785,-18.78048780487805,5.121951219512195
13_06_13_287,3.0,4.0,0.0,1.0,-2.0,7.0,-1.0,0.0,0.84228515625,0.046875,0.3017578125,2.804878048780488,-18.658536585365855,-1.4634146341463417
13_06_13_287,-4.0,-32.0,-11.0,-2.0,-1.0,-15.0,-3.0,1.0,0.8486328125,0.00830078125,0.345703125,-3.2926829268292686,-21.158536585365855,-4.207317073170732
13_06_13_287,1.0,11.0,7.0,-4.0,1.0,-7.0,3.0,4.0,0.861328125,0.001953125,0.4013671875,-12.926829268292684,-23.231707317073173,-3.414634146341464
13_06_13_287,7.0,28.0,6.0,3.0,-2.0,-2.0,-4.0,0.0,0.81982421875,0.044921875,0.42529296875,-13.475609756097562,-22.621951219512198,-3.536585365853659
13_06_13_287,1.0,-16.0,-17.0,-4.0,-1.0,-3.0,1.0,0.0,0.78125,0.07763671875,0.4423828125,-10.853658536585368,-21.158536585365855,-3.1707317073170733
13_06_13_335,-11.0,23.0,13.0,7.0,3.0,5.0,-9.0,-9.0,1.03271484375,-0.06103515625,0.2421875,-10.548780487804878,14.756097560975611,33.90243902439025
13_06_13_335,18.0,-20.0,7.0,5.0,-12.0,-15.0,11.0,9.0,1.1591796875,0.03466796875,0.25732421875,4.75609756097561,8.414634146341465,31.89024390243903
13_06_13_335,9.0,3.0,0.0,-5.0,12.0,35.0,-34.0,1.0,1.10498046875,-0.015625,0.2216796875,-10.30487804878049,-14.939024390243905,17.195121951219512
13_06_13_335,-13.0,0.0,16.0,4.0,-3.0,-8.0,60.0,-4.0,0.98876953125,0.0712890625,0.2314453125,-1.5853658536585367,-16.03658536585366,15.182926829268293
13_06_13_335,1.0,-14.0,-7.0,-9.0,-13.0,-12.0,-12.0,3.0,0.9931640625,0.0322265625,0.244140625,12.987804878048781,-17.682926829268293,11.463414634146343
