channel_1,channel_2,channel_3,channel_4,channel_5,channel_6,channel_7,channel_8,ACC_X,ACC_Y,ACC_Z,GYR_X,GYR_Y,GYR_Z
6.0,19.0,-17.0,-10.0,-6.0,-7.0,-5.0,0.0,0.25185143215478134,0.08867966297351945,0.050512728504948534,0.4646480901219748,0.01360806134824638,0.36755191303738355
-1.0,-14.0,-60.0,-12.0,-5.0,-4.0,-6.0,0.0,0.20563964241258903,-0.013047424193831536,0.06608675634298755,0.4841789481542588,0.07493217318566686,0.43933257600387166
-12.0,3.0,-7.0,13.0,1.0,4.0,2.0,-1.0,0.19626544633666332,0.00593171783337193,0.07149435982744601,0.4937715944282745,0.1132911300761921,0.45584993481612057
0.0,12.0,-80.0,24.0,8.0,4.0,-3.0,1.0,0.19743992754285,0.03889785779410476,0.08362991775528106,0.4981247712073669,0.1606755075766338,0.4731060835408123
-4.0,0.0,6.0,1.0,3.0,1.0,-3.0,1.0,0.20820219288534259,0.07662946801148776,0.09917632235093349,0.4966406163116052,0.20464770912196223,0.4868589326051725
-8.0,-15.0,89.0,-13.0,-10.0,-9.0,-5.0,-6.0,0.22518243933248172,0.10728276204011236,0.11402370445365106,0.48970783721179834,0.23427766894701885,0.4943366023132515
-2.0,-12.0,-128.0,-23.0,1.0,0.0,3.0,2.0,0.24414530274577495,0.12058914862070197,0.12446710077941825,0.4783061037397935,0.24295835221246834,0.49452144263526143
-7.0,33.0,127.0,16.0,4.0,-5.0,-7.0,-3.0,0.2617079810588132,0.11169676675738138,0.12841384143480838,0.46373639022025304,0.2297125994202274,0.48795971735913884
-1.0,8.0,-6.0,2.0,-2.0,-4.0,-1.0,-1.0,0.27646004060926566,0.08288641278992301,0.12612623261350364,0.44735548916622025,0.19891433213164716,0.47639567090344126
-21.0,-85.0,-55.0,-22.0,-16.0,-11.0,2.0,-6.0,0.2890703356910478,0.04267536265759353,0.1201211880398721,0.43034121238301465,0.15881585561353231,0.46235043854513813
0.0,8.0,47.0,1.0,-2.0,-4.0,-4.0,-2.0,0.25185143215478134,0.08867966297351945,0.050512728504948534,0.4646480901219748,0.01360806134824638,0.36755191303738355
5.0,-15.0,-72.0,-3.0,11.0,17.0,7.0,0.0,0.20563964241258903,-0.013047424193831536,0.06608675634298755,0.4841789481542588,0.07493217318566686,0.43933257600387166
2.0,-5.0,-8.0,9.0,2.0,6.0,3.0,-1.0,0.19626544633666332,0.00593171783337193,0.07149435982744601,0.4937715944282745,0.1132911300761921,0.45584993481612057
-1.0,-16.0,-88.0,-7.0,-4.0,-11.0,-7.0,-1.0,0.19743992754285,0.03889785779410476,0.08362991775528106,0.4981247712073669,0.1606755075766338,0.4731060835408123
-3.0,8.0,29.0,-2.0,-7.0,-21.0,1.0,12.0,0.20820219288534259,0.07662946801148776,0.09917632235093349,0.4966406163116052,0.20464770912196223,0.4868589326051725
-6.0,-5.0,-15.0,4.0,4.0,16.0,7.0,-3.0,0.22518243933248172,0.10728276204011236,0.11402370445365106,0.48970783721179834,0.23427766894701885,0.4943366023132515
0.0,-10.0,-6.0,8.0,2.0,0.0,7.0,-3.0,0.24414530274577495,0.12058914862070197,0.12446710077941825,0.4783061037397935,0.24295835221246834,0.49452144263526143
-38.0,-70.0,-24.0,-4.0,-1.0,-13.0,-1.0,-4.0,0.2617079810588132,0.11169676675738138,0.12841384143480838,0.46373639022025304,0.2297125994202274,0.48795971735913884
7.0,45.0,17.0,-3.0,-7.0,-3.0,-12.0,-2.0,0.27646004060926566,0.08288641278992301,0.12612623261350364,0.44735548916622025,0.19891433213164716,0.47639567090344126
17.0,-33.0,-73.0,-2.0,1.0,2.0,1.0,2.0,0.2890703356910478,0.04267536265759353,0.1201211880398721,0.43034121238301465,0.15881585561353231,0.46235043854513813
-22.0,-27.0,-42.0,-15.0,-1.0,-1.0,2.0,-3.0,0.25185143215478134,0.08867966297351945,0.050512728504948534,0.4646480901219748,0.01360806134824638,0.36755191303738355
6.0,49.0,28.0,-8.0,1.0,-1.0,-3.0,2.0,0.20563964241258903,-0.013047424193831536,0.06608675634298755,0.4841789481542588,0.07493217318566686,0.43933257600387166
5.0,25.0,3.0,13.0,6.0,8.0,4.0,5.0,0.19626544633666332,0.00593171783337193,0.07149435982744601,0.4937715944282745,0.1132911300761921,0.45584993481612057
-7.0,-63.0,-19.0,-4.0,-5.0,-8.0,0.0,-2.0,0.19743992754285,0.03889785779410476,0.08362991775528106,0.4981247712073669,0.1606755075766338,0.4731060835408123
1.0,4.0,-36.0,-7.0,0.0,-2.0,4.0,4.0,0.20820219288534259,0.07662946801148776,0.09917632235093349,0.4966406163116052,0.20464770912196223,0.4868589326051725
3.0,44.0,117.0,15.0,3.0,1.0,1.0,4.0,0.22518243933248172,0.10728276204011236,0.11402370445365106,0.48970783721179834,0.23427766894701885,0.4943366023132515
-30.0,-75.0,127.0,-4.0,-6.0,-4.0,-5.0,-8.0,0.24414530274577495,0.12058914862070197,0.12446710077941825,0.4783061037397935,0.24295835221246834,0.49452144263526143
6.0,24.0,-128.0,-4.0,2.0,0.0,4.0,3.0,0.2617079810588132,0.11169676675738138,0.12841384143480838,0.46373639022025304,0.2297125994202274,0.48795971735913884
0.0,8.0,47.0,1.0,-2.0,-4.0,-4.0,-2.0,0.27646004060926566,0.08288641278992301,0.12612623261350364,0.44735548916622025,0.19891433213164716,0.47639567090344126
5.0,-15.0,-72.0,-3.0,11.0,17.0,7.0,0.0,0.2890703356910478,0.04267536265759353,0.1201211880398721,0.43034121238301465,0.15881585561353231,0.46235043854513813
7.0,72.0,82.0,15.0,8.0,2.0,1.0,3.0,0.25185143215478134,0.08867966297351945,0.050512728504948534,0.4646480901219748,0.01360806134824638,0.36755191303738355
-4.0,20.0,-46.0,4.0,-10.0,-7.0,-3.0,1.0,0.20563964241258903,-0.013047424193831536,0.06608675634298755,0.4841789481542588,0.07493217318566686,0.43933257600387166
19.0,9.0,117.0,-21.0,-10.0,-4.0,-1.0,-3.0,0.19626544633666332,0.00593171783337193,0.07149435982744601,0.4937715944282745,0.1132911300761921,0.45584993481612057
-7.0,-13.0,76.0,14.0,2.0,5.0,-2.0,0.0,0.19743992754285,0.03889785779410476,0.08362991775528106,0.4981247712073669,0.1606755075766338,0.4731060835408123
4.0,-8.0,-47.0,-1.0,3.0,-5.0,0.0,2.0,0.20820219288534259,0.07662946801148776,0.09917632235093349,0.4966406163116052,0.20464770912196223,0.4868589326051725
2.0,6.0,56.0,6.0,4.0,-1.0,-4.0,-1.0,0.22518243933248172,0.10728276204011236,0.11402370445365106,0.48970783721179834,0.23427766894701885,0.4943366023132515
9.0,-11.0,32.0,-2.0,-7.0,-5.0,-2.0,1.0,0.24414530274577495,0.12058914862070197,0.12446710077941825,0.4783061037397935,0.24295835221246834,0.49452144263526143
5.0,-12.0,-11.0,2.0,-2.0,4.0,0.0,3.0,0.2617079810588132,0.11169676675738138,0.12841384143480838,0.46373639022025304,0.2297125994202274,0.48795971735913884
-7.0,31.0,20.0,1.0,-3.0,-3.0,1.0,-3.0,0.27646004060926566,0.08288641278992301,0.12612623261350364,0.44735548916622025,0.19891433213164716,0.47639567090344126
9.0,-74.0,-112.0,-8.0,-6.0,-6.0,-3.0,-5.0,0.2890703356910478,0.04267536265759353,0.1201211880398721,0.43034121238301465,0.15881585561353231,0.46235043854513813
0.0,-5.0,43.0,12.0,1.0,1.0,0.0,0.0,0.25185143215478134,0.08867966297351945,0.050512728504948534,0.4646480901219748,0.01360806134824638,0.36755191303738355
-8.0,-29.0,-29.0,-25.0,-4.0,4.0,1.0,-4.0,0.20563964241258903,-0.013047424193831536,0.06608675634298755,0.4841789481542588,0.07493217318566686,0.43933257600387166
8.0,27.0,-26.0,2.0,-1.0,-7.0,0.0,3.0,0.19626544633666332,0.00593171783337193,0.07149435982744601,0.4937715944282745,0.1132911300761921,0.45584993481612057
-1.0,1.0,25.0,5.0,10.0,4.0,2.0,2.0,0.19743992754285,0.03889785779410476,0.08362991775528106,0.4981247712073669,0.1606755075766338,0.4731060835408123
3.0,-12.0,89.0,6.0,-5.0,-7.0,-4.0,2.0,0.20820219288534259,0.07662946801148776,0.09917632235093349,0.4966406163116052,0.20464770912196223,0.4868589326051725
-6.0,-28.0,-128.0,-15.0,-6.0,1.0,0.0,-2.0,0.22518243933248172,0.10728276204011236,0.11402370445365106,0.48970783721179834,0.23427766894701885,0.4943366023132515
4.0,41.0,89.0,6.0,-1.0,-8.0,1.0,-2.0,0.24414530274577495,0.12058914862070197,0.12446710077941825,0.4783061037397935,0.24295835221246834,0.49452144263526143
10.0,22.0,16.0,16.0,0.0,1.0,-1.0,3.0,0.2617079810588132,0.11169676675738138,0.12841384143480838,0.46373639022025304,0.2297125994202274,0.48795971735913884
-2.0,-58.0,-10.0,10.0,5.0,5.0,-1.0,0.0,0.27646004060926566,0.08288641278992301,0.12612623261350364,0.44735548916622025,0.19891433213164716,0.47639567090344126
1.0,78.0,-69.0,-1.0,9.0,-1.0,0.0,-5.0,0.2890703356910478,0.04267536265759353,0.1201211880398721,0.43034121238301465,0.15881585561353231,0.46235043854513813
10.0,22.0,-27.0,13.0,7.0,-2.0,-1.0,2.0,0.25185143215478134,0.08867966297351945,0.050512728504948534,0.4646480901219748,0.01360806134824638,0.36755191303738355
5.0,8.0,15.0,4.0,-1.0,4.0,1.0,1.0,0.20563964241258903,-0.013047424193831536,0.06608675634298755,0.4841789481542588,0.07493217318566686,0.43933257600387166
8.0,15.0,-2.0,-12.0,0.0,0.0,0.0,6.0,0.19626544633666332,0.00593171783337193,0.07149435982744601,0.4937715944282745,0.1132911300761921,0.45584993481612057
-14.0,43.0,23.0,3.0,-3.0,0.0,-2.0,-5.0,0.19743992754285,0.03889785779410476,0.08362991775528106,0.4981247712073669,0.1606755075766338,0.4731060835408123
-15.0,-64.0,93.0,-4.0,-6.0,-8.0,-2.0,-6.0,0.20820219288534259,0.07662946801148776,0.09917632235093349,0.4966406163116052,0.20464770912196223,0.4868589326051725
7.0,33.0,-70.0,-15.0,1.0,-5.0,-4.0,-1.0,0.22518243933248172,0.10728276204011236,0.11402370445365106,0.48970783721179834,0.23427766894701885,0.4943366023132515
5.0,-25.0,41.0,7.0,7.0,10.0,9.0,1.0,0.24414530274577495,0.12058914862070197,0.12446710077941825,0.4783061037397935,0.24295835221246834,0.49452144263526143
8.0,2.0,-23.0,13.0,5.0,10.0,2.0,4.0,0.2617079810588132,0.11169676675738138,0.12841384143480838,0.46373639022025304,0.2297125994202274,0.48795971735913884
4.0,-4.0,-56.0,-3.0,-3.0,-6.0,-3.0,0.0,0.27646004060926566,0.08288641278992301,0.12612623261350364,0.44735548916622025,0.19891433213164716,0.47639567090344126
-9.0,-61.0,-3.0,-7.0,-4.0,-5.0,-5.0,-1.0,0.2890703356910478,0.04267536265759353,0.1201211880398721,0.43034121238301465,0.15881585561353231,0.46235043854513813
-4.0,-22.0,-101.0,-2.0,-1.0,0.0,1.0,-3.0,0.25185143215478134,0.08867966297351945,0.050512728504948534,0.4646480901219748,0.01360806134824638,0.36755191303738355
-4.0,12.0,124.0,-6.0,-1.0,1.0,-1.0,-4.0,0.20563964241258903,-0.013047424193831536,0.06608675634298755,0.4841789481542588,0.07493217318566686,0.43933257600387166
5.0,-9.0,123.0,18.0,3.0,4.0,4.0,2.0,0.19626544633666332,0.00593171783337193,0.07149435982744601,0.4937715944282745,0.1132911300761921,0.45584993481612057
-6.0,-46.0,-78.0,-7.0,-2.0,-2.0,-2.0,-2.0,0.19743992754285,0.03889785779410476,0.08362991775528106,0.4981247712073669,0.1606755075766338,0.4731060835408123
-3.0,-8.0,22.0,1.0,3.0,-1.0,-1.0,-3.0,0.20820219288534259,0.07662946801148776,0.09917632235093349,0.4966406163116052,0.20464770912196223,0.4868589326051725
2.0,7.0,45.0,-4.0,-2.0,-4.0,0.0,4.0,0.22518243933248172,0.10728276204011236,0.11402370445365106,0.48970783721179834,0.23427766894701885,0.4943366023132515
1.0,-13.0,-58.0,12.0,2.0,3.0,2.0,2.0,0.24414530274577495,0.12058914862070197,0.12446710077941825,0.4783061037397935,0.24295835221246834,0.49452144263526143
12.0,5.0,25.0,0.0,-2.0,0.0,1.0,4.0,0.2617079810588132,0.11169676675738138,0.12841384143480838,0.46373639022025304,0.2297125994202274,0.48795971735913884
-11.0,-1.0,-13.0,10.0,0.0,-3.0,-1.0,-3.0,0.27646004060926566,0.08288641278992301,0.12612623261350364,0.44735548916622025,0.19891433213164716,0.47639567090344126
-4.0,-8.0,127.0,-9.0,-5.0,-4.0,-4.0,-9.0,0.2890703356910478,0.04267536265759353,0.1201211880398721,0.43034121238301465,0.15881585561353231,0.46235043854513813
-6.0,-42.0,-106.0,-16.0,1.0,-7.0,-3.0,-3.0,0.25185143215478134,0.08867966297351945,0.050512728504948534,0.4646480901219748,0.01360806134824638,0.36755191303738355
7.0,-11.0,34.0,10.0,2.0,6.0,2.0,4.0,0.20563964241258903,-0.013047424193831536,0.06608675634298755,0.4841789481542588,0.07493217318566686,0.43933257600387166
2.0,-1.0,-15.0,1.0,2.0,-5.0,4.0,0.0,0.19626544633666332,0.00593171783337193,0.07149435982744601,0.4937715944282745,0.1132911300761921,0.45584993481612057
-5.0,-13.0,-39.0,-5.0,-3.0,0.0,0.0,-1.0,0.19743992754285,0.03889785779410476,0.08362991775528106,0.4981247712073669,0.1606755075766338,0.4731060835408123
-14.0,-46.0,-41.0,-18.0,-10.0,-4.0,1.0,-7.0,0.20820219288534259,0.07662946801148776,0.09917632235093349,0.4966406163116052,0.20464770912196223,0.4868589326051725
4.0,20.0,-57.0,-18.0,-1.0,4.0,3.0,2.0,0.22518243933248172,0.10728276204011236,0.11402370445365106,0.48970783721179834,0.23427766894701885,0.4943366023132515
-9.0,-15.0,-4.0,15.0,-3.0,-5.0,1.0,-8.0,0.24414530274577495,0.12058914862070197,0.12446710077941825,0.4783061037397935,0.24295835221246834,0.49452144263526143
-12.0,-66.0,-21.0,-27.0,-11.0,-4.0,-2.0,-7.0,0.2617079810588132,0.11169676675738138,0.12841384143480838,0.46373639022025304,0.2297125994202274,0.48795971735913884
3.0,16.0,-14.0,0.0,-3.0,-6.0,-4.0,-1.0,0.27646004060926566,0.08288641278992301,0.12612623261350364,0.44735548916622025,0.19891433213164716,0.47639567090344126
0.0,-30.0,-12.0,-5.0,0.0,-8.0,-6.0,-4.0,0.2890703356910478,0.04267536265759353,0.1201211880398721,0.43034121238301465,0.15881585561353231,0.46235043854513813
5.0,19.0,13.0,18.0,-3.0,-3.0,1.0,-1.0,0.25185143215478134,0.08867966297351945,0.050512728504948534,0.4646480901219748,0.01360806134824638,0.36755191303738355
-1.0,-5.0,-84.0,-13.0,-3.0,-1.0,-1.0,-5.0,0.20563964241258903,-0.013047424193831536,0.06608675634298755,0.4841789481542588,0.07493217318566686,0.43933257600387166
-20.0,-59.0,-128.0,-29.0,-8.0,-4.0,-7.0,-5.0,0.19626544633666332,0.00593171783337193,0.07149435982744601,0.4937715944282745,0.1132911300761921,0.45584993481612057
6.0,21.0,0.0,34.0,4.0,-2.0,0.0,-3.0,0.19743992754285,0.03889785779410476,0.08362991775528106,0.4981247712073669,0.1606755075766338,0.4731060835408123
7.0,-19.0,1.0,-17.0,-2.0,-7.0,-2.0,0.0,0.20820219288534259,0.07662946801148776,0.09917632235093349,0.4966406163116052,0.20464770912196223,0.4868589326051725
-8.0,-30.0,115.0,17.0,-7.0,-6.0,-7.0,-4.0,0.22518243933248172,0.10728276204011236,0.11402370445365106,0.48970783721179834,0.23427766894701885,0.4943366023132515
-7.0,20.0,-30.0,-23.0,11.0,18.0,6.0,6.0,0.24414530274577495,0.12058914862070197,0.12446710077941825,0.4783061037397935,0.24295835221246834,0.49452144263526143
0.0,-5.0,43.0,-24.0,-9.0,-13.0,-3.0,2.0,0.2617079810588132,0.11169676675738138,0.12841384143480838,0.46373639022025304,0.2297125994202274,0.48795971735913884
3.0,12.0,-11.0,19.0,-6.0,-6.0,-5.0,-4.0,0.27646004060926566,0.08288641278992301,0.12612623261350364,0.44735548916622025,0.19891433213164716,0.47639567090344126
-9.0,15.0,103.0,-11.0,-7.0,-1.0,-4.0,-7.0,0.2890703356910478,0.04267536265759353,0.1201211880398721,0.43034121238301465,0.15881585561353231,0.46235043854513813
-25.0,-21.0,-98.0,-9.0,-9.0,-2.0,2.0,-2.0,0.25185143215478134,0.08867966297351945,0.050512728504948534,0.4646480901219748,0.01360806134824638,0.36755191303738355
3.0,-13.0,-96.0,-23.0,-2.0,2.0,0.0,2.0,0.20563964241258903,-0.013047424193831536,0.06608675634298755,0.4841789481542588,0.07493217318566686,0.43933257600387166
14.0,2.0,17.0,28.0,2.0,5.0,1.0,0.0,0.19626544633666332,0.00593171783337193,0.07149435982744601,0.4937715944282745,0.1132911300761921,0.45584993481612057
3.0,-8.0,17.0,11.0,-6.0,-5.0,-3.0,1.0,0.19743992754285,0.03889785779410476,0.08362991775528106,0.4981247712073669,0.1606755075766338,0.4731060835408123
-4.0,-7.0,-128.0,-11.0,5.0,3.0,3.0,1.0,0.20820219288534259,0.07662946801148776,0.09917632235093349,0.4966406163116052,0.20464770912196223,0.4868589326051725
-31.0,1.0,48.0,-2.0,4.0,1.0,3.0,-3.0,0.22518243933248172,0.10728276204011236,0.11402370445365106,0.48970783721179834,0.23427766894701885,0.4943366023132515
11.0,-17.0,-9.0,9.0,-6.0,1.0,-1.0,3.0,0.24414530274577495,0.12058914862070197,0.12446710077941825,0.4783061037397935,0.24295835221246834,0.49452144263526143
12.0,65.0,-10.0,9.0,-4.0,-2.0,0.0,0.0,0.2617079810588132,0.11169676675738138,0.12841384143480838,0.46373639022025304,0.2297125994202274,0.48795971735913884
6.0,28.0,-49.0,-22.0,2.0,0.0,-2.0,3.0,0.27646004060926566,0.08288641278992301,0.12612623261350364,0.44735548916622025,0.19891433213164716,0.47639567090344126
-23.0,-10.0,-92.0,-67.0,-4.0,22.0,8.0,-9.0,0.2890703356910478,0.04267536265759353,0.1201211880398721,0.43034121238301465,0.15881585561353231,0.46235043854513813
16.0,-2.0,-56.0,-26.0,-4.0,-1.0,3.0,4.0,0.20563964241258903,-0.013047424193831536,0.06608675634298755,0.4841789481542588,0.07493217318566686,0.43933257600387166
-6.0,44.0,-19.0,2.0,8.0,11.0,-1.0,2.0,0.19626544633666332,0.00593171783337193,0.07149435982744601,0.4937715944282745,0.1132911300761921,0.45584993481612057
4.0,-35.0,73.0,-39.0,-13.0,-6.0,-4.0,-10.0,0.19743992754285,0.03889785779410476,0.08362991775528106,0.4981247712073669,0.1606755075766338,0.4731060835408123
-5.0,25.0,-46.0,43.0,8.0,3.0,0.0,-5.0,0.20820219288534259,0.07662946801148776,0.09917632235093349,0.4966406163116052,0.20464770912196223,0.4868589326051725
-23.0,-24.0,127.0,-22.0,-7.0,-8.0,-11.0,-9.0,0.22518243933248172,0.10728276204011236,0.11402370445365106,0.48970783721179834,0.23427766894701885,0.4943366023132515
18.0,-9.0,9.0,-1.0,-8.0,-2.0,-1.0,2.0,0.24414530274577495,0.12058914862070197,0.12446710077941825,0.4783061037397935,0.24295835221246834,0.49452144263526143
10.0,-25.0,43.0,47.0,17.0,4.0,0.0,4.0,0.2617079810588132,0.11169676675738138,0.12841384143480838,0.46373639022025304,0.2297125994202274,0.48795971735913884
-25.0,-21.0,-98.0,-9.0,-9.0,-2.0,2.0,-2.0,0.27646004060926566,0.08288641278992301,0.12612623261350364,0.44735548916622025,0.19891433213164716,0.47639567090344126
3.0,-13.0,-96.0,-23.0,-2.0,2.0,0.0,2.0,0.2890703356910478,0.04267536265759353,0.1201211880398721,0.43034121238301465,0.15881585561353231,0.46235043854513813
-6.0,-17.0,-72.0,9.0,2.0,-7.0,0.0,0.0,0.25185143215478134,0.08867966297351945,0.050512728504948534,0.4646480901219748,0.01360806134824638,0.36755191303738355
7.0,40.0,44.0,-21.0,0.0,5.0,0.0,2.0,0.20563964241258903,-0.013047424193831536,0.06608675634298755,0.4841789481542588,0.07493217318566686,0.43933257600387166
4.0,-3.0,-62.0,5.0,10.0,4.0,1.0,5.0,0.19626544633666332,0.00593171783337193,0.07149435982744601,0.4937715944282745,0.1132911300761921,0.45584993481612057
-5.0,24.0,57.0,-6.0,-2.0,-5.0,-2.0,-9.0,0.19743992754285,0.03889785779410476,0.08362991775528106,0.4981247712073669,0.1606755075766338,0.4731060835408123
-6.0,-39.0,4.0,1.0,-7.0,2.0,1.0,-5.0,0.20820219288534259,0.07662946801148776,0.09917632235093349,0.4966406163116052,0.20464770912196223,0.4868589326051725
-3.0,25.0,70.0,10.0,20.0,1.0,5.0,4.0,0.22518243933248172,0.10728276204011236,0.11402370445365106,0.48970783721179834,0.23427766894701885,0.4943366023132515
0.0,-4.0,-25.0,-11.0,-9.0,0.0,-3.0,-2.0,0.24414530274577495,0.12058914862070197,0.12446710077941825,0.4783061037397935,0.24295835221246834,0.49452144263526143
-4.0,3.0,15.0,0.0,0.0,5.0,0.0,0.0,0.2617079810588132,0.11169676675738138,0.12841384143480838,0.46373639022025304,0.2297125994202274,0.48795971735913884
-1.0,-4.0,64.0,-22.0,-6.0,-8.0,-4.0,-5.0,0.27646004060926566,0.08288641278992301,0.12612623261350364,0.44735548916622025,0.19891433213164716,0.47639567090344126
7.0,13.0,79.0,20.0,1.0,1.0,1.0,3.0,0.2890703356910478,0.04267536265759353,0.1201211880398721,0.43034121238301465,0.15881585561353231,0.46235043854513813
0.0,-6.0,-13.0,0.0,-4.0,-1.0,0.0,0.0,0.25185143215478134,0.08867966297351945,0.050512728504948534,0.4646480901219748,0.01360806134824638,0.36755191303738355
-4.0,-25.0,-128.0,-20.0,-7.0,-7.0,-5.0,-4.0,0.20563964241258903,-0.013047424193831536,0.06608675634298755,0.4841789481542588,0.07493217318566686,0.43933257600387166
-1.0,2.0,-22.0,-1.0,1.0,2.0,1.0,0.0,0.19626544633666332,0.00593171783337193,0.07149435982744601,0.4937715944282745,0.1132911300761921,0.45584993481612057
-11.0,-40.0,-4.0,-2.0,-5.0,-4.0,-2.0,-5.0,0.19743992754285,0.03889785779410476,0.08362991775528106,0.4981247712073669,0.1606755075766338,0.4731060835408123
-2.0,-11.0,-3.0,-1.0,-7.0,2.0,1.0,1.0,0.20820219288534259,0.07662946801148776,0.09917632235093349,0.4966406163116052,0.20464770912196223,0.4868589326051725
6.0,29.0,-13.0,6.0,3.0,-9.0,-5.0,-2.0,0.22518243933248172,0.10728276204011236,0.11402370445365106,0.48970783721179834,0.23427766894701885,0.4943366023132515
1.0,39.0,5.0,5.0,-3.0,-9.0,-2.0,0.0,0.24414530274577495,0.12058914862070197,0.12446710077941825,0.4783061037397935,0.24295835221246834,0.49452144263526143
16.0,2.0,-2.0,0.0,2.0,6.0,-1.0,3.0,0.2617079810588132,0.11169676675738138,0.12841384143480838,0.46373639022025304,0.2297125994202274,0.48795971735913884
-13.0,9.0,12.0,12.0,4.0,-2.0,0.0,-2.0,0.27646004060926566,0.08288641278992301,0.12612623261350364,0.44735548916622025,0.19891433213164716,0.47639567090344126
-23.0,-3.0,-5.0,-3.0,-1.0,0.0,-1.0,-4.0,0.2890703356910478,0.04267536265759353,0.1201211880398721,0.43034121238301465,0.15881585561353231,0.46235043854513813
-6.0,4.0,4.0,-3.0,-2.0,2.0,-1.0,-1.0,0.20563964241258903,-0.013047424193831536,0.06608675634298755,0.4841789481542588,0.07493217318566686,0.43933257600387166
0.0,-4.0,-41.0,-4.0,-4.0,-3.0,-1.0,0.0,0.19626544633666332,0.00593171783337193,0.07149435982744601,0.4937715944282745,0.1132911300761921,0.45584993481612057
0.0,5.0,46.0,7.0,6.0,-2.0,-1.0,0.0,0.19743992754285,0.03889785779410476,0.08362991775528106,0.4981247712073669,0.1606755075766338,0.4731060835408123
0.0,1.0,-6.0,-3.0,-2.0,-3.0,-1.0,-2.0,0.20820219288534259,0.07662946801148776,0.09917632235093349,0.4966406163116052,0.20464770912196223,0.4868589326051725
-18.0,-1.0,-33.0,5.0,3.0,0.0,-1.0,-4.0,0.22518243933248172,0.10728276204011236,0.11402370445365106,0.48970783721179834,0.23427766894701885,0.4943366023132515
9.0,0.0,57.0,9.0,7.0,3.0,-3.0,3.0,0.24414530274577495,0.12058914862070197,0.12446710077941825,0.4783061037397935,0.24295835221246834,0.49452144263526143
5.0,12.0,29.0,-1.0,-4.0,0.0,-1.0,-1.0,0.2617079810588132,0.11169676675738138,0.12841384143480838,0.46373639022025304,0.2297125994202274,0.48795971735913884
0.0,-6.0,-13.0,0.0,-4.0,-1.0,0.0,0.0,0.27646004060926566,0.08288641278992301,0.12612623261350364,0.44735548916622025,0.19891433213164716,0.47639567090344126
-4.0,-25.0,-128.0,-20.0,-7.0,-7.0,-5.0,-4.0,0.2890703356910478,0.04267536265759353,0.1201211880398721,0.43034121238301465,0.15881585561353231,0.46235043854513813
-4.0,2.0,4.0,9.0,5.0,0.0,-3.0,-2.0,0.25185143215478134,0.08867966297351945,0.050512728504948534,0.4646480901219748,0.01360806134824638,0.36755191303738355
0.0,1.0,-5.0,-5.0,-5.0,0.0,-2.0,-1.0,0.20563964241258903,-0.013047424193831536,0.06608675634298755,0.4841789481542588,0.07493217318566686,0.43933257600387166
-5.0,-29.0,29.0,-5.0,0.0,0.0,1.0,-3.0,0.19626544633666332,0.00593171783337193,0.07149435982744601,0.4937715944282745,0.1132911300761921,0.45584993481612057
0.0,8.0,1.0,-1.0,-3.0,-1.0,-3.0,-1.0,0.19743992754285,0.03889785779410476,0.08362991775528106,0.4981247712073669,0.1606755075766338,0.4731060835408123
2.0,10.0,5.0,2.0,0.0,0.0,-1.0,-3.0,0.20820219288534259,0.07662946801148776,0.09917632235093349,0.4966406163116052,0.20464770912196223,0.4868589326051725
1.0,-2.0,1.0,-1.0,-1.0,1.0,-1.0,1.0,0.22518243933248172,0.10728276204011236,0.11402370445365106,0.48970783721179834,0.23427766894701885,0.4943366023132515
-3.0,-6.0,-39.0,-5.0,-3.0,-3.0,0.0,-5.0,0.24414530274577495,0.12058914862070197,0.12446710077941825,0.4783061037397935,0.24295835221246834,0.49452144263526143
-1.0,4.0,29.0,5.0,1.0,4.0,2.0,0.0,0.2617079810588132,0.11169676675738138,0.12841384143480838,0.46373639022025304,0.2297125994202274,0.48795971735913884
-11.0,0.0,-1.0,2.0,2.0,-4.0,-1.0,-1.0,0.27646004060926566,0.08288641278992301,0.12612623261350364,0.44735548916622025,0.19891433213164716,0.47639567090344126
6.0,4.0,7.0,-5.0,0.0,-3.0,-4.0,1.0,0.2890703356910478,0.04267536265759353,0.1201211880398721,0.43034121238301465,0.15881585561353231,0.46235043854513813
-3.0,-6.0,-14.0,-6.0,-2.0,-4.0,-6.0,-1.0,0.25185143215478134,0.08867966297351945,0.050512728504948534,0.4646480901219748,0.01360806134824638,0.36755191303738355
-1.0,-1.0,0.0,5.0,0.0,-1.0,-5.0,-2.0,0.20563964241258903,-0.013047424193831536,0.06608675634298755,0.4841789481542588,0.07493217318566686,0.43933257600387166
-1.0,0.0,-3.0,0.0,-4.0,-2.0,0.0,-4.0,0.19626544633666332,0.00593171783337193,0.07149435982744601,0.4937715944282745,0.1132911300761921,0.45584993481612057
-3.0,2.0,10.0,-1.0,-1.0,-1.0,-2.0,-2.0,0.19743992754285,0.03889785779410476,0.08362991775528106,0.4981247712073669,0.1606755075766338,0.4731060835408123
3.0,-4.0,5.0,6.0,3.0,2.0,0.0,0.0,0.20820219288534259,0.07662946801148776,0.09917632235093349,0.4966406163116052,0.20464770912196223,0.4868589326051725
-1.0,1.0,6.0,-1.0,-3.0,1.0,0.0,2.0,0.22518243933248172,0.10728276204011236,0.11402370445365106,0.48970783721179834,0.23427766894701885,0.4943366023132515
-2.0,-2.0,-1.0,-3.0,2.0,1.0,-2.0,2.0,0.24414530274577495,0.12058914862070197,0.12446710077941825,0.4783061037397935,0.24295835221246834,0.49452144263526143
-1.0,1.0,-13.0,5.0,-1.0,-2.0,-1.0,1.0,0.2617079810588132,0.11169676675738138,0.12841384143480838,0.46373639022025304,0.2297125994202274,0.48795971735913884
-3.0,5.0,67.0,2.0,-1.0,-2.0,0.0,-1.0,0.27646004060926566,0.08288641278992301,0.12612623261350364,0.44735548916622025,0.19891433213164716,0.47639567090344126
1.0,-5.0,-23.0,-1.0,-1.0,-3.0,0.0,0.0,0.2890703356910478,0.04267536265759353,0.1201211880398721,0.43034121238301465,0.15881585561353231,0.46235043854513813
-3.0,-3.0,-12.0,-7.0,-2.0,-4.0,-1.0,-1.0,0.19743992754285,0.03889785779410476,0.08362991775528106,0.4981247712073669,0.1606755075766338,0.4731060835408123
0.0,-2.0,4.0,0.0,-2.0,-1.0,-2.0,0.0,0.20820219288534259,0.07662946801148776,0.09917632235093349,0.4966406163116052,0.20464770912196223,0.4868589326051725
-1.0,0.0,0.0,3.0,1.0,-3.0,-1.0,0.0,0.22518243933248172,0.10728276204011236,0.11402370445365106,0.48970783721179834,0.23427766894701885,0.4943366023132515
-2.0,-4.0,1.0,0.0,2.0,-3.0,0.0,-2.0,0.24414530274577495,0.12058914862070197,0.12446710077941825,0.4783061037397935,0.24295835221246834,0.49452144263526143
1.0,-5.0,-15.0,-1.0,-3.0,-1.0,-3.0,-2.0,0.2617079810588132,0.11169676675738138,0.12841384143480838,0.46373639022025304,0.2297125994202274,0.48795971735913884
-5.0,-4.0,5.0,1.0,-2.0,-1.0,-3.0,-2.0,0.27646004060926566,0.08288641278992301,0.12612623261350364,0.44735548916622025,0.19891433213164716,0.47639567090344126
-1.0,0.0,0.0,1.0,0.0,-1.0,-1.0,0.0,0.2890703356910478,0.04267536265759353,0.1201211880398721,0.43034121238301465,0.15881585561353231,0.46235043854513813
-4.0,0.0,-3.0,-1.0,-2.0,-1.0,-3.0,-1.0,0.20563964241258903,-0.013047424193831536,0.06608675634298755,0.4841789481542588,0.07493217318566686,0.43933257600387166
-3.0,-2.0,0.0,0.0,1.0,1.0,-1.0,-1.0,0.19626544633666332,0.00593171783337193,0.07149435982744601,0.4937715944282745,0.1132911300761921,0.45584993481612057
-1.0,0.0,-1.0,-4.0,-1.0,-1.0,2.0,0.0,0.19743992754285,0.03889785779410476,0.08362991775528106,0.4981247712073669,0.1606755075766338,0.4731060835408123
-2.0,-2.0,1.0,0.0,-3.0,0.0,-1.0,-3.0,0.20820219288534259,0.07662946801148776,0.09917632235093349,0.4966406163116052,0.20464770912196223,0.4868589326051725
1.0,-1.0,-4.0,-3.0,-1.0,0.0,0.0,1.0,0.22518243933248172,0.10728276204011236,0.11402370445365106,0.48970783721179834,0.23427766894701885,0.4943366023132515
-2.0,-7.0,-2.0,1.0,-1.0,0.0,2.0,0.0,0.24414530274577495,0.12058914862070197,0.12446710077941825,0.4783061037397935,0.24295835221246834,0.49452144263526143
-1.0,-3.0,-1.0,-2.0,-1.0,0.0,-3.0,-3.0,0.2617079810588132,0.11169676675738138,0.12841384143480838,0.46373639022025304,0.2297125994202274,0.48795971735913884
-2.0,16.0,0.0,-2.0,0.0,-1.0,-2.0,-2.0,0.27646004060926566,0.08288641278992301,0.12612623261350364,0.44735548916622025,0.19891433213164716,0.47639567090344126
2.0,-8.0,0.0,2.0,0.0,2.0,-1.0,-3.0,0.2890703356910478,0.04267536265759353,0.1201211880398721,0.43034121238301465,0.15881585561353231,0.46235043854513813
0.0,-1.0,-1.0,0.0,-1.0,-3.0,0.0,0.0,0.2617079810588132,0.11169676675738138,0.12841384143480838,0.46373639022025304,0.2297125994202274,0.48795971735913884
-2.0,0.0,0.0,-4.0,-1.0,-2.0,-1.0,-3.0,0.27646004060926566,0.08288641278992301,0.12612623261350364,0.44735548916622025,0.19891433213164716,0.47639567090344126
-3.0,0.0,-1.0,0.0,-4.0,0.0,-1.0,-3.0,0.2890703356910478,0.04267536265759353,0.1201211880398721,0.43034121238301465,0.15881585561353231,0.46235043854513813
-1.0,-3.0,0.0,0.0,-2.0,-2.0,1.0,-1.0,0.25185143215478134,0.08867966297351945,0.050512728504948534,0.4646480901219748,0.01360806134824638,0.36755191303738355
-3.0,-3.0,-3.0,-1.0,3.0,-1.0,-4.0,-1.0,0.20563964241258903,-0.013047424193831536,0.06608675634298755,0.4841789481542588,0.07493217318566686,0.43933257600387166
-2.0,-2.0,1.0,-1.0,-2.0,-2.0,-2.0,0.0,0.19626544633666332,0.00593171783337193,0.07149435982744601,0.4937715944282745,0.1132911300761921,0.45584993481612057
1.0,0.0,0.0,-2.0,-2.0,0.0,-2.0,0.0,0.19743992754285,0.03889785779410476,0.08362991775528106,0.4981247712073669,0.1606755075766338,0.4731060835408123
-2.0,-1.0,-4.0,0.0,0.0,-1.0,1.0,-1.0,0.20820219288534259,0.07662946801148776,0.09917632235093349,0.4966406163116052,0.20464770912196223,0.4868589326051725
-3.0,-3.0,0.0,1.0,1.0,1.0,-1.0,-1.0,0.22518243933248172,0.10728276204011236,0.11402370445365106,0.48970783721179834,0.23427766894701885,0.4943366023132515
0.0,0.0,1.0,1.0,0.0,2.0,-3.0,1.0,0.24414530274577495,0.12058914862070197,0.12446710077941825,0.4783061037397935,0.24295835221246834,0.49452144263526143
-2.0,0.0,1.0,-2.0,-1.0,-1.0,-3.0,0.0,0.2617079810588132,0.11169676675738138,0.12841384143480838,0.46373639022025304,0.2297125994202274,0.48795971735913884
-3.0,1.0,0.0,-1.0,0.0,-2.0,2.0,-2.0,0.27646004060926566,0.08288641278992301,0.12612623261350364,0.44735548916622025,0.19891433213164716,0.47639567090344126
1.0,0.0,-1.0,0.0,-2.0,-4.0,-2.0,-1.0,0.2890703356910478,0.04267536265759353,0.1201211880398721,0.43034121238301465,0.15881585561353231,0.46235043854513813
0.0,0.0,-2.0,-1.0,0.0,2.0,-2.0,-1.0,0.25185143215478134,0.08867966297351945,0.050512728504948534,0.4646480901219748,0.01360806134824638,0.36755191303738355
-2.0,-1.0,-3.0,1.0,3.0,3.0,-1.0,-1.0,0.20563964241258903,-0.013047424193831536,0.06608675634298755,0.4841789481542588,0.07493217318566686,0.43933257600387166
0.0,-2.0,0.0,1.0,0.0,2.0,0.0,0.0,0.19626544633666332,0.00593171783337193,0.07149435982744601,0.4937715944282745,0.1132911300761921,0.45584993481612057
0.0,0.0,-1.0,-3.0,0.0,1.0,-3.0,0.0,0.19743992754285,0.03889785779410476,0.08362991775528106,0.4981247712073669,0.1606755075766338,0.4731060835408123
0.0,0.0,-3.0,0.0,-2.0,-1.0,1.0,-4.0,0.20820219288534259,0.07662946801148776,0.09917632235093349,0.4966406163116052,0.20464770912196223,0.4868589326051725
1.0,-2.0,2.0,-1.0,-1.0,-2.0,-1.0,-2.0,0.22518243933248172,0.10728276204011236,0.11402370445365106,0.48970783721179834,0.23427766894701885,0.4943366023132515
1.0,2.0,-1.0,0.0,0.0,1.0,1.0,2.0,0.24414530274577495,0.12058914862070197,0.12446710077941825,0.4783061037397935,0.24295835221246834,0.49452144263526143
-3.0,0.0,-1.0,-1.0,-1.0,-2.0,-1.0,-2.0,0.2617079810588132,0.11169676675738138,0.12841384143480838,0.46373639022025304,0.2297125994202274,0.48795971735913884
0.0,-1.0,1.0,-3.0,-1.0,-4.0,-3.0,-1.0,0.27646004060926566,0.08288641278992301,0.12612623261350364,0.44735548916622025,0.19891433213164716,0.47639567090344126
-2.0,-3.0,-1.0,-1.0,2.0,0.0,-1.0,-1.0,0.2890703356910478,0.04267536265759353,0.1201211880398721,0.43034121238301465,0.15881585561353231,0.46235043854513813
1.0,-1.0,0.0,1.0,-1.0,-1.0,-2.0,0.0,0.25185143215478134,0.08867966297351945,0.050512728504948534,0.4646480901219748,0.01360806134824638,0.36755191303738355
-1.0,-1.0,-3.0,0.0,-1.0,1.0,-1.0,0.0,0.20563964241258903,-0.013047424193831536,0.06608675634298755,0.4841789481542588,0.07493217318566686,0.43933257600387166
1.0,0.0,-1.0,0.0,-3.0,0.0,0.0,-1.0,0.19626544633666332,0.00593171783337193,0.07149435982744601,0.4937715944282745,0.1132911300761921,0.45584993481612057
1.0,-6.0,-2.0,-3.0,-2.0,-1.0,4.0,0.0,0.19743992754285,0.03889785779410476,0.08362991775528106,0.4981247712073669,0.1606755075766338,0.4731060835408123
2.0,5.0,-3.0,-2.0,-2.0,-2.0,-2.0,-3.0,0.20820219288534259,0.07662946801148776,0.09917632235093349,0.4966406163116052,0.20464770912196223,0.4868589326051725
-2.0,-7.0,-2.0,-4.0,-4.0,-1.0,-1.0,0.0,0.22518243933248172,0.10728276204011236,0.11402370445365106,0.48970783721179834,0.23427766894701885,0.4943366023132515
0.0,0.0,-2.0,-1.0,0.0,2.0,-2.0,-1.0,0.24414530274577495,0.12058914862070197,0.12446710077941825,0.4783061037397935,0.24295835221246834,0.49452144263526143
-2.0,-1.0,-3.0,1.0,3.0,3.0,-1.0,-1.0,0.2617079810588132,0.11169676675738138,0.12841384143480838,0.46373639022025304,0.2297125994202274,0.48795971735913884
0.0,-2.0,0.0,1.0,0.0,2.0,0.0,0.0,0.27646004060926566,0.08288641278992301,0.12612623261350364,0.44735548916622025,0.19891433213164716,0.47639567090344126
0.0,0.0,-1.0,-3.0,0.0,1.0,-3.0,0.0,0.2890703356910478,0.04267536265759353,0.1201211880398721,0.43034121238301465,0.15881585561353231,0.46235043854513813
-3.0,-5.0,1.0,3.0,3.0,1.0,1.0,-3.0,0.25185143215478134,0.08867966297351945,0.050512728504948534,0.4646480901219748,0.01360806134824638,0.36755191303738355
2.0,1.0,1.0,0.0,-3.0,-5.0,-2.0,-3.0,0.20563964241258903,-0.013047424193831536,0.06608675634298755,0.4841789481542588,0.07493217318566686,0.43933257600387166
0.0,-3.0,2.0,-1.0,-2.0,-1.0,-2.0,0.0,0.19626544633666332,0.00593171783337193,0.07149435982744601,0.4937715944282745,0.1132911300761921,0.45584993481612057
-2.0,-2.0,-3.0,0.0,0.0,-2.0,-1.0,-1.0,0.19743992754285,0.03889785779410476,0.08362991775528106,0.4981247712073669,0.1606755075766338,0.4731060835408123
-2.0,-1.0,1.0,-2.0,-2.0,-3.0,-3.0,-1.0,0.20820219288534259,0.07662946801148776,0.09917632235093349,0.4966406163116052,0.20464770912196223,0.4868589326051725
0.0,-6.0,-3.0,-2.0,-1.0,-2.0,1.0,1.0,0.22518243933248172,0.10728276204011236,0.11402370445365106,0.48970783721179834,0.23427766894701885,0.4943366023132515
-2.0,-11.0,-5.0,-1.0,-1.0,1.0,-5.0,-4.0,0.24414530274577495,0.12058914862070197,0.12446710077941825,0.4783061037397935,0.24295835221246834,0.49452144263526143
2.0,3.0,-3.0,0.0,1.0,0.0,1.0,0.0,0.2617079810588132,0.11169676675738138,0.12841384143480838,0.46373639022025304,0.2297125994202274,0.48795971735913884
-2.0,-2.0,1.0,-1.0,0.0,-4.0,0.0,0.0,0.27646004060926566,0.08288641278992301,0.12612623261350364,0.44735548916622025,0.19891433213164716,0.47639567090344126
-1.0,-4.0,2.0,2.0,4.0,0.0,-5.0,-1.0,0.2890703356910478,0.04267536265759353,0.1201211880398721,0.43034121238301465,0.15881585561353231,0.46235043854513813
-4.0,-46.0,-3.0,1.0,-2.0,-1.0,-2.0,-3.0,0.25185143215478134,0.08867966297351945,0.050512728504948534,0.4646480901219748,0.01360806134824638,0.36755191303738355
4.0,16.0,0.0,-1.0,-1.0,-1.0,0.0,-3.0,0.20563964241258903,-0.013047424193831536,0.06608675634298755,0.4841789481542588,0.07493217318566686,0.43933257600387166
4.0,2.0,4.0,1.0,-1.0,0.0,0.0,2.0,0.19626544633666332,0.00593171783337193,0.07149435982744601,0.4937715944282745,0.1132911300761921,0.45584993481612057
2.0,-5.0,-3.0,-4.0,-1.0,-2.0,0.0,0.0,0.19743992754285,0.03889785779410476,0.08362991775528106,0.4981247712073669,0.1606755075766338,0.4731060835408123
3.0,13.0,-4.0,-2.0,-3.0,0.0,-2.0,-1.0,0.20820219288534259,0.07662946801148776,0.09917632235093349,0.4966406163116052,0.20464770912196223,0.4868589326051725
2.0,-4.0,-2.0,-1.0,-4.0,-1.0,0.0,0.0,0.22518243933248172,0.10728276204011236,0.11402370445365106,0.48970783721179834,0.23427766894701885,0.4943366023132515
-1.0,-3.0,-2.0,0.0,2.0,0.0,-1.0,-1.0,0.24414530274577495,0.12058914862070197,0.12446710077941825,0.4783061037397935,0.24295835221246834,0.49452144263526143
-1.0,1.0,-2.0,-2.0,1.0,0.0,2.0,-1.0,0.2617079810588132,0.11169676675738138,0.12841384143480838,0.46373639022025304,0.2297125994202274,0.48795971735913884
-1.0,-1.0,-2.0,-1.0,-1.0,1.0,-3.0,1.0,0.27646004060926566,0.08288641278992301,0.12612623261350364,0.44735548916622025,0.19891433213164716,0.47639567090344126
1.0,2.0,0.0,-3.0,1.0,-3.0,0.0,-2.0,0.2890703356910478,0.04267536265759353,0.1201211880398721,0.43034121238301465,0.15881585561353231,0.46235043854513813
-2.0,-2.0,-2.0,-2.0,-3.0,-1.0,-2.0,-3.0,0.25185143215478134,0.08867966297351945,0.050512728504948534,0.4646480901219748,0.01360806134824638,0.36755191303738355
1.0,-3.0,-1.0,-3.0,-1.0,1.0,0.0,0.0,0.20563964241258903,-0.013047424193831536,0.06608675634298755,0.4841789481542588,0.07493217318566686,0.43933257600387166
1.0,-2.0,2.0,1.0,-1.0,-1.0,-6.0,2.0,0.19626544633666332,0.00593171783337193,0.07149435982744601,0.4937715944282745,0.1132911300761921,0.45584993481612057
0.0,-4.0,1.0,-1.0,1.0,0.0,0.0,0.0,0.19743992754285,0.03889785779410476,0.08362991775528106,0.4981247712073669,0.1606755075766338,0.4731060835408123
2.0,21.0,-2.0,2.0,-1.0,2.0,0.0,-2.0,0.20820219288534259,0.07662946801148776,0.09917632235093349,0.4966406163116052,0.20464770912196223,0.4868589326051725
-1.0,-3.0,0.0,0.0,1.0,-1.0,2.0,1.0,0.22518243933248172,0.10728276204011236,0.11402370445365106,0.48970783721179834,0.23427766894701885,0.4943366023132515
-1.0,-6.0,1.0,-2.0,0.0,-2.0,-1.0,0.0,0.24414530274577495,0.12058914862070197,0.12446710077941825,0.4783061037397935,0.24295835221246834,0.49452144263526143
-5.0,5.0,-4.0,-1.0,-2.0,-5.0,-4.0,-2.0,0.2617079810588132,0.11169676675738138,0.12841384143480838,0.46373639022025304,0.2297125994202274,0.48795971735913884
-4.0,-46.0,-3.0,1.0,-2.0,-1.0,-2.0,-3.0,0.27646004060926566,0.08288641278992301,0.12612623261350364,0.44735548916622025,0.19891433213164716,0.47639567090344126
4.0,16.0,0.0,-1.0,-1.0,-1.0,0.0,-3.0,0.2890703356910478,0.04267536265759353,0.1201211880398721,0.43034121238301465,0.15881585561353231,0.46235043854513813
-1.0,-6.0,-3.0,-2.0,-3.0,-1.0,-2.0,-3.0,0.19743992754285,0.03889785779410476,0.08362991775528106,0.4981247712073669,0.1606755075766338,0.4731060835408123
-2.0,-3.0,-1.0,-1.0,3.0,-1.0,-1.0,-3.0,0.20820219288534259,0.07662946801148776,0.09917632235093349,0.4966406163116052,0.20464770912196223,0.4868589326051725
1.0,4.0,1.0,-2.0,-1.0,-1.0,-5.0,-1.0,0.22518243933248172,0.10728276204011236,0.11402370445365106,0.48970783721179834,0.23427766894701885,0.4943366023132515
0.0,-2.0,-1.0,-1.0,-1.0,-2.0,-1.0,-2.0,0.24414530274577495,0.12058914862070197,0.12446710077941825,0.4783061037397935,0.24295835221246834,0.49452144263526143
-2.0,-3.0,-1.0,-2.0,-1.0,3.0,-1.0,0.0,0.2617079810588132,0.11169676675738138,0.12841384143480838,0.46373639022025304,0.2297125994202274,0.48795971735913884
-2.0,-3.0,-1.0,-3.0,-3.0,-1.0,1.0,-4.0,0.27646004060926566,0.08288641278992301,0.12612623261350364,0.44735548916622025,0.19891433213164716,0.47639567090344126
-3.0,0.0,1.0,0.0,-3.0,1.0,2.0,-3.0,0.2890703356910478,0.04267536265759353,0.1201211880398721,0.43034121238301465,0.15881585561353231,0.46235043854513813
-2.0,6.0,2.0,0.0,-6.0,1.0,1.0,-1.0,0.25185143215478134,0.08867966297351945,0.050512728504948534,0.4646480901219748,0.01360806134824638,0.36755191303738355
-1.0,-4.0,-2.0,-2.0,-2.0,-3.0,2.0,0.0,0.20563964241258903,-0.013047424193831536,0.06608675634298755,0.4841789481542588,0.07493217318566686,0.43933257600387166
2.0,-1.0,-3.0,-3.0,-3.0,0.0,-1.0,-1.0,0.19626544633666332,0.00593171783337193,0.07149435982744601,0.4937715944282745,0.1132911300761921,0.45584993481612057
-3.0,-4.0,-1.0,0.0,1.0,-3.0,-1.0,2.0,0.19743992754285,0.03889785779410476,0.08362991775528106,0.4981247712073669,0.1606755075766338,0.4731060835408123
0.0,-4.0,-1.0,1.0,-2.0,1.0,1.0,-1.0,0.20820219288534259,0.07662946801148776,0.09917632235093349,0.4966406163116052,0.20464770912196223,0.4868589326051725
1.0,1.0,-4.0,1.0,-4.0,-1.0,-3.0,-1.0,0.22518243933248172,0.10728276204011236,0.11402370445365106,0.48970783721179834,0.23427766894701885,0.4943366023132515
0.0,-3.0,-2.0,1.0,0.0,0.0,0.0,0.0,0.24414530274577495,0.12058914862070197,0.12446710077941825,0.4783061037397935,0.24295835221246834,0.49452144263526143
1.0,-5.0,0.0,0.0,-2.0,-3.0,0.0,-1.0,0.2617079810588132,0.11169676675738138,0.12841384143480838,0.46373639022025304,0.2297125994202274,0.48795971735913884
-1.0,-44.0,-5.0,1.0,-3.0,-2.0,0.0,-4.0,0.27646004060926566,0.08288641278992301,0.12612623261350364,0.44735548916622025,0.19891433213164716,0.47639567090344126
-1.0,30.0,2.0,1.0,0.0,2.0,0.0,1.0,0.2890703356910478,0.04267536265759353,0.1201211880398721,0.43034121238301465,0.15881585561353231,0.46235043854513813
-6.0,-4.0,-2.0,-1.0,-1.0,-1.0,2.0,-2.0,0.20563964241258903,-0.013047424193831536,0.06608675634298755,0.4841789481542588,0.07493217318566686,0.43933257600387166
-5.0,-23.0,-3.0,-3.0,-1.0,-1.0,1.0,-2.0,0.19626544633666332,0.00593171783337193,0.07149435982744601,0.4937715944282745,0.1132911300761921,0.45584993481612057
0.0,-1.0,0.0,0.0,1.0,1.0,-2.0,2.0,0.19743992754285,0.03889785779410476,0.08362991775528106,0.4981247712073669,0.1606755075766338,0.4731060835408123
-2.0,5.0,5.0,0.0,-1.0,-2.0,1.0,1.0,0.20820219288534259,0.07662946801148776,0.09917632235093349,0.4966406163116052,0.20464770912196223,0.4868589326051725
-1.0,-2.0,-1.0,-2.0,-2.0,1.0,-1.0,-2.0,0.22518243933248172,0.10728276204011236,0.11402370445365106,0.48970783721179834,0.23427766894701885,0.4943366023132515
-1.0,-5.0,-2.0,-1.0,4.0,-4.0,-1.0,-3.0,0.24414530274577495,0.12058914862070197,0.12446710077941825,0.4783061037397935,0.24295835221246834,0.49452144263526143
1.0,15.0,-1.0,1.0,2.0,-1.0,-1.0,0.0,0.2617079810588132,0.11169676675738138,0.12841384143480838,0.46373639022025304,0.2297125994202274,0.48795971735913884
-13.0,-10.0,-6.0,-4.0,-4.0,-2.0,-4.0,-5.0,0.27646004060926566,0.08288641278992301,0.12612623261350364,0.44735548916622025,0.19891433213164716,0.47639567090344126
0.0,-7.0,3.0,3.0,0.0,1.0,0.0,0.0,0.2890703356910478,0.04267536265759353,0.1201211880398721,0.43034121238301465,0.15881585561353231,0.46235043854513813
1.0,8.0,2.0,-3.0,0.0,0.0,-2.0,-1.0,0.20563964241258903,-0.013047424193831536,0.06608675634298755,0.4841789481542588,0.07493217318566686,0.43933257600387166
-5.0,1.0,-6.0,-2.0,0.0,-2.0,-1.0,-4.0,0.19626544633666332,0.00593171783337193,0.07149435982744601,0.4937715944282745,0.1132911300761921,0.45584993481612057
1.0,-17.0,-1.0,2.0,1.0,0.0,0.0,-3.0,0.19743992754285,0.03889785779410476,0.08362991775528106,0.4981247712073669,0.1606755075766338,0.4731060835408123
2.0,-3.0,-11.0,1.0,-2.0,-2.0,-3.0,0.0,0.20820219288534259,0.07662946801148776,0.09917632235093349,0.4966406163116052,0.20464770912196223,0.4868589326051725
2.0,1.0,-3.0,2.0,1.0,-1.0,0.0,0.0,0.22518243933248172,0.10728276204011236,0.11402370445365106,0.48970783721179834,0.23427766894701885,0.4943366023132515
0.0,-6.0,1.0,-2.0,-1.0,-3.0,-1.0,-1.0,0.24414530274577495,0.12058914862070197,0.12446710077941825,0.4783061037397935,0.24295835221246834,0.49452144263526143
3.0,39.0,0.0,-3.0,-1.0,-2.0,-3.0,-2.0,0.2617079810588132,0.11169676675738138,0.12841384143480838,0.46373639022025304,0.2297125994202274,0.48795971735913884
-6.0,-43.0,-2.0,-3.0,1.0,0.0,-1.0,-4.0,0.27646004060926566,0.08288641278992301,0.12612623261350364,0.44735548916622025,0.19891433213164716,0.47639567090344126
-1.0,-15.0,-2.0,0.0,-5.0,0.0,-3.0,-2.0,0.2890703356910478,0.04267536265759353,0.1201211880398721,0.43034121238301465,0.15881585561353231,0.46235043854513813
-6.0,-9.0,-6.0,-3.0,3.0,0.0,-2.0,-5.0,0.25185143215478134,0.08867966297351945,0.050512728504948534,0.4646480901219748,0.01360806134824638,0.36755191303738355
3.0,0.0,-2.0,2.0,1.0,2.0,-1.0,0.0,0.20563964241258903,-0.013047424193831536,0.06608675634298755,0.4841789481542588,0.07493217318566686,0.43933257600387166
5.0,-16.0,1.0,-2.0,2.0,3.0,2.0,1.0,0.19626544633666332,0.00593171783337193,0.07149435982744601,0.4937715944282745,0.1132911300761921,0.45584993481612057
1.0,19.0,4.0,-1.0,-1.0,0.0,2.0,2.0,0.19743992754285,0.03889785779410476,0.08362991775528106,0.4981247712073669,0.1606755075766338,0.4731060835408123
-5.0,-1.0,-4.0,-2.0,-1.0,-3.0,-4.0,-5.0,0.20820219288534259,0.07662946801148776,0.09917632235093349,0.4966406163116052,0.20464770912196223,0.4868589326051725
2.0,16.0,-11.0,-1.0,0.0,2.0,2.0,0.0,0.22518243933248172,0.10728276204011236,0.11402370445365106,0.48970783721179834,0.23427766894701885,0.4943366023132515
3.0,-6.0,2.0,-1.0,-1.0,0.0,-5.0,-2.0,0.24414530274577495,0.12058914862070197,0.12446710077941825,0.4783061037397935,0.24295835221246834,0.49452144263526143
-2.0,0.0,3.0,1.0,-2.0,-3.0,-2.0,-2.0,0.2617079810588132,0.11169676675738138,0.12841384143480838,0.46373639022025304,0.2297125994202274,0.48795971735913884
1.0,-54.0,3.0,0.0,-2.0,1.0,0.0,0.0,0.27646004060926566,0.08288641278992301,0.12612623261350364,0.44735548916622025,0.19891433213164716,0.47639567090344126
-8.0,45.0,-12.0,-5.0,-4.0,-2.0,0.0,-5.0,0.2890703356910478,0.04267536265759353,0.1201211880398721,0.43034121238301465,0.15881585561353231,0.46235043854513813
-1.0,-3.0,-6.0,0.0,-2.0,0.0,-4.0,0.0,0.19743992754285,0.03889785779410476,0.08362991775528106,0.4981247712073669,0.1606755075766338,0.4731060835408123
1.0,-7.0,3.0,-2.0,-2.0,-1.0,0.0,1.0,0.20820219288534259,0.07662946801148776,0.09917632235093349,0.4966406163116052,0.20464770912196223,0.4868589326051725
-4.0,2.0,-3.0,-4.0,0.0,-2.0,-1.0,-2.0,0.22518243933248172,0.10728276204011236,0.11402370445365106,0.48970783721179834,0.23427766894701885,0.4943366023132515
2.0,-6.0,-3.0,-1.0,2.0,-2.0,-3.0,-1.0,0.24414530274577495,0.12058914862070197,0.12446710077941825,0.4783061037397935,0.24295835221246834,0.49452144263526143
-5.0,11.0,-4.0,0.0,-1.0,-1.0,-2.0,0.0,0.2617079810588132,0.11169676675738138,0.12841384143480838,0.46373639022025304,0.2297125994202274,0.48795971735913884
-3.0,-21.0,-11.0,0.0,0.0,0.0,0.0,1.0,0.27646004060926566,0.08288641278992301,0.12612623261350364,0.44735548916622025,0.19891433213164716,0.47639567090344126
-2.0,-1.0,-3.0,0.0,0.0,-1.0,0.0,1.0,0.2890703356910478,0.04267536265759353,0.1201211880398721,0.43034121238301465,0.15881585561353231,0.46235043854513813
2.0,-1.0,-7.0,-1.0,-3.0,0.0,0.0,1.0,0.19626544633666332,0.00593171783337193,0.07149435982744601,0.4937715944282745,0.1132911300761921,0.45584993481612057
2.0,4.0,-3.0,-1.0,0.0,3.0,-1.0,-1.0,0.19743992754285,0.03889785779410476,0.08362991775528106,0.4981247712073669,0.1606755075766338,0.4731060835408123
-13.0,-8.0,-4.0,-4.0,0.0,3.0,-1.0,-3.0,0.20820219288534259,0.07662946801148776,0.09917632235093349,0.4966406163116052,0.20464770912196223,0.4868589326051725
0.0,-12.0,-2.0,0.0,-1.0,0.0,0.0,-1.0,0.22518243933248172,0.10728276204011236,0.11402370445365106,0.48970783721179834,0.23427766894701885,0.4943366023132515
1.0,-1.0,2.0,-3.0,-2.0,-2.0,0.0,3.0,0.24414530274577495,0.12058914862070197,0.12446710077941825,0.4783061037397935,0.24295835221246834,0.49452144263526143
-2.0,-1.0,-1.0,-3.0,0.0,3.0,-2.0,-4.0,0.2617079810588132,0.11169676675738138,0.12841384143480838,0.46373639022025304,0.2297125994202274,0.48795971735913884
-1.0,-2.0,0.0,1.0,1.0,0.0,-2.0,1.0,0.27646004060926566,0.08288641278992301,0.12612623261350364,0.44735548916622025,0.19891433213164716,0.47639567090344126
0.0,7.0,-2.0,-2.0,-2.0,-2.0,-1.0,-1.0,0.2890703356910478,0.04267536265759353,0.1201211880398721,0.43034121238301465,0.15881585561353231,0.46235043854513813
-4.0,-21.0,0.0,0.0,-2.0,-1.0,-2.0,-2.0,0.19743992754285,0.03889785779410476,0.08362991775528106,0.4981247712073669,0.1606755075766338,0.4731060835408123
-7.0,-7.0,0.0,-2.0,-1.0,1.0,-3.0,-4.0,0.20820219288534259,0.07662946801148776,0.09917632235093349,0.4966406163116052,0.20464770912196223,0.4868589326051725
-3.0,-16.0,-5.0,-3.0,-4.0,-1.0,-2.0,-5.0,0.22518243933248172,0.10728276204011236,0.11402370445365106,0.48970783721179834,0.23427766894701885,0.4943366023132515
-1.0,-27.0,15.0,0.0,-1.0,0.0,-1.0,0.0,0.24414530274577495,0.12058914862070197,0.12446710077941825,0.4783061037397935,0.24295835221246834,0.49452144263526143
-4.0,35.0,-6.0,-3.0,-3.0,-3.0,2.0,0.0,0.2617079810588132,0.11169676675738138,0.12841384143480838,0.46373639022025304,0.2297125994202274,0.48795971735913884
5.0,-29.0,-3.0,-1.0,0.0,0.0,-2.0,-2.0,0.27646004060926566,0.08288641278992301,0.12612623261350364,0.44735548916622025,0.19891433213164716,0.47639567090344126
0.0,1.0,-2.0,1.0,0.0,1.0,-2.0,1.0,0.2890703356910478,0.04267536265759353,0.1201211880398721,0.43034121238301465,0.15881585561353231,0.46235043854513813
-3.0,-8.0,-5.0,-3.0,-3.0,-7.0,-4.0,-16.0,0.20563964241258903,-0.013047424193831536,0.06608675634298755,0.4841789481542588,0.07493217318566686,0.43933257600387166
2.0,-66.0,-13.0,0.0,1.0,3.0,4.0,4.0,0.19626544633666332,0.00593171783337193,0.07149435982744601,0.4937715944282745,0.1132911300761921,0.45584993481612057
1.0,55.0,-2.0,-1.0,-3.0,-4.0,-3.0,0.0,0.19743992754285,0.03889785779410476,0.08362991775528106,0.4981247712073669,0.1606755075766338,0.4731060835408123
0.0,-17.0,-2.0,-1.0,1.0,0.0,1.0,-1.0,0.20820219288534259,0.07662946801148776,0.09917632235093349,0.4966406163116052,0.20464770912196223,0.4868589326051725
1.0,2.0,4.0,-1.0,-2.0,-4.0,-1.0,-3.0,0.22518243933248172,0.10728276204011236,0.11402370445365106,0.48970783721179834,0.23427766894701885,0.4943366023132515
0.0,7.0,0.0,1.0,0.0,-2.0,0.0,-3.0,0.24414530274577495,0.12058914862070197,0.12446710077941825,0.4783061037397935,0.24295835221246834,0.49452144263526143
-1.0,-6.0,0.0,-1.0,0.0,-2.0,-1.0,-2.0,0.2617079810588132,0.11169676675738138,0.12841384143480838,0.46373639022025304,0.2297125994202274,0.48795971735913884
-1.0,-7.0,0.0,0.0,-1.0,0.0,-2.0,0.0,0.27646004060926566,0.08288641278992301,0.12612623261350364,0.44735548916622025,0.19891433213164716,0.47639567090344126
-4.0,-21.0,0.0,0.0,-2.0,-1.0,-2.0,-2.0,0.2890703356910478,0.04267536265759353,0.1201211880398721,0.43034121238301465,0.15881585561353231,0.46235043854513813
1.0,3.0,2.0,0.0,-4.0,1.0,0.0,-1.0,0.20563964241258903,-0.013047424193831536,0.06608675634298755,0.4841789481542588,0.07493217318566686,0.43933257600387166
0.0,-1.0,-2.0,4.0,0.0,0.0,0.0,2.0,0.19626544633666332,0.00593171783337193,0.07149435982744601,0.4937715944282745,0.1132911300761921,0.45584993481612057
-2.0,-1.0,-2.0,0.0,0.0,-1.0,-3.0,-3.0,0.19743992754285,0.03889785779410476,0.08362991775528106,0.4981247712073669,0.1606755075766338,0.4731060835408123
-8.0,-12.0,-13.0,-2.0,-1.0,0.0,-3.0,-1.0,0.20820219288534259,0.07662946801148776,0.09917632235093349,0.4966406163116052,0.20464770912196223,0.4868589326051725
4.0,-28.0,2.0,0.0,1.0,-1.0,-1.0,0.0,0.22518243933248172,0.10728276204011236,0.11402370445365106,0.48970783721179834,0.23427766894701885,0.4943366023132515
1.0,56.0,8.0,2.0,0.0,1.0,-1.0,-2.0,0.24414530274577495,0.12058914862070197,0.12446710077941825,0.4783061037397935,0.24295835221246834,0.49452144263526143
-7.0,-33.0,-4.0,2.0,-2.0,1.0,0.0,-1.0,0.2617079810588132,0.11169676675738138,0.12841384143480838,0.46373639022025304,0.2297125994202274,0.48795971735913884
8.0,5.0,2.0,-1.0,2.0,-1.0,1.0,4.0,0.27646004060926566,0.08288641278992301,0.12612623261350364,0.44735548916622025,0.19891433213164716,0.47639567090344126
-1.0,-4.0,-2.0,-2.0,0.0,0.0,-1.0,-1.0,0.2890703356910478,0.04267536265759353,0.1201211880398721,0.43034121238301465,0.15881585561353231,0.46235043854513813
-4.0,-8.0,-2.0,-3.0,1.0,0.0,-5.0,-3.0,0.20820219288534259,0.07662946801148776,0.09917632235093349,0.4966406163116052,0.20464770912196223,0.4868589326051725
-1.0,-7.0,-5.0,-1.0,0.0,0.0,-1.0,0.0,0.22518243933248172,0.10728276204011236,0.11402370445365106,0.48970783721179834,0.23427766894701885,0.4943366023132515
-3.0,1.0,-2.0,3.0,0.0,-2.0,1.0,1.0,0.24414530274577495,0.12058914862070197,0.12446710077941825,0.4783061037397935,0.24295835221246834,0.49452144263526143
0.0,1.0,-2.0,1.0,-3.0,-3.0,-2.0,-1.0,0.2617079810588132,0.11169676675738138,0.12841384143480838,0.46373639022025304,0.2297125994202274,0.48795971735913884
-2.0,-1.0,-3.0,-3.0,-2.0,1.0,-1.0,0.0,0.27646004060926566,0.08288641278992301,0.12612623261350364,0.44735548916622025,0.19891433213164716,0.47639567090344126
1.0,3.0,2.0,0.0,-4.0,1.0,0.0,-1.0,0.2890703356910478,0.04267536265759353,0.1201211880398721,0.43034121238301465,0.15881585561353231,0.46235043854513813
-2.0,-6.0,-2.0,0.0,0.0,-2.0,-2.0,1.0,0.25185143215478134,0.08867966297351945,0.050512728504948534,0.4646480901219748,0.01360806134824638,0.36755191303738355
2.0,3.0,-1.0,1.0,-1.0,-3.0,-4.0,-1.0,0.20563964241258903,-0.013047424193831536,0.06608675634298755,0.4841789481542588,0.07493217318566686,0.43933257600387166
-1.0,-2.0,-2.0,-2.0,-1.0,-3.0,-3.0,0.0,0.19626544633666332,0.00593171783337193,0.07149435982744601,0.4937715944282745,0.1132911300761921,0.45584993481612057
-1.0,-1.0,-2.0,1.0,1.0,2.0,-1.0,1.0,0.19743992754285,0.03889785779410476,0.08362991775528106,0.4981247712073669,0.1606755075766338,0.4731060835408123
-3.0,0.0,27.0,-3.0,-2.0,-2.0,0.0,-2.0,0.20820219288534259,0.07662946801148776,0.09917632235093349,0.4966406163116052,0.20464770912196223,0.4868589326051725
2.0,-2.0,-7.0,0.0,-2.0,-1.0,-4.0,-3.0,0.22518243933248172,0.10728276204011236,0.11402370445365106,0.48970783721179834,0.23427766894701885,0.4943366023132515
-3.0,-10.0,-1.0,-1.0,3.0,1.0,3.0,6.0,0.24414530274577495,0.12058914862070197,0.12446710077941825,0.4783061037397935,0.24295835221246834,0.49452144263526143
0.0,12.0,6.0,-5.0,-2.0,-1.0,0.0,0.0,0.2617079810588132,0.11169676675738138,0.12841384143480838,0.46373639022025304,0.2297125994202274,0.48795971735913884
-5.0,-9.0,-7.0,2.0,-1.0,-2.0,-3.0,0.0,0.27646004060926566,0.08288641278992301,0.12612623261350364,0.44735548916622025,0.19891433213164716,0.47639567090344126
7.0,19.0,5.0,0.0,-3.0,0.0,-3.0,-3.0,0.2890703356910478,0.04267536265759353,0.1201211880398721,0.43034121238301465,0.15881585561353231,0.46235043854513813
0.0,12.0,0.0,-3.0,-1.0,-3.0,-1.0,1.0,0.20563964241258903,-0.013047424193831536,0.06608675634298755,0.4841789481542588,0.07493217318566686,0.43933257600387166
2.0,11.0,2.0,0.0,-1.0,1.0,-1.0,-2.0,0.19626544633666332,0.00593171783337193,0.07149435982744601,0.4937715944282745,0.1132911300761921,0.45584993481612057
-1.0,2.0,1.0,-4.0,-3.0,0.0,0.0,-3.0,0.19743992754285,0.03889785779410476,0.08362991775528106,0.4981247712073669,0.1606755075766338,0.4731060835408123
2.0,-4.0,-2.0,1.0,-3.0,1.0,2.0,-1.0,0.20820219288534259,0.07662946801148776,0.09917632235093349,0.4966406163116052,0.20464770912196223,0.4868589326051725
-7.0,-18.0,-5.0,-4.0,0.0,-1.0,-1.0,-2.0,0.22518243933248172,0.10728276204011236,0.11402370445365106,0.48970783721179834,0.23427766894701885,0.4943366023132515
-11.0,45.0,-8.0,-2.0,-2.0,-4.0,0.0,-6.0,0.24414530274577495,0.12058914862070197,0.12446710077941825,0.4783061037397935,0.24295835221246834,0.49452144263526143
0.0,-44.0,1.0,-2.0,-1.0,0.0,1.0,1.0,0.2617079810588132,0.11169676675738138,0.12841384143480838,0.46373639022025304,0.2297125994202274,0.48795971735913884
2.0,-12.0,0.0,-3.0,0.0,0.0,0.0,0.0,0.27646004060926566,0.08288641278992301,0.12612623261350364,0.44735548916622025,0.19891433213164716,0.47639567090344126
-1.0,4.0,6.0,-3.0,-1.0,-3.0,-2.0,0.0,0.2890703356910478,0.04267536265759353,0.1201211880398721,0.43034121238301465,0.15881585561353231,0.46235043854513813
1.0,25.0,-3.0,-2.0,-2.0,-5.0,0.0,-2.0,0.19743992754285,0.03889785779410476,0.08362991775528106,0.4981247712073669,0.1606755075766338,0.4731060835408123
-1.0,36.0,-3.0,1.0,-1.0,-2.0,-1.0,-1.0,0.20820219288534259,0.07662946801148776,0.09917632235093349,0.4966406163116052,0.20464770912196223,0.4868589326051725
-1.0,-17.0,-2.0,-3.0,1.0,-2.0,0.0,-3.0,0.22518243933248172,0.10728276204011236,0.11402370445365106,0.48970783721179834,0.23427766894701885,0.4943366023132515
2.0,15.0,0.0,0.0,-3.0,-1.0,0.0,0.0,0.24414530274577495,0.12058914862070197,0.12446710077941825,0.4783061037397935,0.24295835221246834,0.49452144263526143
1.0,-7.0,-2.0,1.0,-1.0,0.0,-3.0,-1.0,0.2617079810588132,0.11169676675738138,0.12841384143480838,0.46373639022025304,0.2297125994202274,0.48795971735913884
2.0,-6.0,1.0,0.0,-2.0,-1.0,-1.0,-1.0,0.27646004060926566,0.08288641278992301,0.12612623261350364,0.44735548916622025,0.19891433213164716,0.47639567090344126
-2.0,-3.0,-1.0,0.0,1.0,1.0,2.0,0.0,0.2890703356910478,0.04267536265759353,0.1201211880398721,0.43034121238301465,0.15881585561353231,0.46235043854513813
1.0,-6.0,1.0,-1.0,2.0,-1.0,-1.0,1.0,0.19743992754285,0.03889785779410476,0.08362991775528106,0.4981247712073669,0.1606755075766338,0.4731060835408123
-5.0,-6.0,0.0,-3.0,-1.0,-1.0,-2.0,-2.0,0.20820219288534259,0.07662946801148776,0.09917632235093349,0.4966406163116052,0.20464770912196223,0.4868589326051725
-11.0,-41.0,-6.0,3.0,4.0,-1.0,0.0,-4.0,0.22518243933248172,0.10728276204011236,0.11402370445365106,0.48970783721179834,0.23427766894701885,0.4943366023132515
-2.0,-5.0,-30.0,-5.0,-5.0,-5.0,-3.0,0.0,0.24414530274577495,0.12058914862070197,0.12446710077941825,0.4783061037397935,0.24295835221246834,0.49452144263526143
0.0,-2.0,6.0,1.0,-1.0,-2.0,-3.0,0.0,0.2617079810588132,0.11169676675738138,0.12841384143480838,0.46373639022025304,0.2297125994202274,0.48795971735913884
-1.0,20.0,1.0,0.0,0.0,0.0,0.0,-2.0,0.27646004060926566,0.08288641278992301,0.12612623261350364,0.44735548916622025,0.19891433213164716,0.47639567090344126
-4.0,-4.0,0.0,-3.0,-2.0,-1.0,-1.0,-1.0,0.2890703356910478,0.04267536265759353,0.1201211880398721,0.43034121238301465,0.15881585561353231,0.46235043854513813
0.0,1.0,-2.0,0.0,1.0,-1.0,-1.0,1.0,0.20563964241258903,-0.013047424193831536,0.06608675634298755,0.4841789481542588,0.07493217318566686,0.43933257600387166
-1.0,-4.0,1.0,2.0,0.0,-3.0,0.0,-4.0,0.19626544633666332,0.00593171783337193,0.07149435982744601,0.4937715944282745,0.1132911300761921,0.45584993481612057
1.0,-5.0,-3.0,-3.0,-3.0,0.0,-3.0,2.0,0.19743992754285,0.03889785779410476,0.08362991775528106,0.4981247712073669,0.1606755075766338,0.4731060835408123
0.0,-12.0,-37.0,-3.0,-1.0,2.0,1.0,-1.0,0.20820219288534259,0.07662946801148776,0.09917632235093349,0.4966406163116052,0.20464770912196223,0.4868589326051725
1.0,4.0,6.0,-3.0,-2.0,-1.0,1.0,-2.0,0.22518243933248172,0.10728276204011236,0.11402370445365106,0.48970783721179834,0.23427766894701885,0.4943366023132515
-4.0,7.0,5.0,1.0,-1.0,-2.0,1.0,-3.0,0.24414530274577495,0.12058914862070197,0.12446710077941825,0.4783061037397935,0.24295835221246834,0.49452144263526143
-3.0,-6.0,-5.0,-1.0,0.0,-1.0,-2.0,0.0,0.2617079810588132,0.11169676675738138,0.12841384143480838,0.46373639022025304,0.2297125994202274,0.48795971735913884
-1.0,-3.0,-1.0,-1.0,1.0,-1.0,-3.0,-1.0,0.27646004060926566,0.08288641278992301,0.12612623261350364,0.44735548916622025,0.19891433213164716,0.47639567090344126
-2.0,-1.0,-2.0,1.0,0.0,0.0,0.0,0.0,0.2890703356910478,0.04267536265759353,0.1201211880398721,0.43034121238301465,0.15881585561353231,0.46235043854513813
-1.0,-1.0,1.0,0.0,-3.0,-2.0,0.0,-1.0,0.24414530274577495,0.12058914862070197,0.12446710077941825,0.4783061037397935,0.24295835221246834,0.49452144263526143
0.0,1.0,-2.0,0.0,1.0,-1.0,-1.0,1.0,0.2617079810588132,0.11169676675738138,0.12841384143480838,0.46373639022025304,0.2297125994202274,0.48795971735913884
-1.0,-4.0,1.0,2.0,0.0,-3.0,0.0,-4.0,0.27646004060926566,0.08288641278992301,0.12612623261350364,0.44735548916622025,0.19891433213164716,0.47639567090344126
1.0,-5.0,-3.0,-3.0,-3.0,0.0,-3.0,2.0,0.2890703356910478,0.04267536265759353,0.1201211880398721,0.43034121238301465,0.15881585561353231,0.46235043854513813
-4.0,-14.0,8.0,0.0,-4.0,-1.0,1.0,2.0,0.2617079810588132,0.11169676675738138,0.12841384143480838,0.46373639022025304,0.2297125994202274,0.48795971735913884
-3.0,53.0,1.0,-3.0,-1.0,0.0,1.0,-4.0,0.27646004060926566,0.08288641278992301,0.12612623261350364,0.44735548916622025,0.19891433213164716,0.47639567090344126
5.0,-14.0,3.0,3.0,2.0,0.0,-1.0,1.0,0.2890703356910478,0.04267536265759353,0.1201211880398721,0.43034121238301465,0.15881585561353231,0.46235043854513813
-3.0,-42.0,-7.0,-4.0,-3.0,-2.0,-1.0,-3.0,0.25185143215478134,0.08867966297351945,0.050512728504948534,0.4646480901219748,0.01360806134824638,0.36755191303738355
-3.0,127.0,0.0,-3.0,0.0,-5.0,-5.0,-2.0,0.20563964241258903,-0.013047424193831536,0.06608675634298755,0.4841789481542588,0.07493217318566686,0.43933257600387166
-2.0,-17.0,2.0,2.0,0.0,-1.0,0.0,-2.0,0.19626544633666332,0.00593171783337193,0.07149435982744601,0.4937715944282745,0.1132911300761921,0.45584993481612057
-3.0,16.0,0.0,-1.0,0.0,0.0,-3.0,-5.0,0.19743992754285,0.03889785779410476,0.08362991775528106,0.4981247712073669,0.1606755075766338,0.4731060835408123
1.0,-8.0,-3.0,-1.0,-1.0,0.0,0.0,-1.0,0.20820219288534259,0.07662946801148776,0.09917632235093349,0.4966406163116052,0.20464770912196223,0.4868589326051725
1.0,1.0,-2.0,0.0,2.0,-1.0,0.0,-1.0,0.22518243933248172,0.10728276204011236,0.11402370445365106,0.48970783721179834,0.23427766894701885,0.4943366023132515
0.0,2.0,-2.0,0.0,-1.0,-4.0,0.0,2.0,0.24414530274577495,0.12058914862070197,0.12446710077941825,0.4783061037397935,0.24295835221246834,0.49452144263526143
-1.0,-13.0,-1.0,1.0,-2.0,0.0,-2.0,0.0,0.2617079810588132,0.11169676675738138,0.12841384143480838,0.46373639022025304,0.2297125994202274,0.48795971735913884
1.0,-2.0,-3.0,-2.0,1.0,-2.0,-3.0,1.0,0.27646004060926566,0.08288641278992301,0.12612623261350364,0.44735548916622025,0.19891433213164716,0.47639567090344126
4.0,6.0,4.0,1.0,1.0,1.0,-1.0,1.0,0.2890703356910478,0.04267536265759353,0.1201211880398721,0.43034121238301465,0.15881585561353231,0.46235043854513813
-4.0,25.0,-6.0,-6.0,-3.0,-6.0,-2.0,-5.0,0.19743992754285,0.03889785779410476,0.08362991775528106,0.4981247712073669,0.1606755075766338,0.4731060835408123
0.0,-30.0,2.0,0.0,1.0,0.0,1.0,0.0,0.20820219288534259,0.07662946801148776,0.09917632235093349,0.4966406163116052,0.20464770912196223,0.4868589326051725
-3.0,-1.0,5.0,0.0,0.0,1.0,-2.0,-2.0,0.22518243933248172,0.10728276204011236,0.11402370445365106,0.48970783721179834,0.23427766894701885,0.4943366023132515
1.0,6.0,1.0,-2.0,-2.0,-5.0,-3.0,-3.0,0.24414530274577495,0.12058914862070197,0.12446710077941825,0.4783061037397935,0.24295835221246834,0.49452144263526143
0.0,-14.0,-20.0,-2.0,-3.0,-1.0,-1.0,0.0,0.2617079810588132,0.11169676675738138,0.12841384143480838,0.46373639022025304,0.2297125994202274,0.48795971735913884
3.0,7.0,13.0,0.0,-1.0,1.0,0.0,-1.0,0.27646004060926566,0.08288641278992301,0.12612623261350364,0.44735548916622025,0.19891433213164716,0.47639567090344126
0.0,-7.0,1.0,1.0,1.0,2.0,1.0,-1.0,0.2890703356910478,0.04267536265759353,0.1201211880398721,0.43034121238301465,0.15881585561353231,0.46235043854513813
5.0,17.0,6.0,0.0,0.0,0.0,-1.0,-1.0,0.20563964241258903,-0.013047424193831536,0.06608675634298755,0.4841789481542588,0.07493217318566686,0.43933257600387166
1.0,3.0,1.0,-2.0,0.0,0.0,1.0,-3.0,0.19626544633666332,0.00593171783337193,0.07149435982744601,0.4937715944282745,0.1132911300761921,0.45584993481612057
0.0,5.0,3.0,0.0,0.0,0.0,-1.0,0.0,0.19743992754285,0.03889785779410476,0.08362991775528106,0.4981247712073669,0.1606755075766338,0.4731060835408123
-3.0,5.0,-2.0,-3.0,-3.0,-2.0,-3.0,-2.0,0.20820219288534259,0.07662946801148776,0.09917632235093349,0.4966406163116052,0.20464770912196223,0.4868589326051725
-3.0,-5.0,-16.0,-4.0,0.0,-1.0,-2.0,-1.0,0.22518243933248172,0.10728276204011236,0.11402370445365106,0.48970783721179834,0.23427766894701885,0.4943366023132515
-6.0,-9.0,0.0,1.0,-1.0,-1.0,-1.0,-2.0,0.24414530274577495,0.12058914862070197,0.12446710077941825,0.4783061037397935,0.24295835221246834,0.49452144263526143
3.0,23.0,-5.0,0.0,-1.0,-1.0,-4.0,-2.0,0.2617079810588132,0.11169676675738138,0.12841384143480838,0.46373639022025304,0.2297125994202274,0.48795971735913884
-1.0,-9.0,-4.0,-2.0,-1.0,0.0,-1.0,-1.0,0.27646004060926566,0.08288641278992301,0.12612623261350364,0.44735548916622025,0.19891433213164716,0.47639567090344126
0.0,8.0,2.0,-1.0,-2.0,0.0,-1.0,-2.0,0.2890703356910478,0.04267536265759353,0.1201211880398721,0.43034121238301465,0.15881585561353231,0.46235043854513813
-2.0,-12.0,1.0,2.0,2.0,-1.0,0.0,-3.0,0.20820219288534259,0.07662946801148776,0.09917632235093349,0.4966406163116052,0.20464770912196223,0.4868589326051725
-3.0,-4.0,-4.0,-3.0,-1.0,1.0,-1.0,-3.0,0.22518243933248172,0.10728276204011236,0.11402370445365106,0.48970783721179834,0.23427766894701885,0.4943366023132515
4.0,6.0,2.0,0.0,-3.0,-2.0,-1.0,1.0,0.24414530274577495,0.12058914862070197,0.12446710077941825,0.4783061037397935,0.24295835221246834,0.49452144263526143
0.0,-1.0,1.0,2.0,0.0,-1.0,2.0,4.0,0.2617079810588132,0.11169676675738138,0.12841384143480838,0.46373639022025304,0.2297125994202274,0.48795971735913884
0.0,-3.0,0.0,2.0,-5.0,-2.0,-1.0,1.0,0.27646004060926566,0.08288641278992301,0.12612623261350364,0.44735548916622025,0.19891433213164716,0.47639567090344126
0.0,11.0,3.0,-1.0,0.0,-3.0,0.0,-2.0,0.2890703356910478,0.04267536265759353,0.1201211880398721,0.43034121238301465,0.15881585561353231,0.46235043854513813
-1.0,-16.0,-13.0,-1.0,2.0,-1.0,1.0,-1.0,0.25185143215478134,0.08867966297351945,0.050512728504948534,0.4646480901219748,0.01360806134824638,0.36755191303738355
3.0,34.0,12.0,-1.0,-1.0,-1.0,1.0,1.0,0.20563964241258903,-0.013047424193831536,0.06608675634298755,0.4841789481542588,0.07493217318566686,0.43933257600387166
-14.0,-36.0,-6.0,-2.0,0.0,-2.0,-1.0,-2.0,0.19626544633666332,0.00593171783337193,0.07149435982744601,0.4937715944282745,0.1132911300761921,0.45584993481612057
5.0,-6.0,-2.0,-2.0,1.0,2.0,2.0,0.0,0.19743992754285,0.03889785779410476,0.08362991775528106,0.4981247712073669,0.1606755075766338,0.4731060835408123
0.0,43.0,0.0,-2.0,-3.0,-6.0,-1.0,-3.0,0.20820219288534259,0.07662946801148776,0.09917632235093349,0.4966406163116052,0.20464770912196223,0.4868589326051725
-3.0,13.0,4.0,-1.0,-6.0,1.0,-4.0,0.0,0.22518243933248172,0.10728276204011236,0.11402370445365106,0.48970783721179834,0.23427766894701885,0.4943366023132515
0.0,-24.0,2.0,2.0,1.0,1.0,-2.0,0.0,0.24414530274577495,0.12058914862070197,0.12446710077941825,0.4783061037397935,0.24295835221246834,0.49452144263526143
4.0,-1.0,-4.0,0.0,2.0,-1.0,0.0,1.0,0.2617079810588132,0.11169676675738138,0.12841384143480838,0.46373639022025304,0.2297125994202274,0.48795971735913884
3.0,4.0,18.0,-2.0,-4.0,0.0,2.0,-1.0,0.27646004060926566,0.08288641278992301,0.12612623261350364,0.44735548916622025,0.19891433213164716,0.47639567090344126
0.0,5.0,-1.0,2.0,1.0,0.0,0.0,-2.0,0.2890703356910478,0.04267536265759353,0.1201211880398721,0.43034121238301465,0.15881585561353231,0.46235043854513813
-1.0,11.0,1.0,0.0,-2.0,0.0,-3.0,1.0,0.25185143215478134,0.08867966297351945,0.050512728504948534,0.4646480901219748,0.01360806134824638,0.36755191303738355
1.0,7.0,15.0,1.0,-3.0,-1.0,0.0,0.0,0.20563964241258903,-0.013047424193831536,0.06608675634298755,0.4841789481542588,0.07493217318566686,0.43933257600387166
-5.0,4.0,-2.0,-1.0,-1.0,-1.0,2.0,-2.0,0.19626544633666332,0.00593171783337193,0.07149435982744601,0.4937715944282745,0.1132911300761921,0.45584993481612057
2.0,26.0,2.0,0.0,-1.0,0.0,-4.0,-4.0,0.19743992754285,0.03889785779410476,0.08362991775528106,0.4981247712073669,0.1606755075766338,0.4731060835408123
3.0,35.0,6.0,-1.0,0.0,-1.0,-1.0,1.0,0.20820219288534259,0.07662946801148776,0.09917632235093349,0.4966406163116052,0.20464770912196223,0.4868589326051725
0.0,2.0,1.0,1.0,-3.0,1.0,-2.0,1.0,0.22518243933248172,0.10728276204011236,0.11402370445365106,0.48970783721179834,0.23427766894701885,0.4943366023132515
-1.0,-6.0,-2.0,-2.0,-1.0,0.0,0.0,-1.0,0.24414530274577495,0.12058914862070197,0.12446710077941825,0.4783061037397935,0.24295835221246834,0.49452144263526143
1.0,-3.0,-3.0,-2.0,1.0,0.0,-3.0,-1.0,0.2617079810588132,0.11169676675738138,0.12841384143480838,0.46373639022025304,0.2297125994202274,0.48795971735913884
2.0,-4.0,2.0,-1.0,-3.0,0.0,-2.0,0.0,0.27646004060926566,0.08288641278992301,0.12612623261350364,0.44735548916622025,0.19891433213164716,0.47639567090344126
1.0,-12.0,-10.0,-4.0,-4.0,-2.0,3.0,-1.0,0.2890703356910478,0.04267536265759353,0.1201211880398721,0.43034121238301465,0.15881585561353231,0.46235043854513813
1.0,3.0,1.0,2.0,3.0,1.0,-3.0,-2.0,0.25185143215478134,0.08867966297351945,0.050512728504948534,0.4646480901219748,0.01360806134824638,0.36755191303738355
-2.0,-1.0,-2.0,-4.0,2.0,-1.0,1.0,0.0,0.20563964241258903,-0.013047424193831536,0.06608675634298755,0.4841789481542588,0.07493217318566686,0.43933257600387166
-2.0,0.0,-3.0,-1.0,-2.0,1.0,1.0,2.0,0.19626544633666332,0.00593171783337193,0.07149435982744601,0.4937715944282745,0.1132911300761921,0.45584993481612057
0.0,-4.0,-2.0,-1.0,-1.0,1.0,1.0,-1.0,0.19743992754285,0.03889785779410476,0.08362991775528106,0.4981247712073669,0.1606755075766338,0.4731060835408123
1.0,1.0,8.0,1.0,-3.0,-1.0,-1.0,-2.0,0.20820219288534259,0.07662946801148776,0.09917632235093349,0.4966406163116052,0.20464770912196223,0.4868589326051725
5.0,-12.0,-5.0,1.0,-1.0,2.0,0.0,0.0,0.22518243933248172,0.10728276204011236,0.11402370445365106,0.48970783721179834,0.23427766894701885,0.4943366023132515
0.0,4.0,-2.0,-1.0,-1.0,1.0,-1.0,1.0,0.24414530274577495,0.12058914862070197,0.12446710077941825,0.4783061037397935,0.24295835221246834,0.49452144263526143
-15.0,40.0,-11.0,-4.0,-3.0,-3.0,-3.0,-6.0,0.2617079810588132,0.11169676675738138,0.12841384143480838,0.46373639022025304,0.2297125994202274,0.48795971735913884
2.0,-59.0,0.0,-3.0,0.0,-2.0,0.0,1.0,0.27646004060926566,0.08288641278992301,0.12612623261350364,0.44735548916622025,0.19891433213164716,0.47639567090344126
4.0,7.0,2.0,2.0,2.0,-1.0,0.0,-1.0,0.2890703356910478,0.04267536265759353,0.1201211880398721,0.43034121238301465,0.15881585561353231,0.46235043854513813
-10.0,2.0,-14.0,-2.0,0.0,0.0,-4.0,0.0,0.25185143215478134,0.08867966297351945,0.050512728504948534,0.4646480901219748,0.01360806134824638,0.36755191303738355
1.0,-11.0,1.0,-1.0,-1.0,-2.0,1.0,1.0,0.20563964241258903,-0.013047424193831536,0.06608675634298755,0.4841789481542588,0.07493217318566686,0.43933257600387166
2.0,1.0,0.0,2.0,0.0,2.0,1.0,-1.0,0.19626544633666332,0.00593171783337193,0.07149435982744601,0.4937715944282745,0.1132911300761921,0.45584993481612057
-1.0,-1.0,1.0,-1.0,-3.0,-3.0,-1.0,0.0,0.19743992754285,0.03889785779410476,0.08362991775528106,0.4981247712073669,0.1606755075766338,0.4731060835408123
-1.0,0.0,1.0,-3.0,0.0,-3.0,-2.0,-1.0,0.20820219288534259,0.07662946801148776,0.09917632235093349,0.4966406163116052,0.20464770912196223,0.4868589326051725
0.0,-1.0,-2.0,-1.0,-1.0,0.0,1.0,1.0,0.22518243933248172,0.10728276204011236,0.11402370445365106,0.48970783721179834,0.23427766894701885,0.4943366023132515
0.0,-7.0,4.0,-4.0,-1.0,-3.0,-2.0,0.0,0.24414530274577495,0.12058914862070197,0.12446710077941825,0.4783061037397935,0.24295835221246834,0.49452144263526143
-3.0,5.0,4.0,-1.0,-4.0,0.0,1.0,-3.0,0.2617079810588132,0.11169676675738138,0.12841384143480838,0.46373639022025304,0.2297125994202274,0.48795971735913884
-5.0,-7.0,-6.0,-1.0,0.0,1.0,-1.0,-3.0,0.27646004060926566,0.08288641278992301,0.12612623261350364,0.44735548916622025,0.19891433213164716,0.47639567090344126
-3.0,34.0,12.0,-3.0,-4.0,-4.0,-1.0,-4.0,0.2890703356910478,0.04267536265759353,0.1201211880398721,0.43034121238301465,0.15881585561353231,0.46235043854513813
0.0,-62.0,-4.0,4.0,-1.0,-3.0,-1.0,-1.0,0.25185143215478134,0.08867966297351945,0.050512728504948534,0.4646480901219748,0.01360806134824638,0.36755191303738355
1.0,15.0,4.0,-1.0,4.0,0.0,-1.0,-1.0,0.20563964241258903,-0.013047424193831536,0.06608675634298755,0.4841789481542588,0.07493217318566686,0.43933257600387166
2.0,2.0,3.0,-4.0,-2.0,-2.0,0.0,-1.0,0.19626544633666332,0.00593171783337193,0.07149435982744601,0.4937715944282745,0.1132911300761921,0.45584993481612057
-1.0,-5.0,-24.0,-1.0,1.0,-2.0,1.0,-4.0,0.19743992754285,0.03889785779410476,0.08362991775528106,0.4981247712073669,0.1606755075766338,0.4731060835408123
-1.0,20.0,7.0,-3.0,-3.0,0.0,-1.0,1.0,0.20820219288534259,0.07662946801148776,0.09917632235093349,0.4966406163116052,0.20464770912196223,0.4868589326051725
0.0,-15.0,-2.0,2.0,0.0,0.0,0.0,2.0,0.22518243933248172,0.10728276204011236,0.11402370445365106,0.48970783721179834,0.23427766894701885,0.4943366023132515
0.0,-2.0,-2.0,0.0,0.0,0.0,1.0,1.0,0.24414530274577495,0.12058914862070197,0.12446710077941825,0.4783061037397935,0.24295835221246834,0.49452144263526143
-2.0,-11.0,4.0,-2.0,-2.0,-2.0,-2.0,0.0,0.2617079810588132,0.11169676675738138,0.12841384143480838,0.46373639022025304,0.2297125994202274,0.48795971735913884
-10.0,2.0,-14.0,-2.0,0.0,0.0,-4.0,0.0,0.27646004060926566,0.08288641278992301,0.12612623261350364,0.44735548916622025,0.19891433213164716,0.47639567090344126
1.0,-11.0,1.0,-1.0,-1.0,-2.0,1.0,1.0,0.2890703356910478,0.04267536265759353,0.1201211880398721,0.43034121238301465,0.15881585561353231,0.46235043854513813
1.0,15.0,-1.0,-1.0,-4.0,0.0,0.0,-2.0,0.20820219288534259,0.07662946801148776,0.09917632235093349,0.4966406163116052,0.20464770912196223,0.4868589326051725
1.0,-7.0,4.0,-3.0,-2.0,1.0,0.0,-1.0,0.22518243933248172,0.10728276204011236,0.11402370445365106,0.48970783721179834,0.23427766894701885,0.4943366023132515
-3.0,-9.0,-4.0,-3.0,0.0,0.0,0.0,-2.0,0.24414530274577495,0.12058914862070197,0.12446710077941825,0.4783061037397935,0.24295835221246834,0.49452144263526143
2.0,21.0,-1.0,-1.0,0.0,-1.0,0.0,-1.0,0.2617079810588132,0.11169676675738138,0.12841384143480838,0.46373639022025304,0.2297125994202274,0.48795971735913884
-5.0,-5.0,-3.0,-2.0,-4.0,-4.0,0.0,-4.0,0.27646004060926566,0.08288641278992301,0.12612623261350364,0.44735548916622025,0.19891433213164716,0.47639567090344126
4.0,8.0,2.0,-3.0,-3.0,1.0,0.0,-1.0,0.2890703356910478,0.04267536265759353,0.1201211880398721,0.43034121238301465,0.15881585561353231,0.46235043854513813
-2.0,-5.0,-2.0,1.0,0.0,-1.0,-2.0,0.0,0.25185143215478134,0.08867966297351945,0.050512728504948534,0.4646480901219748,0.01360806134824638,0.36755191303738355
1.0,3.0,-1.0,0.0,-1.0,1.0,-1.0,-1.0,0.20563964241258903,-0.013047424193831536,0.06608675634298755,0.4841789481542588,0.07493217318566686,0.43933257600387166
-1.0,-4.0,-1.0,-1.0,3.0,-1.0,-1.0,1.0,0.19626544633666332,0.00593171783337193,0.07149435982744601,0.4937715944282745,0.1132911300761921,0.45584993481612057
-2.0,-6.0,2.0,1.0,1.0,-4.0,-1.0,-1.0,0.19743992754285,0.03889785779410476,0.08362991775528106,0.4981247712073669,0.1606755075766338,0.4731060835408123
2.0,2.0,1.0,1.0,-1.0,-3.0,1.0,-1.0,0.20820219288534259,0.07662946801148776,0.09917632235093349,0.4966406163116052,0.20464770912196223,0.4868589326051725
1.0,1.0,4.0,1.0,2.0,-2.0,1.0,-1.0,0.22518243933248172,0.10728276204011236,0.11402370445365106,0.48970783721179834,0.23427766894701885,0.4943366023132515
-4.0,7.0,7.0,0.0,-1.0,-2.0,0.0,-4.0,0.24414530274577495,0.12058914862070197,0.12446710077941825,0.4783061037397935,0.24295835221246834,0.49452144263526143
0.0,-15.0,-37.0,-2.0,-3.0,-1.0,-1.0,1.0,0.2617079810588132,0.11169676675738138,0.12841384143480838,0.46373639022025304,0.2297125994202274,0.48795971735913884
-4.0,-4.0,7.0,-3.0,-1.0,0.0,-1.0,1.0,0.27646004060926566,0.08288641278992301,0.12612623261350364,0.44735548916622025,0.19891433213164716,0.47639567090344126
-3.0,59.0,-2.0,0.0,-2.0,1.0,-3.0,-2.0,0.2890703356910478,0.04267536265759353,0.1201211880398721,0.43034121238301465,0.15881585561353231,0.46235043854513813
2.0,2.0,12.0,-1.0,0.0,-2.0,1.0,2.0,0.20563964241258903,-0.013047424193831536,0.06608675634298755,0.4841789481542588,0.07493217318566686,0.43933257600387166
1.0,0.0,2.0,0.0,-3.0,2.0,-3.0,-1.0,0.19626544633666332,0.00593171783337193,0.07149435982744601,0.4937715944282745,0.1132911300761921,0.45584993481612057
-2.0,-2.0,-35.0,0.0,1.0,1.0,-2.0,-4.0,0.19743992754285,0.03889785779410476,0.08362991775528106,0.4981247712073669,0.1606755075766338,0.4731060835408123
4.0,-4.0,8.0,0.0,3.0,-1.0,-2.0,-1.0,0.20820219288534259,0.07662946801148776,0.09917632235093349,0.4966406163116052,0.20464770912196223,0.4868589326051725
-5.0,6.0,-6.0,-5.0,-5.0,-3.0,-1.0,-3.0,0.22518243933248172,0.10728276204011236,0.11402370445365106,0.48970783721179834,0.23427766894701885,0.4943366023132515
-6.0,-5.0,2.0,0.0,0.0,1.0,-1.0,0.0,0.24414530274577495,0.12058914862070197,0.12446710077941825,0.4783061037397935,0.24295835221246834,0.49452144263526143
1.0,3.0,1.0,-2.0,-2.0,-4.0,1.0,-1.0,0.2617079810588132,0.11169676675738138,0.12841384143480838,0.46373639022025304,0.2297125994202274,0.48795971735913884
2.0,1.0,-1.0,2.0,0.0,-1.0,-4.0,-4.0,0.27646004060926566,0.08288641278992301,0.12612623261350364,0.44735548916622025,0.19891433213164716,0.47639567090344126
-2.0,-4.0,-3.0,-1.0,0.0,-1.0,1.0,-2.0,0.2890703356910478,0.04267536265759353,0.1201211880398721,0.43034121238301465,0.15881585561353231,0.46235043854513813
2.0,-24.0,-8.0,1.0,-2.0,-4.0,-1.0,-1.0,0.19743992754285,0.03889785779410476,0.08362991775528106,0.4981247712073669,0.1606755075766338,0.4731060835408123
2.0,28.0,4.0,1.0,-1.0,-2.0,1.0,-1.0,0.20820219288534259,0.07662946801148776,0.09917632235093349,0.4966406163116052,0.20464770912196223,0.4868589326051725
-1.0,0.0,0.0,-3.0,-2.0,-2.0,1.0,-2.0,0.22518243933248172,0.10728276204011236,0.11402370445365106,0.48970783721179834,0.23427766894701885,0.4943366023132515
-6.0,-25.0,-2.0,-1.0,-5.0,-2.0,0.0,-4.0,0.24414530274577495,0.12058914862070197,0.12446710077941825,0.4783061037397935,0.24295835221246834,0.49452144263526143
-1.0,8.0,3.0,-1.0,-1.0,1.0,-3.0,3.0,0.2617079810588132,0.11169676675738138,0.12841384143480838,0.46373639022025304,0.2297125994202274,0.48795971735913884
-7.0,-10.0,-3.0,-6.0,-3.0,-3.0,-4.0,-3.0,0.27646004060926566,0.08288641278992301,0.12612623261350364,0.44735548916622025,0.19891433213164716,0.47639567090344126
4.0,2.0,4.0,0.0,-5.0,0.0,0.0,0.0,0.2890703356910478,0.04267536265759353,0.1201211880398721,0.43034121238301465,0.15881585561353231,0.46235043854513813
-6.0,-72.0,-5.0,-1.0,0.0,-2.0,-2.0,-2.0,0.19626544633666332,0.00593171783337193,0.07149435982744601,0.4937715944282745,0.1132911300761921,0.45584993481612057
1.0,7.0,1.0,1.0,0.0,1.0,-2.0,0.0,0.19743992754285,0.03889785779410476,0.08362991775528106,0.4981247712073669,0.1606755075766338,0.4731060835408123
1.0,1.0,-2.0,-3.0,-1.0,-1.0,-1.0,-1.0,0.20820219288534259,0.07662946801148776,0.09917632235093349,0.4966406163116052,0.20464770912196223,0.4868589326051725
-1.0,-1.0,-1.0,0.0,-1.0,1.0,-1.0,-1.0,0.22518243933248172,0.10728276204011236,0.11402370445365106,0.48970783721179834,0.23427766894701885,0.4943366023132515
-5.0,-6.0,-3.0,0.0,-3.0,-3.0,1.0,-1.0,0.24414530274577495,0.12058914862070197,0.12446710077941825,0.4783061037397935,0.24295835221246834,0.49452144263526143
0.0,0.0,10.0,-6.0,0.0,2.0,-2.0,0.0,0.2617079810588132,0.11169676675738138,0.12841384143480838,0.46373639022025304,0.2297125994202274,0.48795971735913884
1.0,4.0,2.0,1.0,1.0,-3.0,1.0,-2.0,0.27646004060926566,0.08288641278992301,0.12612623261350364,0.44735548916622025,0.19891433213164716,0.47639567090344126
2.0,-24.0,-8.0,1.0,-2.0,-4.0,-1.0,-1.0,0.2890703356910478,0.04267536265759353,0.1201211880398721,0.43034121238301465,0.15881585561353231,0.46235043854513813
-1.0,-3.0,3.0,-1.0,-1.0,-2.0,-2.0,-1.0,0.20563964241258903,-0.013047424193831536,0.06608675634298755,0.4841789481542588,0.07493217318566686,0.43933257600387166
-4.0,-18.0,8.0,-5.0,-5.0,-1.0,-1.0,1.0,0.19626544633666332,0.00593171783337193,0.07149435982744601,0.4937715944282745,0.1132911300761921,0.45584993481612057
1.0,2.0,-5.0,-2.0,-1.0,1.0,0.0,-1.0,0.19743992754285,0.03889785779410476,0.08362991775528106,0.4981247712073669,0.1606755075766338,0.4731060835408123
4.0,22.0,1.0,1.0,1.0,1.0,-2.0,1.0,0.20820219288534259,0.07662946801148776,0.09917632235093349,0.4966406163116052,0.20464770912196223,0.4868589326051725
-3.0,-12.0,-1.0,-2.0,4.0,1.0,-2.0,-4.0,0.22518243933248172,0.10728276204011236,0.11402370445365106,0.48970783721179834,0.23427766894701885,0.4943366023132515
3.0,4.0,1.0,1.0,-2.0,1.0,1.0,1.0,0.24414530274577495,0.12058914862070197,0.12446710077941825,0.4783061037397935,0.24295835221246834,0.49452144263526143
0.0,-1.0,0.0,1.0,-2.0,0.0,0.0,-1.0,0.2617079810588132,0.11169676675738138,0.12841384143480838,0.46373639022025304,0.2297125994202274,0.48795971735913884
-1.0,1.0,1.0,-1.0,2.0,-1.0,0.0,-1.0,0.27646004060926566,0.08288641278992301,0.12612623261350364,0.44735548916622025,0.19891433213164716,0.47639567090344126
-1.0,4.0,3.0,-2.0,-2.0,-2.0,3.0,0.0,0.2890703356910478,0.04267536265759353,0.1201211880398721,0.43034121238301465,0.15881585561353231,0.46235043854513813
1.0,-27.0,0.0,0.0,-1.0,-1.0,1.0,1.0,0.19626544633666332,0.00593171783337193,0.07149435982744601,0.4937715944282745,0.1132911300761921,0.45584993481612057
-5.0,-11.0,3.0,1.0,1.0,1.0,0.0,-1.0,0.19743992754285,0.03889785779410476,0.08362991775528106,0.4981247712073669,0.1606755075766338,0.4731060835408123
0.0,23.0,-1.0,0.0,-2.0,0.0,-1.0,-1.0,0.20820219288534259,0.07662946801148776,0.09917632235093349,0.4966406163116052,0.20464770912196223,0.4868589326051725
1.0,1.0,-2.0,0.0,-2.0,-3.0,-2.0,0.0,0.22518243933248172,0.10728276204011236,0.11402370445365106,0.48970783721179834,0.23427766894701885,0.4943366023132515
2.0,-3.0,1.0,0.0,-2.0,-3.0,-1.0,1.0,0.24414530274577495,0.12058914862070197,0.12446710077941825,0.4783061037397935,0.24295835221246834,0.49452144263526143
1.0,2.0,-2.0,-2.0,-4.0,0.0,-2.0,-2.0,0.2617079810588132,0.11169676675738138,0.12841384143480838,0.46373639022025304,0.2297125994202274,0.48795971735913884
-3.0,-2.0,-3.0,1.0,-2.0,-2.0,-2.0,-3.0,0.27646004060926566,0.08288641278992301,0.12612623261350364,0.44735548916622025,0.19891433213164716,0.47639567090344126
-1.0,-3.0,3.0,-1.0,-1.0,-2.0,-2.0,-1.0,0.2890703356910478,0.04267536265759353,0.1201211880398721,0.43034121238301465,0.15881585561353231,0.46235043854513813
-2.0,-3.0,-1.0,-2.0,1.0,1.0,-1.0,0.0,0.19626544633666332,0.00593171783337193,0.07149435982744601,0.4937715944282745,0.1132911300761921,0.45584993481612057
-1.0,-3.0,-2.0,0.0,-2.0,-3.0,0.0,1.0,0.19743992754285,0.03889785779410476,0.08362991775528106,0.4981247712073669,0.1606755075766338,0.4731060835408123
-1.0,23.0,1.0,0.0,-2.0,-2.0,-3.0,-1.0,0.20820219288534259,0.07662946801148776,0.09917632235093349,0.4966406163116052,0.20464770912196223,0.4868589326051725
-3.0,-26.0,-1.0,-1.0,0.0,-2.0,1.0,0.0,0.22518243933248172,0.10728276204011236,0.11402370445365106,0.48970783721179834,0.23427766894701885,0.4943366023132515
3.0,0.0,-3.0,-2.0,-2.0,-3.0,-3.0,-2.0,0.24414530274577495,0.12058914862070197,0.12446710077941825,0.4783061037397935,0.24295835221246834,0.49452144263526143
-1.0,-4.0,-4.0,2.0,-1.0,-4.0,-2.0,0.0,0.2617079810588132,0.11169676675738138,0.12841384143480838,0.46373639022025304,0.2297125994202274,0.48795971735913884
2.0,5.0,-1.0,-3.0,1.0,-2.0,-2.0,-4.0,0.27646004060926566,0.08288641278992301,0.12612623261350364,0.44735548916622025,0.19891433213164716,0.47639567090344126
-1.0,-8.0,-4.0,2.0,0.0,-1.0,0.0,-1.0,0.2890703356910478,0.04267536265759353,0.1201211880398721,0.43034121238301465,0.15881585561353231,0.46235043854513813
-1.0,-5.0,-1.0,1.0,-3.0,-1.0,0.0,-1.0,0.25185143215478134,0.08867966297351945,0.050512728504948534,0.4646480901219748,0.01360806134824638,0.36755191303738355
-3.0,-4.0,-2.0,-1.0,-1.0,-2.0,-2.0,0.0,0.20563964241258903,-0.013047424193831536,0.06608675634298755,0.4841789481542588,0.07493217318566686,0.43933257600387166
-2.0,5.0,-3.0,0.0,0.0,-1.0,0.0,-1.0,0.19626544633666332,0.00593171783337193,0.07149435982744601,0.4937715944282745,0.1132911300761921,0.45584993481612057
-1.0,30.0,11.0,-5.0,-6.0,-4.0,-1.0,0.0,0.19743992754285,0.03889785779410476,0.08362991775528106,0.4981247712073669,0.1606755075766338,0.4731060835408123
2.0,11.0,-3.0,2.0,2.0,1.0,0.0,1.0,0.20820219288534259,0.07662946801148776,0.09917632235093349,0.4966406163116052,0.20464770912196223,0.4868589326051725
1.0,-6.0,-1.0,1.0,-1.0,-1.0,0.0,0.0,0.22518243933248172,0.10728276204011236,0.11402370445365106,0.48970783721179834,0.23427766894701885,0.4943366023132515
-2.0,0.0,-1.0,0.0,-1.0,0.0,2.0,-3.0,0.24414530274577495,0.12058914862070197,0.12446710077941825,0.4783061037397935,0.24295835221246834,0.49452144263526143
-1.0,-2.0,-2.0,-1.0,0.0,0.0,0.0,-1.0,0.2617079810588132,0.11169676675738138,0.12841384143480838,0.46373639022025304,0.2297125994202274,0.48795971735913884
0.0,1.0,2.0,0.0,-1.0,-3.0,0.0,0.0,0.27646004060926566,0.08288641278992301,0.12612623261350364,0.44735548916622025,0.19891433213164716,0.47639567090344126
0.0,1.0,4.0,2.0,-3.0,-1.0,-2.0,-2.0,0.2890703356910478,0.04267536265759353,0.1201211880398721,0.43034121238301465,0.15881585561353231,0.46235043854513813
0.0,-5.0,-2.0,-2.0,-1.0,-1.0,0.0,-3.0,0.25185143215478134,0.08867966297351945,0.050512728504948534,0.4646480901219748,0.01360806134824638,0.36755191303738355
1.0,-1.0,-2.0,0.0,2.0,-1.0,-1.0,-3.0,0.20563964241258903,-0.013047424193831536,0.06608675634298755,0.4841789481542588,0.07493217318566686,0.43933257600387166
0.0,-3.0,0.0,-2.0,-3.0,0.0,-4.0,1.0,0.19626544633666332,0.00593171783337193,0.07149435982744601,0.4937715944282745,0.1132911300761921,0.45584993481612057
-2.0,4.0,-3.0,0.0,-4.0,-1.0,1.0,-3.0,0.19743992754285,0.03889785779410476,0.08362991775528106,0.4981247712073669,0.1606755075766338,0.4731060835408123
1.0,-8.0,-4.0,0.0,-1.0,-2.0,-1.0,0.0,0.20820219288534259,0.07662946801148776,0.09917632235093349,0.4966406163116052,0.20464770912196223,0.4868589326051725
-3.0,-13.0,2.0,0.0,-1.0,-3.0,0.0,-1.0,0.22518243933248172,0.10728276204011236,0.11402370445365106,0.48970783721179834,0.23427766894701885,0.4943366023132515
2.0,-3.0,22.0,0.0,-3.0,0.0,1.0,-2.0,0.24414530274577495,0.12058914862070197,0.12446710077941825,0.4783061037397935,0.24295835221246834,0.49452144263526143
-4.0,-21.0,5.0,-1.0,-1.0,1.0,1.0,-1.0,0.2617079810588132,0.11169676675738138,0.12841384143480838,0.46373639022025304,0.2297125994202274,0.48795971735913884
-4.0,18.0,-1.0,-3.0,1.0,-3.0,-3.0,-2.0,0.27646004060926566,0.08288641278992301,0.12612623261350364,0.44735548916622025,0.19891433213164716,0.47639567090344126
-4.0,-10.0,1.0,-1.0,-2.0,-2.0,2.0,-2.0,0.2890703356910478,0.04267536265759353,0.1201211880398721,0.43034121238301465,0.15881585561353231,0.46235043854513813
1.0,7.0,2.0,-4.0,-4.0,0.0,3.0,-3.0,0.25185143215478134,0.08867966297351945,0.050512728504948534,0.4646480901219748,0.01360806134824638,0.36755191303738355
-2.0,2.0,-4.0,-4.0,1.0,-2.0,2.0,0.0,0.20563964241258903,-0.013047424193831536,0.06608675634298755,0.4841789481542588,0.07493217318566686,0.43933257600387166
-2.0,-5.0,-5.0,0.0,-1.0,-2.0,-1.0,0.0,0.19626544633666332,0.00593171783337193,0.07149435982744601,0.4937715944282745,0.1132911300761921,0.45584993481612057
-4.0,19.0,0.0,-1.0,-1.0,-3.0,-1.0,-2.0,0.19743992754285,0.03889785779410476,0.08362991775528106,0.4981247712073669,0.1606755075766338,0.4731060835408123
-5.0,-29.0,1.0,-3.0,0.0,1.0,-1.0,1.0,0.20820219288534259,0.07662946801148776,0.09917632235093349,0.4966406163116052,0.20464770912196223,0.4868589326051725
-1.0,21.0,0.0,1.0,-2.0,1.0,-1.0,-2.0,0.22518243933248172,0.10728276204011236,0.11402370445365106,0.48970783721179834,0.23427766894701885,0.4943366023132515
1.0,-7.0,5.0,3.0,-1.0,0.0,-1.0,-3.0,0.24414530274577495,0.12058914862070197,0.12446710077941825,0.4783061037397935,0.24295835221246834,0.49452144263526143
0.0,-8.0,2.0,1.0,-1.0,-2.0,-3.0,-2.0,0.2617079810588132,0.11169676675738138,0.12841384143480838,0.46373639022025304,0.2297125994202274,0.48795971735913884
2.0,14.0,-19.0,1.0,2.0,-1.0,-2.0,-3.0,0.27646004060926566,0.08288641278992301,0.12612623261350364,0.44735548916622025,0.19891433213164716,0.47639567090344126
1.0,-10.0,12.0,0.0,1.0,1.0,3.0,-3.0,0.2890703356910478,0.04267536265759353,0.1201211880398721,0.43034121238301465,0.15881585561353231,0.46235043854513813
-4.0,-9.0,1.0,-2.0,-1.0,-1.0,-3.0,-2.0,0.25185143215478134,0.08867966297351945,0.050512728504948534,0.4646480901219748,0.01360806134824638,0.36755191303738355
1.0,0.0,0.0,-2.0,-1.0,-2.0,-1.0,-4.0,0.20563964241258903,-0.013047424193831536,0.06608675634298755,0.4841789481542588,0.07493217318566686,0.43933257600387166
-3.0,10.0,-1.0,-2.0,0.0,0.0,2.0,-2.0,0.19626544633666332,0.00593171783337193,0.07149435982744601,0.4937715944282745,0.1132911300761921,0.45584993481612057
1.0,-1.0,0.0,-1.0,-1.0,0.0,-1.0,-1.0,0.19743992754285,0.03889785779410476,0.08362991775528106,0.4981247712073669,0.1606755075766338,0.4731060835408123
1.0,14.0,6.0,-5.0,-1.0,-1.0,-1.0,1.0,0.20820219288534259,0.07662946801148776,0.09917632235093349,0.4966406163116052,0.20464770912196223,0.4868589326051725
-2.0,-15.0,-3.0,1.0,-1.0,1.0,-2.0,-4.0,0.22518243933248172,0.10728276204011236,0.11402370445365106,0.48970783721179834,0.23427766894701885,0.4943366023132515
1.0,7.0,2.0,-4.0,-4.0,0.0,3.0,-3.0,0.24414530274577495,0.12058914862070197,0.12446710077941825,0.4783061037397935,0.24295835221246834,0.49452144263526143
-2.0,2.0,-4.0,-4.0,1.0,-2.0,2.0,0.0,0.2617079810588132,0.11169676675738138,0.12841384143480838,0.46373639022025304,0.2297125994202274,0.48795971735913884
-2.0,-5.0,-5.0,0.0,-1.0,-2.0,-1.0,0.0,0.27646004060926566,0.08288641278992301,0.12612623261350364,0.44735548916622025,0.19891433213164716,0.47639567090344126
-4.0,19.0,0.0,-1.0,-1.0,-3.0,-1.0,-2.0,0.2890703356910478,0.04267536265759353,0.1201211880398721,0.43034121238301465,0.15881585561353231,0.46235043854513813
3.0,1.0,-1.0,-1.0,-1.0,-2.0,1.0,1.0,0.19743992754285,0.03889785779410476,0.08362991775528106,0.4981247712073669,0.1606755075766338,0.4731060835408123
-8.0,-13.0,0.0,-4.0,-4.0,-2.0,-2.0,-1.0,0.20820219288534259,0.07662946801148776,0.09917632235093349,0.4966406163116052,0.20464770912196223,0.4868589326051725
-1.0,-12.0,-2.0,0.0,1.0,-2.0,-1.0,1.0,0.22518243933248172,0.10728276204011236,0.11402370445365106,0.48970783721179834,0.23427766894701885,0.4943366023132515
1.0,45.0,2.0,2.0,3.0,2.0,2.0,-3.0,0.24414530274577495,0.12058914862070197,0.12446710077941825,0.4783061037397935,0.24295835221246834,0.49452144263526143
0.0,-20.0,0.0,1.0,0.0,0.0,-1.0,2.0,0.2617079810588132,0.11169676675738138,0.12841384143480838,0.46373639022025304,0.2297125994202274,0.48795971735913884
-1.0,-3.0,8.0,-3.0,0.0,-2.0,2.0,-2.0,0.27646004060926566,0.08288641278992301,0.12612623261350364,0.44735548916622025,0.19891433213164716,0.47639567090344126
0.0,-5.0,11.0,2.0,0.0,1.0,0.0,0.0,0.2890703356910478,0.04267536265759353,0.1201211880398721,0.43034121238301465,0.15881585561353231,0.46235043854513813
-3.0,-35.0,-14.0,-1.0,-3.0,-2.0,-2.0,2.0,0.19626544633666332,0.00593171783337193,0.07149435982744601,0.4937715944282745,0.1132911300761921,0.45584993481612057
0.0,-3.0,1.0,-2.0,0.0,-1.0,0.0,-3.0,0.19743992754285,0.03889785779410476,0.08362991775528106,0.4981247712073669,0.1606755075766338,0.4731060835408123
-3.0,-17.0,-11.0,0.0,-1.0,1.0,-3.0,-3.0,0.20820219288534259,0.07662946801148776,0.09917632235093349,0.4966406163116052,0.20464770912196223,0.4868589326051725
1.0,4.0,18.0,2.0,0.0,-1.0,-3.0,0.0,0.22518243933248172,0.10728276204011236,0.11402370445365106,0.48970783721179834,0.23427766894701885,0.4943366023132515
-3.0,22.0,-1.0,0.0,0.0,-2.0,0.0,-2.0,0.24414530274577495,0.12058914862070197,0.12446710077941825,0.4783061037397935,0.24295835221246834,0.49452144263526143
-2.0,-5.0,-2.0,-1.0,-3.0,2.0,-1.0,1.0,0.2617079810588132,0.11169676675738138,0.12841384143480838,0.46373639022025304,0.2297125994202274,0.48795971735913884
-1.0,1.0,-4.0,-1.0,0.0,-3.0,0.0,-2.0,0.27646004060926566,0.08288641278992301,0.12612623261350364,0.44735548916622025,0.19891433213164716,0.47639567090344126
-1.0,-1.0,-1.0,-1.0,2.0,-1.0,-2.0,-1.0,0.2890703356910478,0.04267536265759353,0.1201211880398721,0.43034121238301465,0.15881585561353231,0.46235043854513813
-10.0,-86.0,-9.0,-1.0,1.0,-1.0,-2.0,-5.0,0.19626544633666332,0.00593171783337193,0.07149435982744601,0.4937715944282745,0.1132911300761921,0.45584993481612057
2.0,14.0,2.0,-5.0,-2.0,-3.0,0.0,0.0,0.19743992754285,0.03889785779410476,0.08362991775528106,0.4981247712073669,0.1606755075766338,0.4731060835408123
-5.0,-5.0,-4.0,-3.0,-1.0,1.0,2.0,0.0,0.20820219288534259,0.07662946801148776,0.09917632235093349,0.4966406163116052,0.20464770912196223,0.4868589326051725
-1.0,-3.0,-4.0,-2.0,0.0,0.0,-1.0,0.0,0.22518243933248172,0.10728276204011236,0.11402370445365106,0.48970783721179834,0.23427766894701885,0.4943366023132515
-2.0,-1.0,-4.0,-2.0,3.0,-2.0,-1.0,0.0,0.24414530274577495,0.12058914862070197,0.12446710077941825,0.4783061037397935,0.24295835221246834,0.49452144263526143
0.0,5.0,-1.0,1.0,-2.0,0.0,-1.0,-1.0,0.2617079810588132,0.11169676675738138,0.12841384143480838,0.46373639022025304,0.2297125994202274,0.48795971735913884
-2.0,-2.0,-7.0,-1.0,-3.0,-3.0,1.0,-1.0,0.27646004060926566,0.08288641278992301,0.12612623261350364,0.44735548916622025,0.19891433213164716,0.47639567090344126
3.0,1.0,-1.0,2.0,-2.0,-2.0,2.0,-1.0,0.2890703356910478,0.04267536265759353,0.1201211880398721,0.43034121238301465,0.15881585561353231,0.46235043854513813
1.0,6.0,2.0,1.0,1.0,-1.0,-4.0,-1.0,0.19743992754285,0.03889785779410476,0.08362991775528106,0.4981247712073669,0.1606755075766338,0.4731060835408123
-4.0,-6.0,-6.0,-2.0,-6.0,0.0,-3.0,-1.0,0.20820219288534259,0.07662946801148776,0.09917632235093349,0.4966406163116052,0.20464770912196223,0.4868589326051725
-2.0,9.0,-6.0,-3.0,-3.0,-1.0,-1.0,-3.0,0.22518243933248172,0.10728276204011236,0.11402370445365106,0.48970783721179834,0.23427766894701885,0.4943366023132515
1.0,-17.0,-4.0,-1.0,0.0,-1.0,1.0,-2.0,0.24414530274577495,0.12058914862070197,0.12446710077941825,0.4783061037397935,0.24295835221246834,0.49452144263526143
0.0,0.0,-1.0,-2.0,0.0,0.0,-2.0,0.0,0.2617079810588132,0.11169676675738138,0.12841384143480838,0.46373639022025304,0.2297125994202274,0.48795971735913884
-3.0,8.0,6.0,-2.0,0.0,0.0,-4.0,-3.0,0.27646004060926566,0.08288641278992301,0.12612623261350364,0.44735548916622025,0.19891433213164716,0.47639567090344126
-3.0,-5.0,-3.0,-2.0,0.0,3.0,0.0,1.0,0.2890703356910478,0.04267536265759353,0.1201211880398721,0.43034121238301465,0.15881585561353231,0.46235043854513813
-4.0,-13.0,0.0,-5.0,-3.0,0.0,-3.0,-1.0,0.20820219288534259,0.07662946801148776,0.09917632235093349,0.4966406163116052,0.20464770912196223,0.4868589326051725
1.0,2.0,6.0,0.0,-1.0,-1.0,1.0,2.0,0.22518243933248172,0.10728276204011236,0.11402370445365106,0.48970783721179834,0.23427766894701885,0.4943366023132515
0.0,0.0,-1.0,-3.0,-2.0,0.0,-4.0,0.0,0.24414530274577495,0.12058914862070197,0.12446710077941825,0.4783061037397935,0.24295835221246834,0.49452144263526143
0.0,-1.0,-1.0,-1.0,0.0,0.0,-3.0,0.0,0.2617079810588132,0.11169676675738138,0.12841384143480838,0.46373639022025304,0.2297125994202274,0.48795971735913884
3.0,3.0,1.0,0.0,0.0,0.0,-1.0,-2.0,0.27646004060926566,0.08288641278992301,0.12612623261350364,0.44735548916622025,0.19891433213164716,0.47639567090344126
2.0,3.0,1.0,-2.0,-4.0,-2.0,-3.0,2.0,0.2890703356910478,0.04267536265759353,0.1201211880398721,0.43034121238301465,0.15881585561353231,0.46235043854513813
2.0,-47.0,-10.0,0.0,1.0,-3.0,-2.0,-1.0,0.25185143215478134,0.08867966297351945,0.050512728504948534,0.4646480901219748,0.01360806134824638,0.36755191303738355
-3.0,8.0,0.0,-1.0,1.0,-2.0,1.0,-1.0,0.20563964241258903,-0.013047424193831536,0.06608675634298755,0.4841789481542588,0.07493217318566686,0.43933257600387166
-1.0,2.0,2.0,1.0,-1.0,-1.0,-2.0,-1.0,0.19626544633666332,0.00593171783337193,0.07149435982744601,0.4937715944282745,0.1132911300761921,0.45584993481612057
2.0,2.0,-1.0,-2.0,1.0,-1.0,0.0,-1.0,0.19743992754285,0.03889785779410476,0.08362991775528106,0.4981247712073669,0.1606755075766338,0.4731060835408123
-2.0,-6.0,-1.0,0.0,1.0,-1.0,1.0,-1.0,0.20820219288534259,0.07662946801148776,0.09917632235093349,0.4966406163116052,0.20464770912196223,0.4868589326051725
-4.0,-10.0,-18.0,-4.0,-2.0,-2.0,2.0,1.0,0.22518243933248172,0.10728276204011236,0.11402370445365106,0.48970783721179834,0.23427766894701885,0.4943366023132515
-2.0,2.0,1.0,1.0,-1.0,-2.0,-3.0,-1.0,0.24414530274577495,0.12058914862070197,0.12446710077941825,0.4783061037397935,0.24295835221246834,0.49452144263526143
-3.0,-2.0,-1.0,-1.0,-1.0,2.0,1.0,-1.0,0.2617079810588132,0.11169676675738138,0.12841384143480838,0.46373639022025304,0.2297125994202274,0.48795971735913884
1.0,-3.0,2.0,0.0,0.0,-1.0,-2.0,0.0,0.27646004060926566,0.08288641278992301,0.12612623261350364,0.44735548916622025,0.19891433213164716,0.47639567090344126
0.0,1.0,-1.0,-1.0,0.0,-2.0,-3.0,-2.0,0.2890703356910478,0.04267536265759353,0.1201211880398721,0.43034121238301465,0.15881585561353231,0.46235043854513813
1.0,-4.0,1.0,0.0,-2.0,0.0,-1.0,1.0,0.19626544633666332,0.00593171783337193,0.07149435982744601,0.4937715944282745,0.1132911300761921,0.45584993481612057
0.0,-5.0,0.0,0.0,1.0,0.0,-2.0,-1.0,0.19743992754285,0.03889785779410476,0.08362991775528106,0.4981247712073669,0.1606755075766338,0.4731060835408123
0.0,-9.0,-4.0,-2.0,-1.0,-4.0,0.0,1.0,0.20820219288534259,0.07662946801148776,0.09917632235093349,0.4966406163116052,0.20464770912196223,0.4868589326051725
2.0,22.0,1.0,1.0,3.0,0.0,1.0,-2.0,0.22518243933248172,0.10728276204011236,0.11402370445365106,0.48970783721179834,0.23427766894701885,0.4943366023132515
0.0,27.0,4.0,0.0,-3.0,-2.0,-2.0,-1.0,0.24414530274577495,0.12058914862070197,0.12446710077941825,0.4783061037397935,0.24295835221246834,0.49452144263526143
2.0,-10.0,8.0,-2.0,-3.0,-4.0,1.0,-1.0,0.2617079810588132,0.11169676675738138,0.12841384143480838,0.46373639022025304,0.2297125994202274,0.48795971735913884
-1.0,-21.0,-11.0,-3.0,-2.0,-1.0,-2.0,-1.0,0.27646004060926566,0.08288641278992301,0.12612623261350364,0.44735548916622025,0.19891433213164716,0.47639567090344126
2.0,3.0,13.0,1.0,-1.0,1.0,-1.0,-1.0,0.2890703356910478,0.04267536265759353,0.1201211880398721,0.43034121238301465,0.15881585561353231,0.46235043854513813
3.0,-1.0,-3.0,1.0,-3.0,1.0,-2.0,0.0,0.19626544633666332,0.00593171783337193,0.07149435982744601,0.4937715944282745,0.1132911300761921,0.45584993481612057
0.0,9.0,-1.0,0.0,-1.0,0.0,-2.0,-2.0,0.19743992754285,0.03889785779410476,0.08362991775528106,0.4981247712073669,0.1606755075766338,0.4731060835408123
-4.0,2.0,-3.0,1.0,-3.0,-3.0,-1.0,2.0,0.20820219288534259,0.07662946801148776,0.09917632235093349,0.4966406163116052,0.20464770912196223,0.4868589326051725
-1.0,-3.0,-1.0,-2.0,-2.0,-1.0,-1.0,0.0,0.22518243933248172,0.10728276204011236,0.11402370445365106,0.48970783721179834,0.23427766894701885,0.4943366023132515
-5.0,-9.0,-10.0,0.0,0.0,-3.0,-4.0,0.0,0.24414530274577495,0.12058914862070197,0.12446710077941825,0.4783061037397935,0.24295835221246834,0.49452144263526143
-1.0,-9.0,-6.0,-4.0,2.0,-3.0,-4.0,0.0,0.2617079810588132,0.11169676675738138,0.12841384143480838,0.46373639022025304,0.2297125994202274,0.48795971735913884
-1.0,0.0,0.0,1.0,-1.0,-2.0,-2.0,-2.0,0.27646004060926566,0.08288641278992301,0.12612623261350364,0.44735548916622025,0.19891433213164716,0.47639567090344126
-1.0,4.0,2.0,1.0,-1.0,-2.0,-1.0,1.0,0.2890703356910478,0.04267536265759353,0.1201211880398721,0.43034121238301465,0.15881585561353231,0.46235043854513813
-2.0,-71.0,-37.0,0.0,-2.0,-4.0,-6.0,-3.0,0.20820219288534259,0.07662946801148776,0.09917632235093349,0.4966406163116052,0.20464770912196223,0.4868589326051725
-1.0,73.0,8.0,-2.0,-4.0,-3.0,-2.0,-6.0,0.22518243933248172,0.10728276204011236,0.11402370445365106,0.48970783721179834,0.23427766894701885,0.4943366023132515
2.0,-37.0,-1.0,-1.0,2.0,-1.0,-1.0,-1.0,0.24414530274577495,0.12058914862070197,0.12446710077941825,0.4783061037397935,0.24295835221246834,0.49452144263526143
0.0,-4.0,-1.0,0.0,4.0,-3.0,-1.0,-1.0,0.2617079810588132,0.11169676675738138,0.12841384143480838,0.46373639022025304,0.2297125994202274,0.48795971735913884
2.0,11.0,-1.0,2.0,1.0,1.0,1.0,1.0,0.27646004060926566,0.08288641278992301,0.12612623261350364,0.44735548916622025,0.19891433213164716,0.47639567090344126
-2.0,-10.0,-5.0,-2.0,-1.0,0.0,-2.0,-2.0,0.2890703356910478,0.04267536265759353,0.1201211880398721,0.43034121238301465,0.15881585561353231,0.46235043854513813
-1.0,5.0,3.0,1.0,0.0,-2.0,1.0,2.0,0.20563964241258903,-0.013047424193831536,0.06608675634298755,0.4841789481542588,0.07493217318566686,0.43933257600387166
-3.0,-2.0,-4.0,-4.0,1.0,-3.0,2.0,-2.0,0.19626544633666332,0.00593171783337193,0.07149435982744601,0.4937715944282745,0.1132911300761921,0.45584993481612057
-3.0,2.0,11.0,-4.0,-1.0,1.0,0.0,0.0,0.19743992754285,0.03889785779410476,0.08362991775528106,0.4981247712073669,0.1606755075766338,0.4731060835408123
2.0,3.0,-7.0,1.0,1.0,0.0,-1.0,1.0,0.20820219288534259,0.07662946801148776,0.09917632235093349,0.4966406163116052,0.20464770912196223,0.4868589326051725
-1.0,17.0,-7.0,-2.0,-2.0,-2.0,-2.0,-4.0,0.22518243933248172,0.10728276204011236,0.11402370445365106,0.48970783721179834,0.23427766894701885,0.4943366023132515
0.0,3.0,-2.0,0.0,-2.0,-4.0,-1.0,1.0,0.24414530274577495,0.12058914862070197,0.12446710077941825,0.4783061037397935,0.24295835221246834,0.49452144263526143
-2.0,0.0,-1.0,0.0,0.0,0.0,-1.0,-5.0,0.2617079810588132,0.11169676675738138,0.12841384143480838,0.46373639022025304,0.2297125994202274,0.48795971735913884
1.0,7.0,-4.0,-2.0,-1.0,-2.0,-1.0,0.0,0.27646004060926566,0.08288641278992301,0.12612623261350364,0.44735548916622025,0.19891433213164716,0.47639567090344126
-1.0,-4.0,1.0,0.0,1.0,-2.0,3.0,-2.0,0.2890703356910478,0.04267536265759353,0.1201211880398721,0.43034121238301465,0.15881585561353231,0.46235043854513813
-1.0,25.0,-2.0,-1.0,1.0,2.0,3.0,-1.0,0.20563964241258903,-0.013047424193831536,0.06608675634298755,0.4841789481542588,0.07493217318566686,0.43933257600387166
0.0,3.0,-4.0,-2.0,-3.0,-3.0,0.0,1.0,0.19626544633666332,0.00593171783337193,0.07149435982744601,0.4937715944282745,0.1132911300761921,0.45584993481612057
-1.0,0.0,-3.0,0.0,-1.0,1.0,0.0,1.0,0.19743992754285,0.03889785779410476,0.08362991775528106,0.4981247712073669,0.1606755075766338,0.4731060835408123
1.0,-4.0,-4.0,-1.0,1.0,-2.0,0.0,1.0,0.20820219288534259,0.07662946801148776,0.09917632235093349,0.4966406163116052,0.20464770912196223,0.4868589326051725
0.0,2.0,19.0,-1.0,-1.0,-3.0,-3.0,-1.0,0.22518243933248172,0.10728276204011236,0.11402370445365106,0.48970783721179834,0.23427766894701885,0.4943366023132515
0.0,-3.0,-4.0,-1.0,3.0,-1.0,-1.0,2.0,0.24414530274577495,0.12058914862070197,0.12446710077941825,0.4783061037397935,0.24295835221246834,0.49452144263526143
-2.0,-7.0,-5.0,-1.0,0.0,-1.0,-1.0,-2.0,0.2617079810588132,0.11169676675738138,0.12841384143480838,0.46373639022025304,0.2297125994202274,0.48795971735913884
1.0,-4.0,-4.0,0.0,-3.0,-3.0,-2.0,0.0,0.27646004060926566,0.08288641278992301,0.12612623261350364,0.44735548916622025,0.19891433213164716,0.47639567090344126
0.0,2.0,-1.0,-3.0,1.0,-1.0,-1.0,2.0,0.2890703356910478,0.04267536265759353,0.1201211880398721,0.43034121238301465,0.15881585561353231,0.46235043854513813
-3.0,-4.0,-2.0,1.0,1.0,1.0,-1.0,-4.0,0.20563964241258903,-0.013047424193831536,0.06608675634298755,0.4841789481542588,0.07493217318566686,0.43933257600387166
1.0,48.0,4.0,-1.0,-3.0,0.0,-1.0,2.0,0.19626544633666332,0.00593171783337193,0.07149435982744601,0.4937715944282745,0.1132911300761921,0.45584993481612057
-1.0,-12.0,-5.0,3.0,-3.0,-2.0,-1.0,0.0,0.19743992754285,0.03889785779410476,0.08362991775528106,0.4981247712073669,0.1606755075766338,0.4731060835408123
2.0,-5.0,-1.0,1.0,0.0,0.0,0.0,0.0,0.20820219288534259,0.07662946801148776,0.09917632235093349,0.4966406163116052,0.20464770912196223,0.4868589326051725
-3.0,-5.0,3.0,1.0,-1.0,-3.0,-1.0,-3.0,0.22518243933248172,0.10728276204011236,0.11402370445365106,0.48970783721179834,0.23427766894701885,0.4943366023132515
-2.0,-1.0,-16.0,-2.0,4.0,-1.0,-3.0,-3.0,0.24414530274577495,0.12058914862070197,0.12446710077941825,0.4783061037397935,0.24295835221246834,0.49452144263526143
-1.0,-8.0,11.0,0.0,-1.0,0.0,-1.0,-2.0,0.2617079810588132,0.11169676675738138,0.12841384143480838,0.46373639022025304,0.2297125994202274,0.48795971735913884
0.0,-7.0,0.0,-3.0,0.0,-2.0,0.0,1.0,0.27646004060926566,0.08288641278992301,0.12612623261350364,0.44735548916622025,0.19891433213164716,0.47639567090344126
-2.0,6.0,1.0,-1.0,-2.0,-2.0,-3.0,-3.0,0.2890703356910478,0.04267536265759353,0.1201211880398721,0.43034121238301465,0.15881585561353231,0.46235043854513813
-4.0,-2.0,-16.0,1.0,-4.0,-1.0,-2.0,-3.0,0.25185143215478134,0.08867966297351945,0.050512728504948534,0.4646480901219748,0.01360806134824638,0.36755191303738355
-1.0,-5.0,15.0,0.0,-1.0,0.0,-1.0,-1.0,0.20563964241258903,-0.013047424193831536,0.06608675634298755,0.4841789481542588,0.07493217318566686,0.43933257600387166
-1.0,-35.0,1.0,0.0,-1.0,1.0,-1.0,-2.0,0.19626544633666332,0.00593171783337193,0.07149435982744601,0.4937715944282745,0.1132911300761921,0.45584993481612057
1.0,6.0,-1.0,0.0,1.0,0.0,-3.0,1.0,0.19743992754285,0.03889785779410476,0.08362991775528106,0.4981247712073669,0.1606755075766338,0.4731060835408123
-1.0,2.0,-4.0,0.0,0.0,-1.0,-2.0,1.0,0.20820219288534259,0.07662946801148776,0.09917632235093349,0.4966406163116052,0.20464770912196223,0.4868589326051725
-1.0,4.0,-2.0,0.0,0.0,-1.0,-2.0,-2.0,0.22518243933248172,0.10728276204011236,0.11402370445365106,0.48970783721179834,0.23427766894701885,0.4943366023132515
-2.0,-2.0,-1.0,-1.0,0.0,-1.0,1.0,-1.0,0.24414530274577495,0.12058914862070197,0.12446710077941825,0.4783061037397935,0.24295835221246834,0.49452144263526143
-2.0,-1.0,-2.0,-4.0,-1.0,-3.0,0.0,3.0,0.2617079810588132,0.11169676675738138,0.12841384143480838,0.46373639022025304,0.2297125994202274,0.48795971735913884
-3.0,-6.0,-4.0,-1.0,0.0,0.0,0.0,-1.0,0.27646004060926566,0.08288641278992301,0.12612623261350364,0.44735548916622025,0.19891433213164716,0.47639567090344126
-1.0,3.0,2.0,0.0,-2.0,-2.0,0.0,-2.0,0.2890703356910478,0.04267536265759353,0.1201211880398721,0.43034121238301465,0.15881585561353231,0.46235043854513813
-1.0,2.0,-3.0,1.0,-1.0,-2.0,-2.0,0.0,0.20563964241258903,-0.013047424193831536,0.06608675634298755,0.4841789481542588,0.07493217318566686,0.43933257600387166
0.0,-3.0,-3.0,2.0,0.0,0.0,-2.0,-1.0,0.19626544633666332,0.00593171783337193,0.07149435982744601,0.4937715944282745,0.1132911300761921,0.45584993481612057
-1.0,3.0,-3.0,0.0,1.0,-1.0,-1.0,1.0,0.19743992754285,0.03889785779410476,0.08362991775528106,0.4981247712073669,0.1606755075766338,0.4731060835408123
0.0,-34.0,-3.0,0.0,-4.0,-2.0,-1.0,-5.0,0.20820219288534259,0.07662946801148776,0.09917632235093349,0.4966406163116052,0.20464770912196223,0.4868589326051725
0.0,7.0,-1.0,1.0,-3.0,-1.0,-1.0,2.0,0.22518243933248172,0.10728276204011236,0.11402370445365106,0.48970783721179834,0.23427766894701885,0.4943366023132515
0.0,3.0,-2.0,-3.0,-1.0,1.0,0.0,0.0,0.24414530274577495,0.12058914862070197,0.12446710077941825,0.4783061037397935,0.24295835221246834,0.49452144263526143
-5.0,2.0,21.0,-3.0,-3.0,-1.0,-3.0,-1.0,0.2617079810588132,0.11169676675738138,0.12841384143480838,0.46373639022025304,0.2297125994202274,0.48795971735913884
-1.0,17.0,-10.0,-1.0,0.0,-2.0,-3.0,-2.0,0.27646004060926566,0.08288641278992301,0.12612623261350364,0.44735548916622025,0.19891433213164716,0.47639567090344126
-4.0,3.0,18.0,-1.0,-2.0,-1.0,0.0,0.0,0.2890703356910478,0.04267536265759353,0.1201211880398721,0.43034121238301465,0.15881585561353231,0.46235043854513813
0.0,0.0,1.0,-1.0,1.0,-2.0,-6.0,2.0,0.20563964241258903,-0.013047424193831536,0.06608675634298755,0.4841789481542588,0.07493217318566686,0.43933257600387166
-3.0,3.0,-48.0,-4.0,-2.0,0.0,0.0,-2.0,0.19626544633666332,0.00593171783337193,0.07149435982744601,0.4937715944282745,0.1132911300761921,0.45584993481612057
-7.0,-12.0,3.0,0.0,-2.0,1.0,-4.0,-3.0,0.19743992754285,0.03889785779410476,0.08362991775528106,0.4981247712073669,0.1606755075766338,0.4731060835408123
0.0,-12.0,-4.0,-3.0,-3.0,-2.0,-2.0,-1.0,0.20820219288534259,0.07662946801148776,0.09917632235093349,0.4966406163116052,0.20464770912196223,0.4868589326051725
-1.0,11.0,1.0,-2.0,1.0,0.0,1.0,-1.0,0.22518243933248172,0.10728276204011236,0.11402370445365106,0.48970783721179834,0.23427766894701885,0.4943366023132515
1.0,3.0,0.0,-1.0,-2.0,0.0,1.0,0.0,0.24414530274577495,0.12058914862070197,0.12446710077941825,0.4783061037397935,0.24295835221246834,0.49452144263526143
-1.0,2.0,-3.0,1.0,-1.0,-2.0,-2.0,0.0,0.2617079810588132,0.11169676675738138,0.12841384143480838,0.46373639022025304,0.2297125994202274,0.48795971735913884
0.0,-3.0,-3.0,2.0,0.0,0.0,-2.0,-1.0,0.27646004060926566,0.08288641278992301,0.12612623261350364,0.44735548916622025,0.19891433213164716,0.47639567090344126
-1.0,3.0,-3.0,0.0,1.0,-1.0,-1.0,1.0,0.2890703356910478,0.04267536265759353,0.1201211880398721,0.43034121238301465,0.15881585561353231,0.46235043854513813
-4.0,-6.0,0.0,-4.0,-1.0,-2.0,-3.0,-1.0,0.19626544633666332,0.00593171783337193,0.07149435982744601,0.4937715944282745,0.1132911300761921,0.45584993481612057
-3.0,-5.0,2.0,2.0,-2.0,0.0,-2.0,-4.0,0.19743992754285,0.03889785779410476,0.08362991775528106,0.4981247712073669,0.1606755075766338,0.4731060835408123
1.0,0.0,1.0,-1.0,0.0,-4.0,-1.0,-1.0,0.20820219288534259,0.07662946801148776,0.09917632235093349,0.4966406163116052,0.20464770912196223,0.4868589326051725
-3.0,8.0,-8.0,-3.0,0.0,-1.0,2.0,-3.0,0.22518243933248172,0.10728276204011236,0.11402370445365106,0.48970783721179834,0.23427766894701885,0.4943366023132515
-1.0,-2.0,10.0,-2.0,-1.0,-1.0,0.0,-1.0,0.24414530274577495,0.12058914862070197,0.12446710077941825,0.4783061037397935,0.24295835221246834,0.49452144263526143
-5.0,-3.0,-6.0,0.0,-1.0,-1.0,-3.0,-3.0,0.2617079810588132,0.11169676675738138,0.12841384143480838,0.46373639022025304,0.2297125994202274,0.48795971735913884
0.0,3.0,16.0,0.0,-3.0,-2.0,0.0,0.0,0.27646004060926566,0.08288641278992301,0.12612623261350364,0.44735548916622025,0.19891433213164716,0.47639567090344126
-3.0,4.0,-1.0,0.0,1.0,-2.0,-1.0,-4.0,0.2890703356910478,0.04267536265759353,0.1201211880398721,0.43034121238301465,0.15881585561353231,0.46235043854513813
1.0,1.0,8.0,1.0,2.0,-1.0,-2.0,0.0,0.19626544633666332,0.00593171783337193,0.07149435982744601,0.4937715944282745,0.1132911300761921,0.45584993481612057
-2.0,1.0,0.0,-1.0,-1.0,-3.0,1.0,-1.0,0.19743992754285,0.03889785779410476,0.08362991775528106,0.4981247712073669,0.1606755075766338,0.4731060835408123
1.0,-8.0,-3.0,-4.0,-1.0,0.0,-1.0,1.0,0.20820219288534259,0.07662946801148776,0.09917632235093349,0.4966406163116052,0.20464770912196223,0.4868589326051725
0.0,1.0,-1.0,0.0,-1.0,1.0,-1.0,-2.0,0.22518243933248172,0.10728276204011236,0.11402370445365106,0.48970783721179834,0.23427766894701885,0.4943366023132515
-3.0,-6.0,-5.0,-1.0,-3.0,-2.0,-3.0,-1.0,0.24414530274577495,0.12058914862070197,0.12446710077941825,0.4783061037397935,0.24295835221246834,0.49452144263526143
-1.0,-24.0,0.0,0.0,2.0,1.0,1.0,-1.0,0.2617079810588132,0.11169676675738138,0.12841384143480838,0.46373639022025304,0.2297125994202274,0.48795971735913884
3.0,38.0,3.0,-3.0,0.0,0.0,-2.0,-3.0,0.27646004060926566,0.08288641278992301,0.12612623261350364,0.44735548916622025,0.19891433213164716,0.47639567090344126
-2.0,-11.0,4.0,0.0,-1.0,-2.0,1.0,3.0,0.2890703356910478,0.04267536265759353,0.1201211880398721,0.43034121238301465,0.15881585561353231,0.46235043854513813
-1.0,-18.0,12.0,9.0,2.0,0.0,-3.0,-1.0,0.25185143215478134,0.08867966297351945,0.050512728504948534,0.4646480901219748,0.01360806134824638,0.36755191303738355
-8.0,-19.0,-5.0,-3.0,-3.0,-2.0,0.0,-2.0,0.20563964241258903,-0.013047424193831536,0.06608675634298755,0.4841789481542588,0.07493217318566686,0.43933257600387166
2.0,-2.0,1.0,3.0,-2.0,3.0,1.0,1.0,0.19626544633666332,0.00593171783337193,0.07149435982744601,0.4937715944282745,0.1132911300761921,0.45584993481612057
2.0,-1.0,2.0,0.0,1.0,-2.0,-1.0,0.0,0.19743992754285,0.03889785779410476,0.08362991775528106,0.4981247712073669,0.1606755075766338,0.4731060835408123
-5.0,5.0,4.0,1.0,-1.0,-3.0,-4.0,-2.0,0.20820219288534259,0.07662946801148776,0.09917632235093349,0.4966406163116052,0.20464770912196223,0.4868589326051725
-1.0,1.0,2.0,2.0,-1.0,-2.0,2.0,0.0,0.22518243933248172,0.10728276204011236,0.11402370445365106,0.48970783721179834,0.23427766894701885,0.4943366023132515
-2.0,2.0,-7.0,-5.0,0.0,-3.0,1.0,-3.0,0.24414530274577495,0.12058914862070197,0.12446710077941825,0.4783061037397935,0.24295835221246834,0.49452144263526143
-3.0,-21.0,-19.0,-1.0,0.0,-1.0,0.0,1.0,0.2617079810588132,0.11169676675738138,0.12841384143480838,0.46373639022025304,0.2297125994202274,0.48795971735913884
-1.0,35.0,13.0,2.0,0.0,0.0,3.0,0.0,0.27646004060926566,0.08288641278992301,0.12612623261350364,0.44735548916622025,0.19891433213164716,0.47639567090344126
1.0,-3.0,2.0,-1.0,-1.0,-2.0,-2.0,-1.0,0.2890703356910478,0.04267536265759353,0.1201211880398721,0.43034121238301465,0.15881585561353231,0.46235043854513813
-1.0,12.0,-1.0,1.0,-3.0,0.0,-3.0,1.0,0.25185143215478134,0.08867966297351945,0.050512728504948534,0.4646480901219748,0.01360806134824638,0.36755191303738355
-2.0,-2.0,1.0,2.0,-1.0,0.0,0.0,-2.0,0.20563964241258903,-0.013047424193831536,0.06608675634298755,0.4841789481542588,0.07493217318566686,0.43933257600387166
-2.0,9.0,5.0,0.0,-1.0,-2.0,-2.0,0.0,0.19626544633666332,0.00593171783337193,0.07149435982744601,0.4937715944282745,0.1132911300761921,0.45584993481612057
0.0,1.0,0.0,-4.0,0.0,0.0,-1.0,1.0,0.19743992754285,0.03889785779410476,0.08362991775528106,0.4981247712073669,0.1606755075766338,0.4731060835408123
-2.0,0.0,6.0,3.0,3.0,0.0,-1.0,-3.0,0.20820219288534259,0.07662946801148776,0.09917632235093349,0.4966406163116052,0.20464770912196223,0.4868589326051725
-2.0,2.0,20.0,-1.0,-1.0,-3.0,1.0,-1.0,0.22518243933248172,0.10728276204011236,0.11402370445365106,0.48970783721179834,0.23427766894701885,0.4943366023132515
2.0,-14.0,-20.0,-1.0,0.0,-1.0,-3.0,-1.0,0.24414530274577495,0.12058914862070197,0.12446710077941825,0.4783061037397935,0.24295835221246834,0.49452144263526143
4.0,104.0,-1.0,-10.0,0.0,-4.0,-3.0,-1.0,0.2617079810588132,0.11169676675738138,0.12841384143480838,0.46373639022025304,0.2297125994202274,0.48795971735913884
-1.0,-18.0,12.0,9.0,2.0,0.0,-3.0,-1.0,0.27646004060926566,0.08288641278992301,0.12612623261350364,0.44735548916622025,0.19891433213164716,0.47639567090344126
-8.0,-19.0,-5.0,-3.0,-3.0,-2.0,0.0,-2.0,0.2890703356910478,0.04267536265759353,0.1201211880398721,0.43034121238301465,0.15881585561353231,0.46235043854513813
1.0,-3.0,-5.0,1.0,-1.0,-5.0,-3.0,0.0,0.20563964241258903,-0.013047424193831536,0.06608675634298755,0.4841789481542588,0.07493217318566686,0.43933257600387166
0.0,10.0,-2.0,-2.0,-2.0,-4.0,-2.0,-2.0,0.19626544633666332,0.00593171783337193,0.07149435982744601,0.4937715944282745,0.1132911300761921,0.45584993481612057
2.0,-8.0,-1.0,-4.0,1.0,0.0,-2.0,-1.0,0.19743992754285,0.03889785779410476,0.08362991775528106,0.4981247712073669,0.1606755075766338,0.4731060835408123
0.0,-4.0,-3.0,1.0,-6.0,-3.0,0.0,-1.0,0.20820219288534259,0.07662946801148776,0.09917632235093349,0.4966406163116052,0.20464770912196223,0.4868589326051725
-2.0,15.0,-3.0,0.0,2.0,-2.0,-1.0,0.0,0.22518243933248172,0.10728276204011236,0.11402370445365106,0.48970783721179834,0.23427766894701885,0.4943366023132515
0.0,0.0,0.0,2.0,-1.0,-1.0,-3.0,-2.0,0.24414530274577495,0.12058914862070197,0.12446710077941825,0.4783061037397935,0.24295835221246834,0.49452144263526143
0.0,-12.0,-4.0,-2.0,-2.0,-1.0,-2.0,-1.0,0.2617079810588132,0.11169676675738138,0.12841384143480838,0.46373639022025304,0.2297125994202274,0.48795971735913884
0.0,-1.0,0.0,-4.0,-3.0,1.0,0.0,-1.0,0.27646004060926566,0.08288641278992301,0.12612623261350364,0.44735548916622025,0.19891433213164716,0.47639567090344126
1.0,-3.0,1.0,-1.0,0.0,2.0,1.0,-1.0,0.2890703356910478,0.04267536265759353,0.1201211880398721,0.43034121238301465,0.15881585561353231,0.46235043854513813
-1.0,-17.0,-1.0,0.0,0.0,-3.0,-2.0,1.0,0.19626544633666332,0.00593171783337193,0.07149435982744601,0.4937715944282745,0.1132911300761921,0.45584993481612057
-1.0,4.0,3.0,-1.0,-3.0,-1.0,-1.0,-1.0,0.19743992754285,0.03889785779410476,0.08362991775528106,0.4981247712073669,0.1606755075766338,0.4731060835408123
-1.0,-7.0,0.0,-1.0,-3.0,-1.0,-1.0,-2.0,0.20820219288534259,0.07662946801148776,0.09917632235093349,0.4966406163116052,0.20464770912196223,0.4868589326051725
-3.0,-13.0,-25.0,-1.0,-2.0,-3.0,-7.0,-1.0,0.22518243933248172,0.10728276204011236,0.11402370445365106,0.48970783721179834,0.23427766894701885,0.4943366023132515
3.0,3.0,3.0,0.0,-1.0,-2.0,0.0,3.0,0.24414530274577495,0.12058914862070197,0.12446710077941825,0.4783061037397935,0.24295835221246834,0.49452144263526143
2.0,-4.0,-1.0,-1.0,2.0,3.0,-1.0,0.0,0.2617079810588132,0.11169676675738138,0.12841384143480838,0.46373639022025304,0.2297125994202274,0.48795971735913884
-2.0,1.0,-1.0,-1.0,-3.0,-2.0,-1.0,1.0,0.27646004060926566,0.08288641278992301,0.12612623261350364,0.44735548916622025,0.19891433213164716,0.47639567090344126
-1.0,-5.0,3.0,-2.0,1.0,-2.0,-2.0,-3.0,0.2890703356910478,0.04267536265759353,0.1201211880398721,0.43034121238301465,0.15881585561353231,0.46235043854513813
-2.0,5.0,5.0,0.0,-3.0,-3.0,-1.0,-1.0,0.25185143215478134,0.08867966297351945,0.050512728504948534,0.4646480901219748,0.01360806134824638,0.36755191303738355
-4.0,-7.0,-3.0,-1.0,-5.0,0.0,-4.0,-4.0,0.20563964241258903,-0.013047424193831536,0.06608675634298755,0.4841789481542588,0.07493217318566686,0.43933257600387166
-3.0,-16.0,-3.0,0.0,-3.0,-1.0,-1.0,-1.0,0.19626544633666332,0.00593171783337193,0.07149435982744601,0.4937715944282745,0.1132911300761921,0.45584993481612057
-1.0,11.0,1.0,-3.0,-1.0,0.0,-2.0,-1.0,0.19743992754285,0.03889785779410476,0.08362991775528106,0.4981247712073669,0.1606755075766338,0.4731060835408123
-1.0,-17.0,-1.0,0.0,0.0,-3.0,-2.0,1.0,0.20820219288534259,0.07662946801148776,0.09917632235093349,0.4966406163116052,0.20464770912196223,0.4868589326051725
-1.0,4.0,3.0,-1.0,-3.0,-1.0,-1.0,-1.0,0.22518243933248172,0.10728276204011236,0.11402370445365106,0.48970783721179834,0.23427766894701885,0.4943366023132515
-1.0,-7.0,0.0,-1.0,-3.0,-1.0,-1.0,-2.0,0.24414530274577495,0.12058914862070197,0.12446710077941825,0.4783061037397935,0.24295835221246834,0.49452144263526143
-3.0,-13.0,-25.0,-1.0,-2.0,-3.0,-7.0,-1.0,0.2617079810588132,0.11169676675738138,0.12841384143480838,0.46373639022025304,0.2297125994202274,0.48795971735913884
3.0,3.0,3.0,0.0,-1.0,-2.0,0.0,3.0,0.27646004060926566,0.08288641278992301,0.12612623261350364,0.44735548916622025,0.19891433213164716,0.47639567090344126
2.0,-4.0,-1.0,-1.0,2.0,3.0,-1.0,0.0,0.2890703356910478,0.04267536265759353,0.1201211880398721,0.43034121238301465,0.15881585561353231,0.46235043854513813
-1.0,-2.0,1.0,-2.0,0.0,-2.0,1.0,-3.0,0.25185143215478134,0.08867966297351945,0.050512728504948534,0.4646480901219748,0.01360806134824638,0.36755191303738355
-4.0,-10.0,7.0,0.0,-1.0,-1.0,-2.0,-2.0,0.20563964241258903,-0.013047424193831536,0.06608675634298755,0.4841789481542588,0.07493217318566686,0.43933257600387166
1.0,12.0,0.0,-2.0,-1.0,-1.0,-1.0,1.0,0.19626544633666332,0.00593171783337193,0.07149435982744601,0.4937715944282745,0.1132911300761921,0.45584993481612057
-5.0,-12.0,-4.0,0.0,2.0,0.0,0.0,-2.0,0.19743992754285,0.03889785779410476,0.08362991775528106,0.4981247712073669,0.1606755075766338,0.4731060835408123
-3.0,-4.0,-4.0,1.0,0.0,1.0,-3.0,-1.0,0.20820219288534259,0.07662946801148776,0.09917632235093349,0.4966406163116052,0.20464770912196223,0.4868589326051725
0.0,7.0,-4.0,-3.0,-4.0,0.0,-1.0,-2.0,0.22518243933248172,0.10728276204011236,0.11402370445365106,0.48970783721179834,0.23427766894701885,0.4943366023132515
0.0,-7.0,0.0,-2.0,-4.0,0.0,2.0,0.0,0.24414530274577495,0.12058914862070197,0.12446710077941825,0.4783061037397935,0.24295835221246834,0.49452144263526143
0.0,-1.0,-6.0,0.0,-4.0,-1.0,-1.0,-1.0,0.2617079810588132,0.11169676675738138,0.12841384143480838,0.46373639022025304,0.2297125994202274,0.48795971735913884
0.0,-1.0,3.0,-2.0,-2.0,-2.0,-2.0,-2.0,0.27646004060926566,0.08288641278992301,0.12612623261350364,0.44735548916622025,0.19891433213164716,0.47639567090344126
2.0,-6.0,-4.0,-2.0,-4.0,1.0,-1.0,0.0,0.2890703356910478,0.04267536265759353,0.1201211880398721,0.43034121238301465,0.15881585561353231,0.46235043854513813
-5.0,-22.0,-9.0,0.0,-2.0,-2.0,1.0,-1.0,0.20563964241258903,-0.013047424193831536,0.06608675634298755,0.4841789481542588,0.07493217318566686,0.43933257600387166
0.0,40.0,2.0,1.0,0.0,-2.0,0.0,-4.0,0.19626544633666332,0.00593171783337193,0.07149435982744601,0.4937715944282745,0.1132911300761921,0.45584993481612057
3.0,1.0,-1.0,-1.0,-4.0,-3.0,0.0,0.0,0.19743992754285,0.03889785779410476,0.08362991775528106,0.4981247712073669,0.1606755075766338,0.4731060835408123
-4.0,-15.0,-3.0,-3.0,-2.0,-1.0,-2.0,-1.0,0.20820219288534259,0.07662946801148776,0.09917632235093349,0.4966406163116052,0.20464770912196223,0.4868589326051725
-1.0,6.0,-7.0,-5.0,-3.0,3.0,1.0,1.0,0.22518243933248172,0.10728276204011236,0.11402370445365106,0.48970783721179834,0.23427766894701885,0.4943366023132515
-1.0,0.0,0.0,1.0,-3.0,-4.0,-4.0,-1.0,0.24414530274577495,0.12058914862070197,0.12446710077941825,0.4783061037397935,0.24295835221246834,0.49452144263526143
4.0,-4.0,-6.0,-4.0,-3.0,0.0,-1.0,0.0,0.2617079810588132,0.11169676675738138,0.12841384143480838,0.46373639022025304,0.2297125994202274,0.48795971735913884
0.0,5.0,2.0,0.0,0.0,-1.0,-1.0,0.0,0.27646004060926566,0.08288641278992301,0.12612623261350364,0.44735548916622025,0.19891433213164716,0.47639567090344126
-1.0,3.0,5.0,0.0,-2.0,-1.0,0.0,0.0,0.2890703356910478,0.04267536265759353,0.1201211880398721,0.43034121238301465,0.15881585561353231,0.46235043854513813
-2.0,1.0,-2.0,-4.0,1.0,-2.0,-4.0,-4.0,0.20563964241258903,-0.013047424193831536,0.06608675634298755,0.4841789481542588,0.07493217318566686,0.43933257600387166
