Timestamps,channel_1,channel_2,channel_3,channel_4,channel_5,channel_6,channel_7,channel_8,ACC_X,ACC_Y,ACC_Z,GYR_X,GYR_Y,GYR_Z
14_12_54_104,-2.0,0.0,0.0,-1.0,-3.0,-2.0,-1.0,-1.0,0.953125,-0.1044921875,0.2216796875,-1.707317073170732,-0.30487804878048785,1.6463414634146343
14_12_54_104,2.0,0.0,-1.0,0.0,0.0,-3.0,0.0,1.0,0.96142578125,-0.11376953125,0.21630859375,-0.6707317073170732,-0.3658536585365854,0.7317073170731708
14_12_54_104,-2.0,-1.0,-2.0,-1.0,-1.0,1.0,1.0,1.0,0.96728515625,-0.1220703125,0.22265625,-0.30487804878048785,-0.6707317073170732,0.3658536585365854
14_12_54_104,-1.0,-1.0,-3.0,-3.0,-1.0,2.0,-2.0,0.0,0.95947265625,-0.1259765625,0.220703125,-0.5487804878048781,-0.6097560975609757,0.7317073170731708
14_12_54_104,-1.0,-1.0,-2.0,-1.0,0.0,-2.0,-3.0,0.0,0.9501953125,-0.123046875,0.2197265625,-0.24390243902439027,-0.3658536585365854,1.0365853658536586
14_12_54_104,-1.0,-2.0,-1.0,-1.0,-1.0,0.0,-2.0,-1.0,0.94677734375,-0.1162109375,0.224609375,-0.24390243902439027,-0.12195121951219513,0.7926829268292683
14_12_54_104,0.0,-5.0,0.0,-2.0,0.0,0.0,-1.0,0.0,0.0,0.0,0.0,0.0,0.0,0.0
14_12_54_104,2.0,2.0,-2.0,-3.0,1.0,0.0,-1.0,-2.0,0.0,0.0,0.0,0.0,0.0,0.0
14_12_54_104,-2.0,1.0,-1.0,-4.0,0.0,-1.0,0.0,-1.0,0.0,0.0,0.0,0.0,0.0,0.0
14_12_54_104,-2.0,-1.0,-1.0,-2.0,-1.0,-1.0,0.0,0.0,0.0,0.0,0.0,0.0,0.0,0.0
14_12_54_150,-2.0,1.0,-1.0,-4.0,1.0,1.0,-2.0,-2.0,0.95458984375,-0.115234375,0.216796875,-1.0975609756097562,-0.3658536585365854,2.1341463414634148
14_12_54_150,-1.0,-1.0,-4.0,-2.0,-4.0,-3.0,-2.0,0.0,0.953125,-0.1044921875,0.2216796875,-1.707317073170732,-0.30487804878048785,1.6463414634146343
14_12_54_150,0.0,2.0,-1.0,0.0,1.0,-2.0,-3.0,-1.0,0.96142578125,-0.11376953125,0.21630859375,-0.6707317073170732,-0.3658536585365854,0.7317073170731708
14_12_54_150,-1.0,-3.0,0.0,0.0,-1.0,1.0,-2.0,1.0,0.96728515625,-0.1220703125,0.22265625,-0.30487804878048785,-0.6707317073170732,0.3658536585365854
14_12_54_150,1.0,-1.0,1.0,-2.0,-1.0,-1.0,0.0,-1.0,0.95947265625,-0.1259765625,0.220703125,-0.5487804878048781,-0.6097560975609757,0.7317073170731708
14_12_54_150,-1.0,0.0,-2.0,0.0,0.0,-2.0,-2.0,-2.0,0.9501953125,-0.123046875,0.2197265625,-0.24390243902439027,-0.3658536585365854,1.0365853658536586
14_12_54_150,0.0,-1.0,-2.0,-5.0,-1.0,0.0,-1.0,-2.0,0.94677734375,-0.1162109375,0.224609375,-0.24390243902439027,-0.12195121951219513,0.7926829268292683
14_12_54_150,-1.0,1.0,1.0,-1.0,1.0,-1.0,-2.0,-1.0,0.0,0.0,0.0,0.0,0.0,0.0
14_12_54_150,1.0,-2.0,-3.0,-1.0,0.0,-1.0,-1.0,0.0,0.0,0.0,0.0,0.0,0.0,0.0
14_12_54_207,-1.0,-2.0,-3.0,-5.0,-5.0,-1.0,-2.0,3.0,0.955078125,-0.103515625,0.220703125,0.24390243902439027,-0.1829268292682927,1.6463414634146343
14_12_54_207,1.0,-2.0,-1.0,-3.0,-2.0,0.0,0.0,-1.0,0.955078125,-0.11767578125,0.21484375,2.073170731707317,0.12195121951219513,1.707317073170732
14_12_54_207,-1.0,-2.0,2.0,-2.0,2.0,0.0,-4.0,-2.0,0.958984375,-0.12255859375,0.21630859375,1.2195121951219514,-0.12195121951219513,1.8902439024390245
14_12_54_207,-3.0,-1.0,-1.0,-1.0,2.0,0.0,-2.0,-1.0,0.95458984375,-0.115234375,0.216796875,-1.0975609756097562,-0.3658536585365854,2.1341463414634148
14_12_54_207,0.0,-1.0,-2.0,0.0,1.0,0.0,0.0,-3.0,0.953125,-0.1044921875,0.2216796875,-1.707317073170732,-0.30487804878048785,1.6463414634146343
14_12_54_207,-1.0,-3.0,-3.0,1.0,-1.0,-3.0,0.0,1.0,0.96142578125,-0.11376953125,0.21630859375,-0.6707317073170732,-0.3658536585365854,0.7317073170731708
14_12_54_207,-1.0,-2.0,-1.0,-1.0,-1.0,0.0,-2.0,-1.0,0.96728515625,-0.1220703125,0.22265625,-0.30487804878048785,-0.6707317073170732,0.3658536585365854
14_12_54_207,-2.0,1.0,-3.0,-1.0,-1.0,0.0,0.0,2.0,0.95947265625,-0.1259765625,0.220703125,-0.5487804878048781,-0.6097560975609757,0.7317073170731708
14_12_54_207,1.0,0.0,-3.0,-2.0,1.0,0.0,1.0,0.0,0.9501953125,-0.123046875,0.2197265625,-0.24390243902439027,-0.3658536585365854,1.0365853658536586
14_12_54_260,-3.0,-3.0,-1.0,0.0,-1.0,-2.0,-1.0,-5.0,0.955078125,-0.103515625,0.220703125,0.24390243902439027,-0.1829268292682927,1.6463414634146343
14_12_54_260,-2.0,-1.0,-1.0,-4.0,-2.0,-1.0,-1.0,1.0,0.955078125,-0.11767578125,0.21484375,2.073170731707317,0.12195121951219513,1.707317073170732
14_12_54_260,-3.0,-2.0,2.0,0.0,-2.0,0.0,0.0,-2.0,0.958984375,-0.12255859375,0.21630859375,1.2195121951219514,-0.12195121951219513,1.8902439024390245
14_12_54_260,-2.0,-1.0,-1.0,-1.0,-3.0,0.0,-1.0,2.0,0.95458984375,-0.115234375,0.216796875,-1.0975609756097562,-0.3658536585365854,2.1341463414634148
14_12_54_260,1.0,1.0,0.0,2.0,-1.0,0.0,-3.0,-4.0,0.953125,-0.1044921875,0.2216796875,-1.707317073170732,-0.30487804878048785,1.6463414634146343
14_12_54_260,-1.0,-2.0,1.0,-3.0,0.0,1.0,0.0,-1.0,0.96142578125,-0.11376953125,0.21630859375,-0.6707317073170732,-0.3658536585365854,0.7317073170731708
14_12_54_260,1.0,0.0,-1.0,-1.0,-1.0,-2.0,-1.0,2.0,0.96728515625,-0.1220703125,0.22265625,-0.30487804878048785,-0.6707317073170732,0.3658536585365854
14_12_54_314,-3.0,-1.0,-2.0,-2.0,-3.0,0.0,0.0,-1.0,0.95751953125,-0.1005859375,0.21240234375,-0.6707317073170732,-0.3658536585365854,1.0975609756097562
14_12_54_314,4.0,-1.0,-1.0,-2.0,1.0,2.0,-2.0,-1.0,0.95849609375,-0.103515625,0.2119140625,0.426829268292683,-0.5487804878048781,1.1585365853658538
14_12_54_314,1.0,0.0,0.0,-1.0,-1.0,-1.0,0.0,-3.0,0.96240234375,-0.11572265625,0.2158203125,0.06097560975609757,-0.7926829268292683,1.1585365853658538
14_12_54_314,-3.0,-1.0,0.0,-1.0,-1.0,0.0,1.0,-1.0,0.95703125,-0.1181640625,0.2197265625,-1.0975609756097562,-0.7317073170731708,1.524390243902439
14_12_54_314,-3.0,0.0,0.0,-3.0,-1.0,-2.0,1.0,-1.0,0.95263671875,-0.10791015625,0.216796875,-1.5853658536585367,-0.5487804878048781,1.524390243902439
14_12_54_314,1.0,0.0,0.0,-1.0,0.0,1.0,-1.0,-1.0,0.955078125,-0.103515625,0.220703125,0.24390243902439027,-0.1829268292682927,1.6463414634146343
14_12_54_314,2.0,2.0,-3.0,-1.0,0.0,1.0,-1.0,0.0,0.955078125,-0.11767578125,0.21484375,2.073170731707317,0.12195121951219513,1.707317073170732
14_12_54_314,2.0,1.0,-2.0,0.0,0.0,-3.0,1.0,-2.0,0.958984375,-0.12255859375,0.21630859375,1.2195121951219514,-0.12195121951219513,1.8902439024390245
14_12_54_314,-3.0,-2.0,-2.0,2.0,-1.0,-2.0,-1.0,0.0,0.95458984375,-0.115234375,0.216796875,-1.0975609756097562,-0.3658536585365854,2.1341463414634148
14_12_54_364,-1.0,0.0,0.0,-1.0,2.0,-2.0,-2.0,0.0,0.9599609375,-0.11376953125,0.22314453125,0.3658536585365854,-1.1585365853658538,0.0
14_12_54_364,-1.0,1.0,-6.0,-3.0,0.0,0.0,-1.0,-1.0,0.96044921875,-0.1220703125,0.2177734375,-0.6097560975609757,-0.853658536585366,0.1829268292682927
14_12_54_364,1.0,-2.0,-2.0,-3.0,1.0,-2.0,-1.0,-3.0,0.9599609375,-0.11376953125,0.21630859375,-1.4634146341463417,-0.6707317073170732,0.7317073170731708
14_12_54_364,0.0,0.0,2.0,-2.0,1.0,-2.0,3.0,1.0,0.95751953125,-0.1005859375,0.21240234375,-0.6707317073170732,-0.3658536585365854,1.0975609756097562
14_12_54_364,-3.0,-2.0,-3.0,0.0,0.0,-2.0,-1.0,-1.0,0.95849609375,-0.103515625,0.2119140625,0.426829268292683,-0.5487804878048781,1.1585365853658538
14_12_54_364,-3.0,-2.0,-2.0,1.0,-1.0,1.0,-1.0,-1.0,0.96240234375,-0.11572265625,0.2158203125,0.06097560975609757,-0.7926829268292683,1.1585365853658538
14_12_54_364,0.0,0.0,-4.0,-4.0,-3.0,0.0,-2.0,-1.0,0.95703125,-0.1181640625,0.2197265625,-1.0975609756097562,-0.7317073170731708,1.524390243902439
14_12_54_364,-3.0,-2.0,2.0,-4.0,-4.0,-1.0,0.0,1.0,0.95263671875,-0.10791015625,0.216796875,-1.5853658536585367,-0.5487804878048781,1.524390243902439
14_12_54_364,-2.0,1.0,0.0,1.0,0.0,0.0,0.0,-3.0,0.955078125,-0.103515625,0.220703125,0.24390243902439027,-0.1829268292682927,1.6463414634146343
14_12_54_429,0.0,1.0,-4.0,1.0,-3.0,-2.0,-4.0,0.0,0.95654296875,-0.123046875,0.21728515625,-0.9146341463414634,-1.402439024390244,0.426829268292683
14_12_54_429,-1.0,0.0,0.0,-1.0,0.0,-2.0,-1.0,-5.0,0.95751953125,-0.10986328125,0.22216796875,-1.707317073170732,-1.5853658536585367,0.30487804878048785
14_12_54_429,-1.0,-1.0,0.0,-2.0,1.0,-1.0,-2.0,-1.0,0.96240234375,-0.1015625,0.21533203125,-0.48780487804878053,-1.4634146341463417,0.06097560975609757
14_12_54_429,1.0,-1.0,1.0,0.0,-4.0,1.0,0.0,0.0,0.9599609375,-0.11376953125,0.22314453125,0.3658536585365854,-1.1585365853658538,0.0
14_12_54_429,0.0,-1.0,-4.0,0.0,-2.0,-1.0,0.0,-1.0,0.96044921875,-0.1220703125,0.2177734375,-0.6097560975609757,-0.853658536585366,0.1829268292682927
14_12_54_429,1.0,1.0,-2.0,-4.0,-2.0,0.0,-2.0,-2.0,0.9599609375,-0.11376953125,0.21630859375,-1.4634146341463417,-0.6707317073170732,0.7317073170731708
14_12_54_429,-2.0,0.0,-2.0,-3.0,-1.0,-4.0,-2.0,-1.0,0.95751953125,-0.1005859375,0.21240234375,-0.6707317073170732,-0.3658536585365854,1.0975609756097562
14_12_54_429,-2.0,0.0,0.0,0.0,1.0,-1.0,0.0,-1.0,0.95849609375,-0.103515625,0.2119140625,0.426829268292683,-0.5487804878048781,1.1585365853658538
14_12_54_429,-1.0,-1.0,0.0,1.0,-1.0,-1.0,-3.0,-1.0,0.96240234375,-0.11572265625,0.2158203125,0.06097560975609757,-0.7926829268292683,1.1585365853658538
14_12_54_477,-2.0,0.0,-2.0,-2.0,-3.0,0.0,0.0,-1.0,0.96142578125,-0.1103515625,0.21826171875,1.1585365853658538,-1.0365853658536586,0.06097560975609757
14_12_54_477,-4.0,-3.0,-3.0,-3.0,-2.0,0.0,-3.0,-1.0,0.95556640625,-0.1220703125,0.22216796875,0.7926829268292683,-1.0975609756097562,0.1829268292682927
14_12_54_477,1.0,0.0,-4.0,0.0,2.0,-1.0,4.0,-1.0,0.95654296875,-0.123046875,0.21728515625,-0.9146341463414634,-1.402439024390244,0.426829268292683
14_12_54_477,-1.0,0.0,-4.0,-4.0,-1.0,0.0,4.0,-1.0,0.95751953125,-0.10986328125,0.22216796875,-1.707317073170732,-1.5853658536585367,0.30487804878048785
14_12_54_477,0.0,-1.0,1.0,-2.0,1.0,1.0,-1.0,1.0,0.96240234375,-0.1015625,0.21533203125,-0.48780487804878053,-1.4634146341463417,0.06097560975609757
14_12_54_477,-1.0,0.0,0.0,-1.0,-3.0,-1.0,-2.0,-1.0,0.9599609375,-0.11376953125,0.22314453125,0.3658536585365854,-1.1585365853658538,0.0
14_12_54_477,-2.0,-3.0,1.0,0.0,-2.0,-2.0,-1.0,-1.0,0.96044921875,-0.1220703125,0.2177734375,-0.6097560975609757,-0.853658536585366,0.1829268292682927
14_12_54_477,0.0,-1.0,-1.0,-2.0,-1.0,1.0,-3.0,-1.0,0.9599609375,-0.11376953125,0.21630859375,-1.4634146341463417,-0.6707317073170732,0.7317073170731708
14_12_54_477,-3.0,-2.0,1.0,0.0,1.0,0.0,-4.0,-3.0,0.95751953125,-0.1005859375,0.21240234375,-0.6707317073170732,-0.3658536585365854,1.0975609756097562
14_12_54_534,0.0,-1.0,-2.0,-4.0,-4.0,0.0,0.0,0.0,0.9599609375,-0.10888671875,0.22021484375,-0.6707317073170732,-1.0365853658536586,0.1829268292682927
14_12_54_534,-3.0,2.0,0.0,-4.0,-3.0,0.0,0.0,-1.0,0.96142578125,-0.1103515625,0.21826171875,1.1585365853658538,-1.0365853658536586,0.06097560975609757
14_12_54_534,-3.0,-3.0,0.0,-3.0,-1.0,0.0,-3.0,1.0,0.95556640625,-0.1220703125,0.22216796875,0.7926829268292683,-1.0975609756097562,0.1829268292682927
14_12_54_534,-2.0,-3.0,-1.0,-1.0,-3.0,-5.0,-5.0,0.0,0.95654296875,-0.123046875,0.21728515625,-0.9146341463414634,-1.402439024390244,0.426829268292683
14_12_54_534,-3.0,-3.0,-4.0,1.0,-1.0,-2.0,-1.0,0.0,0.95751953125,-0.10986328125,0.22216796875,-1.707317073170732,-1.5853658536585367,0.30487804878048785
14_12_54_534,0.0,-1.0,-3.0,-6.0,-1.0,-2.0,-1.0,-1.0,0.96240234375,-0.1015625,0.21533203125,-0.48780487804878053,-1.4634146341463417,0.06097560975609757
14_12_54_534,0.0,-2.0,-1.0,-2.0,2.0,-1.0,-2.0,2.0,0.9599609375,-0.11376953125,0.22314453125,0.3658536585365854,-1.1585365853658538,0.0
14_12_54_584,0.0,0.0,-2.0,1.0,-3.0,-2.0,0.0,0.0,0.9599609375,-0.10888671875,0.22021484375,-0.6707317073170732,-1.0365853658536586,0.1829268292682927
14_12_54_584,0.0,0.0,0.0,-1.0,0.0,0.0,-2.0,-1.0,0.96142578125,-0.1103515625,0.21826171875,1.1585365853658538,-1.0365853658536586,0.06097560975609757
14_12_54_584,0.0,0.0,-1.0,-2.0,-2.0,-1.0,-2.0,0.0,0.95556640625,-0.1220703125,0.22216796875,0.7926829268292683,-1.0975609756097562,0.1829268292682927
14_12_54_584,-3.0,-3.0,1.0,1.0,-2.0,-2.0,3.0,-4.0,0.95654296875,-0.123046875,0.21728515625,-0.9146341463414634,-1.402439024390244,0.426829268292683
14_12_54_639,-1.0,-3.0,0.0,-2.0,-5.0,-2.0,0.0,-1.0,0.96435546875,-0.115234375,0.2197265625,-0.3658536585365854,-0.1829268292682927,0.1829268292682927
14_12_54_639,-5.0,1.0,-1.0,-1.0,2.0,-1.0,-2.0,1.0,0.96044921875,-0.12060546875,0.22265625,-0.7926829268292683,-0.426829268292683,0.30487804878048785
14_12_54_639,-1.0,2.0,-3.0,-1.0,0.0,-2.0,1.0,-1.0,0.95751953125,-0.11962890625,0.22314453125,-1.0365853658536586,-0.5487804878048781,0.48780487804878053
14_12_54_639,-3.0,1.0,0.0,0.0,-2.0,-1.0,-2.0,-1.0,0.95556640625,-0.10986328125,0.21875,-0.24390243902439027,-0.6097560975609757,0.48780487804878053
14_12_54_639,-1.0,-3.0,-2.0,0.0,-3.0,-2.0,-1.0,0.0,0.96142578125,-0.111328125,0.2177734375,0.853658536585366,-0.7317073170731708,0.426829268292683
14_12_54_639,0.0,-1.0,-1.0,0.0,1.0,0.0,-3.0,1.0,0.9619140625,-0.12060546875,0.22119140625,0.5487804878048781,-0.853658536585366,0.24390243902439027
14_12_54_639,-2.0,-4.0,-1.0,-2.0,-3.0,-4.0,0.0,-2.0,0.96044921875,-0.12939453125,0.228515625,-1.1585365853658538,-1.1585365853658538,0.30487804878048785
14_12_54_639,-1.0,2.0,0.0,-1.0,0.0,-4.0,-4.0,0.0,0.958984375,-0.12060546875,0.2216796875,-1.9512195121951221,-1.0365853658536586,0.3658536585365854
14_12_54_639,0.0,1.0,-1.0,-2.0,-3.0,-3.0,1.0,1.0,0.9599609375,-0.10888671875,0.22021484375,-0.6707317073170732,-1.0365853658536586,0.1829268292682927
14_12_54_639,-2.0,-2.0,-2.0,-1.0,0.0,-1.0,1.0,2.0,0.96142578125,-0.1103515625,0.21826171875,1.1585365853658538,-1.0365853658536586,0.06097560975609757
14_12_54_684,0.0,-2.0,1.0,-3.0,-3.0,-1.0,2.0,-2.0,0.95849609375,-0.11865234375,0.22021484375,-1.4634146341463417,0.24390243902439027,0.5487804878048781
14_12_54_684,-2.0,1.0,1.0,-2.0,-2.0,-2.0,0.0,-1.0,0.95751953125,-0.11767578125,0.22509765625,-1.2195121951219514,0.0,0.3658536585365854
14_12_54_684,-2.0,-1.0,0.0,0.0,0.0,0.0,-3.0,0.0,0.96142578125,-0.1103515625,0.22021484375,-0.7317073170731708,-0.1829268292682927,0.30487804878048785
14_12_54_684,0.0,0.0,-1.0,0.0,-3.0,-1.0,-1.0,-1.0,0.96435546875,-0.115234375,0.2197265625,-0.3658536585365854,-0.1829268292682927,0.1829268292682927
14_12_54_684,-3.0,-3.0,-2.0,1.0,0.0,0.0,-1.0,0.0,0.96044921875,-0.12060546875,0.22265625,-0.7926829268292683,-0.426829268292683,0.30487804878048785
14_12_54_684,-1.0,0.0,-2.0,1.0,0.0,-4.0,-2.0,0.0,0.95751953125,-0.11962890625,0.22314453125,-1.0365853658536586,-0.5487804878048781,0.48780487804878053
14_12_54_684,-3.0,-2.0,-1.0,0.0,-2.0,-2.0,0.0,-2.0,0.95556640625,-0.10986328125,0.21875,-0.24390243902439027,-0.6097560975609757,0.48780487804878053
14_12_54_684,0.0,-1.0,0.0,-1.0,0.0,-2.0,3.0,-1.0,0.96142578125,-0.111328125,0.2177734375,0.853658536585366,-0.7317073170731708,0.426829268292683
14_12_54_684,-1.0,0.0,-1.0,0.0,-1.0,-3.0,-2.0,-1.0,0.9619140625,-0.12060546875,0.22119140625,0.5487804878048781,-0.853658536585366,0.24390243902439027
14_12_54_684,-2.0,-4.0,-4.0,-3.0,-3.0,-1.0,-2.0,0.0,0.96044921875,-0.12939453125,0.228515625,-1.1585365853658538,-1.1585365853658538,0.30487804878048785
14_12_54_746,-1.0,0.0,0.0,1.0,0.0,2.0,-1.0,-1.0,0.95849609375,-0.11865234375,0.22021484375,-1.4634146341463417,0.24390243902439027,0.5487804878048781
14_12_54_746,1.0,2.0,0.0,0.0,1.0,-4.0,-3.0,-2.0,0.95751953125,-0.11767578125,0.22509765625,-1.2195121951219514,0.0,0.3658536585365854
14_12_54_746,-1.0,-2.0,1.0,0.0,2.0,-2.0,0.0,-1.0,0.96142578125,-0.1103515625,0.22021484375,-0.7317073170731708,-0.1829268292682927,0.30487804878048785
14_12_54_746,0.0,2.0,-1.0,-1.0,-3.0,2.0,-1.0,0.0,0.96435546875,-0.115234375,0.2197265625,-0.3658536585365854,-0.1829268292682927,0.1829268292682927
14_12_54_746,-4.0,2.0,0.0,-1.0,0.0,2.0,1.0,-2.0,0.96044921875,-0.12060546875,0.22265625,-0.7926829268292683,-0.426829268292683,0.30487804878048785
14_12_54_746,1.0,-3.0,-2.0,0.0,-3.0,2.0,1.0,-1.0,0.95751953125,-0.11962890625,0.22314453125,-1.0365853658536586,-0.5487804878048781,0.48780487804878053
14_12_54_746,2.0,-2.0,0.0,-1.0,-1.0,-1.0,-3.0,-1.0,0.95556640625,-0.10986328125,0.21875,-0.24390243902439027,-0.6097560975609757,0.48780487804878053
14_12_54_794,-3.0,3.0,0.0,-1.0,-1.0,0.0,-2.0,-1.0,0.955078125,-0.11767578125,0.2197265625,-0.6707317073170732,-0.06097560975609757,0.24390243902439027
14_12_54_794,0.0,-3.0,0.0,-3.0,-1.0,-4.0,2.0,-2.0,0.9560546875,-0.11376953125,0.21923828125,-0.3658536585365854,0.30487804878048785,0.24390243902439027
14_12_54_794,0.0,-1.0,-1.0,3.0,-1.0,-3.0,-2.0,-2.0,0.95751953125,-0.11328125,0.220703125,-0.6707317073170732,0.3658536585365854,0.426829268292683
14_12_54_794,2.0,2.0,1.0,0.0,0.0,0.0,-3.0,-2.0,0.95947265625,-0.11865234375,0.22607421875,-1.0365853658536586,0.30487804878048785,0.5487804878048781
14_12_54_794,0.0,-1.0,-1.0,-2.0,0.0,-1.0,0.0,-3.0,0.95849609375,-0.11865234375,0.22021484375,-1.4634146341463417,0.24390243902439027,0.5487804878048781
14_12_54_794,0.0,-1.0,-4.0,-2.0,0.0,0.0,1.0,-2.0,0.95751953125,-0.11767578125,0.22509765625,-1.2195121951219514,0.0,0.3658536585365854
14_12_54_794,0.0,0.0,0.0,-3.0,-1.0,-3.0,-2.0,-2.0,0.96142578125,-0.1103515625,0.22021484375,-0.7317073170731708,-0.1829268292682927,0.30487804878048785
14_12_54_794,-4.0,-1.0,-1.0,1.0,0.0,-1.0,-3.0,-1.0,0.96435546875,-0.115234375,0.2197265625,-0.3658536585365854,-0.1829268292682927,0.1829268292682927
14_12_54_794,0.0,0.0,0.0,1.0,-2.0,-1.0,-2.0,-2.0,0.96044921875,-0.12060546875,0.22265625,-0.7926829268292683,-0.426829268292683,0.30487804878048785
14_12_54_849,0.0,-1.0,-3.0,-2.0,1.0,0.0,-2.0,-2.0,0.95556640625,-0.123046875,0.2177734375,-0.06097560975609757,-0.12195121951219513,0.24390243902439027
14_12_54_849,0.0,-2.0,-2.0,0.0,2.0,-2.0,1.0,-3.0,0.95751953125,-0.1162109375,0.22216796875,-0.5487804878048781,0.06097560975609757,0.426829268292683
14_12_54_849,-1.0,1.0,-3.0,2.0,0.0,-1.0,-1.0,-1.0,0.958984375,-0.10888671875,0.21630859375,-0.853658536585366,-0.06097560975609757,0.30487804878048785
14_12_54_849,2.0,0.0,0.0,-1.0,-4.0,-2.0,-2.0,0.0,0.9541015625,-0.11328125,0.22216796875,-1.0365853658536586,-0.12195121951219513,0.12195121951219513
14_12_54_849,-1.0,-2.0,-2.0,0.0,-2.0,0.0,-2.0,1.0,0.955078125,-0.11767578125,0.2197265625,-0.6707317073170732,-0.06097560975609757,0.24390243902439027
14_12_54_849,-1.0,0.0,-2.0,2.0,1.0,-1.0,-3.0,-1.0,0.9560546875,-0.11376953125,0.21923828125,-0.3658536585365854,0.30487804878048785,0.24390243902439027
14_12_54_849,-1.0,0.0,-3.0,1.0,-1.0,0.0,2.0,-4.0,0.95751953125,-0.11328125,0.220703125,-0.6707317073170732,0.3658536585365854,0.426829268292683
14_12_54_849,-1.0,0.0,0.0,0.0,0.0,0.0,-3.0,1.0,0.95947265625,-0.11865234375,0.22607421875,-1.0365853658536586,0.30487804878048785,0.5487804878048781
14_12_54_849,0.0,-3.0,-1.0,1.0,-2.0,-2.0,-2.0,0.0,0.95849609375,-0.11865234375,0.22021484375,-1.4634146341463417,0.24390243902439027,0.5487804878048781
14_12_54_849,0.0,-2.0,-3.0,-3.0,-2.0,1.0,1.0,-2.0,0.95751953125,-0.11767578125,0.22509765625,-1.2195121951219514,0.0,0.3658536585365854
14_12_54_904,0.0,1.0,0.0,-1.0,0.0,-2.0,-1.0,-4.0,0.95751953125,-0.107421875,0.21875,-0.6707317073170732,0.06097560975609757,0.3658536585365854
14_12_54_904,0.0,-3.0,0.0,-2.0,4.0,-3.0,-1.0,-2.0,0.95263671875,-0.119140625,0.21923828125,0.24390243902439027,-0.12195121951219513,0.1829268292682927
14_12_54_904,0.0,1.0,0.0,-3.0,-3.0,3.0,-2.0,1.0,0.95556640625,-0.123046875,0.2177734375,-0.06097560975609757,-0.12195121951219513,0.24390243902439027
14_12_54_904,-1.0,1.0,1.0,0.0,-2.0,0.0,-2.0,0.0,0.95751953125,-0.1162109375,0.22216796875,-0.5487804878048781,0.06097560975609757,0.426829268292683
14_12_54_904,1.0,-1.0,-3.0,-2.0,-1.0,-3.0,-1.0,-1.0,0.958984375,-0.10888671875,0.21630859375,-0.853658536585366,-0.06097560975609757,0.30487804878048785
14_12_54_904,0.0,0.0,-1.0,-1.0,-1.0,1.0,-4.0,-2.0,0.9541015625,-0.11328125,0.22216796875,-1.0365853658536586,-0.12195121951219513,0.12195121951219513
14_12_54_904,-2.0,-1.0,-3.0,-3.0,0.0,2.0,-3.0,0.0,0.955078125,-0.11767578125,0.2197265625,-0.6707317073170732,-0.06097560975609757,0.24390243902439027
14_12_54_904,-1.0,-2.0,1.0,-1.0,-1.0,1.0,-2.0,-1.0,0.9560546875,-0.11376953125,0.21923828125,-0.3658536585365854,0.30487804878048785,0.24390243902439027
14_12_54_904,-1.0,-1.0,-2.0,0.0,1.0,-3.0,-5.0,0.0,0.95751953125,-0.11328125,0.220703125,-0.6707317073170732,0.3658536585365854,0.426829268292683
14_12_54_964,-2.0,-1.0,2.0,-3.0,-1.0,0.0,0.0,-3.0,0.95361328125,-0.11669921875,0.22265625,-1.6463414634146343,0.30487804878048785,0.6707317073170732
14_12_54_964,0.0,-1.0,-2.0,-2.0,-1.0,-1.0,-1.0,-3.0,0.96044921875,-0.1083984375,0.21240234375,-1.9512195121951221,0.0,0.6707317073170732
14_12_54_964,-2.0,1.0,0.0,-3.0,-2.0,1.0,-1.0,-4.0,0.95751953125,-0.107421875,0.21875,-0.6707317073170732,0.06097560975609757,0.3658536585365854
14_12_54_964,1.0,2.0,1.0,1.0,0.0,0.0,-2.0,-1.0,0.95263671875,-0.119140625,0.21923828125,0.24390243902439027,-0.12195121951219513,0.1829268292682927
14_12_54_964,0.0,-1.0,1.0,0.0,-2.0,-2.0,0.0,0.0,0.95556640625,-0.123046875,0.2177734375,-0.06097560975609757,-0.12195121951219513,0.24390243902439027
14_12_54_964,-1.0,0.0,-2.0,0.0,-2.0,0.0,0.0,0.0,0.95751953125,-0.1162109375,0.22216796875,-0.5487804878048781,0.06097560975609757,0.426829268292683
14_12_54_964,3.0,-2.0,-1.0,-1.0,-3.0,-1.0,0.0,-2.0,0.958984375,-0.10888671875,0.21630859375,-0.853658536585366,-0.06097560975609757,0.30487804878048785
14_12_54_964,1.0,0.0,-1.0,0.0,-1.0,1.0,-1.0,-1.0,0.9541015625,-0.11328125,0.22216796875,-1.0365853658536586,-0.12195121951219513,0.12195121951219513
14_12_54_964,0.0,-1.0,1.0,1.0,-1.0,-1.0,0.0,-1.0,0.955078125,-0.11767578125,0.2197265625,-0.6707317073170732,-0.06097560975609757,0.24390243902439027
14_12_55_004,-1.0,0.0,0.0,0.0,1.0,1.0,-1.0,-1.0,0.9658203125,-0.119140625,0.22216796875,-0.853658536585366,-0.1829268292682927,0.12195121951219513
14_12_55_004,-2.0,-1.0,0.0,0.0,-1.0,0.0,2.0,-1.0,0.95166015625,-0.11767578125,0.21484375,-0.48780487804878053,0.3658536585365854,0.6707317073170732
14_12_55_004,0.0,1.0,0.0,-2.0,2.0,-2.0,-6.0,-3.0,0.95068359375,-0.12060546875,0.2197265625,-0.5487804878048781,0.5487804878048781,0.7926829268292683
14_12_55_004,0.0,-4.0,-1.0,-4.0,-4.0,0.0,1.0,-3.0,0.95361328125,-0.11669921875,0.22265625,-1.6463414634146343,0.30487804878048785,0.6707317073170732
14_12_55_004,-1.0,0.0,1.0,0.0,-1.0,-3.0,2.0,-2.0,0.96044921875,-0.1083984375,0.21240234375,-1.9512195121951221,0.0,0.6707317073170732
14_12_55_004,-2.0,0.0,-1.0,-1.0,-1.0,1.0,-1.0,-3.0,0.95751953125,-0.107421875,0.21875,-0.6707317073170732,0.06097560975609757,0.3658536585365854
14_12_55_004,0.0,0.0,-1.0,-1.0,-1.0,0.0,-2.0,-3.0,0.95263671875,-0.119140625,0.21923828125,0.24390243902439027,-0.12195121951219513,0.1829268292682927
14_12_55_004,-2.0,1.0,0.0,0.0,0.0,-4.0,0.0,0.0,0.95556640625,-0.123046875,0.2177734375,-0.06097560975609757,-0.12195121951219513,0.24390243902439027
14_12_55_004,-1.0,-2.0,-3.0,-2.0,1.0,0.0,-3.0,-1.0,0.95751953125,-0.1162109375,0.22216796875,-0.5487804878048781,0.06097560975609757,0.426829268292683
14_12_55_054,-2.0,-2.0,0.0,0.0,-1.0,-1.0,-3.0,-3.0,0.94970703125,-0.10791015625,0.2197265625,-1.9512195121951221,-0.5487804878048781,0.7926829268292683
14_12_55_054,0.0,-2.0,-2.0,1.0,-1.0,1.0,0.0,-3.0,0.9609375,-0.10888671875,0.21435546875,-0.9146341463414634,-0.6097560975609757,0.12195121951219513
14_12_55_054,-4.0,1.0,0.0,-1.0,-3.0,-2.0,-2.0,-3.0,0.966796875,-0.11767578125,0.21826171875,-0.5487804878048781,-0.48780487804878053,-0.24390243902439027
14_12_55_054,3.0,-1.0,0.0,-2.0,-3.0,0.0,-2.0,0.0,0.9658203125,-0.119140625,0.22216796875,-0.853658536585366,-0.1829268292682927,0.12195121951219513
14_12_55_054,-1.0,-3.0,-5.0,0.0,-5.0,-2.0,-1.0,1.0,0.95166015625,-0.11767578125,0.21484375,-0.48780487804878053,0.3658536585365854,0.6707317073170732
14_12_55_054,-2.0,-1.0,-1.0,-1.0,0.0,-4.0,-2.0,2.0,0.95068359375,-0.12060546875,0.2197265625,-0.5487804878048781,0.5487804878048781,0.7926829268292683
14_12_55_054,-1.0,-1.0,-3.0,-2.0,-4.0,-1.0,-1.0,-4.0,0.95361328125,-0.11669921875,0.22265625,-1.6463414634146343,0.30487804878048785,0.6707317073170732
14_12_55_054,-1.0,1.0,-1.0,-2.0,0.0,0.0,-2.0,0.0,0.96044921875,-0.1083984375,0.21240234375,-1.9512195121951221,0.0,0.6707317073170732
14_12_55_054,-3.0,1.0,-1.0,0.0,0.0,-2.0,-1.0,0.0,0.95751953125,-0.107421875,0.21875,-0.6707317073170732,0.06097560975609757,0.3658536585365854
14_12_55_117,-2.0,-1.0,-1.0,2.0,-2.0,-1.0,-1.0,1.0,0.95849609375,-0.1181640625,0.22314453125,2.073170731707317,0.06097560975609757,0.426829268292683
14_12_55_117,-3.0,0.0,0.0,1.0,-2.0,0.0,-1.0,-1.0,0.9560546875,-0.1259765625,0.2265625,0.6707317073170732,-0.1829268292682927,0.853658536585366
14_12_55_117,-1.0,0.0,-3.0,-1.0,-2.0,-1.0,-1.0,-3.0,0.9541015625,-0.11865234375,0.21923828125,-1.829268292682927,-0.3658536585365854,1.2804878048780488
14_12_55_117,1.0,-1.0,1.0,-4.0,-2.0,-3.0,-1.0,0.0,0.94970703125,-0.10791015625,0.2197265625,-1.9512195121951221,-0.5487804878048781,0.7926829268292683
14_12_55_117,-2.0,0.0,-1.0,-3.0,-1.0,-2.0,1.0,-1.0,0.9609375,-0.10888671875,0.21435546875,-0.9146341463414634,-0.6097560975609757,0.12195121951219513
14_12_55_117,-1.0,0.0,-1.0,-1.0,0.0,0.0,-1.0,0.0,0.966796875,-0.11767578125,0.21826171875,-0.5487804878048781,-0.48780487804878053,-0.24390243902439027
14_12_55_117,0.0,0.0,-1.0,0.0,-4.0,-1.0,-2.0,-2.0,0.9658203125,-0.119140625,0.22216796875,-0.853658536585366,-0.1829268292682927,0.12195121951219513
14_12_55_117,0.0,0.0,-4.0,3.0,0.0,-2.0,1.0,-1.0,0.95166015625,-0.11767578125,0.21484375,-0.48780487804878053,0.3658536585365854,0.6707317073170732
14_12_55_117,-2.0,-4.0,1.0,0.0,-1.0,-2.0,2.0,-3.0,0.95068359375,-0.12060546875,0.2197265625,-0.5487804878048781,0.5487804878048781,0.7926829268292683
14_12_55_174,-2.0,3.0,0.0,1.0,-6.0,-4.0,0.0,-3.0,0.9609375,-0.1171875,0.21923828125,-3.1707317073170733,-0.3658536585365854,1.0365853658536586
14_12_55_174,0.0,-2.0,-1.0,-2.0,0.0,-1.0,1.0,1.0,0.955078125,-0.10791015625,0.2138671875,-2.8658536585365857,-0.5487804878048781,0.6097560975609757
14_12_55_174,0.0,-1.0,-1.0,-4.0,0.0,1.0,0.0,-1.0,0.951171875,-0.111328125,0.216796875,0.1829268292682927,-0.1829268292682927,0.48780487804878053
14_12_55_174,-1.0,-1.0,1.0,0.0,-2.0,-3.0,2.0,0.0,0.95849609375,-0.1181640625,0.22314453125,2.073170731707317,0.06097560975609757,0.426829268292683
14_12_55_174,-1.0,-2.0,-1.0,0.0,-3.0,-3.0,0.0,-1.0,0.9560546875,-0.1259765625,0.2265625,0.6707317073170732,-0.1829268292682927,0.853658536585366
14_12_55_174,1.0,-2.0,-2.0,-1.0,-2.0,0.0,-3.0,0.0,0.9541015625,-0.11865234375,0.21923828125,-1.829268292682927,-0.3658536585365854,1.2804878048780488
14_12_55_174,0.0,0.0,-2.0,-1.0,0.0,-2.0,-1.0,-1.0,0.94970703125,-0.10791015625,0.2197265625,-1.9512195121951221,-0.5487804878048781,0.7926829268292683
14_12_55_174,0.0,-2.0,-2.0,-3.0,-4.0,-1.0,-2.0,-2.0,0.9609375,-0.10888671875,0.21435546875,-0.9146341463414634,-0.6097560975609757,0.12195121951219513
14_12_55_174,0.0,-4.0,-1.0,-3.0,-2.0,-2.0,0.0,-3.0,0.966796875,-0.11767578125,0.21826171875,-0.5487804878048781,-0.48780487804878053,-0.24390243902439027
14_12_55_174,3.0,-3.0,1.0,-1.0,0.0,0.0,2.0,-1.0,0.9658203125,-0.119140625,0.22216796875,-0.853658536585366,-0.1829268292682927,0.12195121951219513
14_12_55_224,-1.0,0.0,-3.0,0.0,-1.0,0.0,2.0,-1.0,0.96044921875,-0.1240234375,0.21630859375,-0.12195121951219513,-0.12195121951219513,1.0975609756097562
14_12_55_224,-3.0,-1.0,-1.0,0.0,0.0,-2.0,1.0,1.0,0.9609375,-0.1171875,0.21923828125,-3.1707317073170733,-0.3658536585365854,1.0365853658536586
14_12_55_224,-5.0,-2.0,-2.0,0.0,-2.0,-4.0,-1.0,-2.0,0.955078125,-0.10791015625,0.2138671875,-2.8658536585365857,-0.5487804878048781,0.6097560975609757
14_12_55_224,0.0,-2.0,-2.0,-2.0,-1.0,2.0,-1.0,-3.0,0.951171875,-0.111328125,0.216796875,0.1829268292682927,-0.1829268292682927,0.48780487804878053
14_12_55_224,2.0,-2.0,-1.0,-4.0,-2.0,-4.0,-4.0,0.0,0.95849609375,-0.1181640625,0.22314453125,2.073170731707317,0.06097560975609757,0.426829268292683
14_12_55_224,-3.0,-2.0,-5.0,-2.0,1.0,-1.0,-2.0,-2.0,0.9560546875,-0.1259765625,0.2265625,0.6707317073170732,-0.1829268292682927,0.853658536585366
14_12_55_224,1.0,-2.0,0.0,-4.0,-1.0,0.0,1.0,0.0,0.9541015625,-0.11865234375,0.21923828125,-1.829268292682927,-0.3658536585365854,1.2804878048780488
14_12_55_224,0.0,-1.0,0.0,-2.0,-1.0,-1.0,-2.0,1.0,0.94970703125,-0.10791015625,0.2197265625,-1.9512195121951221,-0.5487804878048781,0.7926829268292683
14_12_55_279,-3.0,0.0,-1.0,-4.0,-1.0,-2.0,-2.0,-1.0,0.958984375,-0.10400390625,0.21826171875,-0.9146341463414634,-0.12195121951219513,0.6707317073170732
14_12_55_279,-3.0,0.0,0.0,-2.0,-2.0,-2.0,1.0,0.0,0.9541015625,-0.10986328125,0.21435546875,1.7682926829268295,0.1829268292682927,0.9146341463414634
14_12_55_279,-2.0,-1.0,-3.0,-4.0,0.0,-1.0,-1.0,-4.0,0.95703125,-0.1162109375,0.2216796875,2.682926829268293,0.24390243902439027,1.0975609756097562
14_12_55_279,0.0,-4.0,-2.0,0.0,4.0,-3.0,-1.0,2.0,0.96044921875,-0.1240234375,0.21630859375,-0.12195121951219513,-0.12195121951219513,1.0975609756097562
14_12_55_279,0.0,1.0,-3.0,1.0,1.0,-1.0,-1.0,-3.0,0.9609375,-0.1171875,0.21923828125,-3.1707317073170733,-0.3658536585365854,1.0365853658536586
14_12_55_279,-2.0,0.0,-3.0,-2.0,0.0,0.0,0.0,-1.0,0.955078125,-0.10791015625,0.2138671875,-2.8658536585365857,-0.5487804878048781,0.6097560975609757
14_12_55_279,1.0,-2.0,-4.0,-1.0,-2.0,-1.0,1.0,3.0,0.951171875,-0.111328125,0.216796875,0.1829268292682927,-0.1829268292682927,0.48780487804878053
14_12_55_279,-4.0,-2.0,-1.0,-2.0,1.0,0.0,1.0,0.0,0.95849609375,-0.1181640625,0.22314453125,2.073170731707317,0.06097560975609757,0.426829268292683
14_12_55_344,0.0,0.0,3.0,-3.0,-1.0,-1.0,0.0,-2.0,0.958984375,-0.11474609375,0.220703125,-0.24390243902439027,-0.7317073170731708,0.30487804878048785
14_12_55_344,-1.0,-1.0,-1.0,-2.0,2.0,0.0,0.0,0.0,0.9560546875,-0.11669921875,0.220703125,-0.9146341463414634,-0.426829268292683,0.24390243902439027
14_12_55_344,-3.0,-2.0,-1.0,-1.0,-1.0,-3.0,-3.0,-2.0,0.96044921875,-0.11474609375,0.21533203125,-2.0121951219512195,-0.3658536585365854,0.426829268292683
14_12_55_344,-3.0,-3.0,0.0,1.0,1.0,1.0,0.0,0.0,0.958984375,-0.10400390625,0.21826171875,-0.9146341463414634,-0.12195121951219513,0.6707317073170732
14_12_55_344,1.0,-1.0,-1.0,-1.0,-1.0,-1.0,-1.0,0.0,0.9541015625,-0.10986328125,0.21435546875,1.7682926829268295,0.1829268292682927,0.9146341463414634
14_12_55_344,-2.0,-1.0,-1.0,0.0,-1.0,-2.0,-3.0,0.0,0.95703125,-0.1162109375,0.2216796875,2.682926829268293,0.24390243902439027,1.0975609756097562
14_12_55_344,-4.0,-4.0,-2.0,-1.0,1.0,2.0,-3.0,1.0,0.96044921875,-0.1240234375,0.21630859375,-0.12195121951219513,-0.12195121951219513,1.0975609756097562
14_12_55_344,0.0,0.0,-2.0,-2.0,-1.0,0.0,1.0,-1.0,0.9609375,-0.1171875,0.21923828125,-3.1707317073170733,-0.3658536585365854,1.0365853658536586
14_12_55_404,-4.0,0.0,1.0,0.0,1.0,-2.0,-3.0,2.0,0.95751953125,-0.1220703125,0.2265625,0.6707317073170732,-1.1585365853658538,0.1829268292682927
14_12_55_404,-2.0,1.0,-4.0,-2.0,-4.0,-1.0,1.0,-1.0,0.95947265625,-0.1201171875,0.22314453125,0.0,-0.9146341463414634,0.30487804878048785
14_12_55_404,-4.0,-4.0,0.0,-3.0,0.0,0.0,-1.0,0.0,0.95703125,-0.11083984375,0.21484375,-0.3658536585365854,-0.7926829268292683,0.3658536585365854
14_12_55_404,-2.0,-3.0,1.0,-3.0,2.0,-3.0,-1.0,-1.0,0.958984375,-0.1103515625,0.21875,-0.426829268292683,-0.7926829268292683,0.24390243902439027
14_12_55_404,0.0,-1.0,-2.0,-2.0,-1.0,0.0,1.0,0.0,0.958984375,-0.11474609375,0.220703125,-0.24390243902439027,-0.7317073170731708,0.30487804878048785
14_12_55_404,1.0,1.0,-1.0,-1.0,0.0,0.0,0.0,-2.0,0.9560546875,-0.11669921875,0.220703125,-0.9146341463414634,-0.426829268292683,0.24390243902439027
14_12_55_404,-1.0,0.0,-1.0,-4.0,-2.0,-4.0,1.0,-3.0,0.96044921875,-0.11474609375,0.21533203125,-2.0121951219512195,-0.3658536585365854,0.426829268292683
14_12_55_404,2.0,0.0,-2.0,1.0,0.0,0.0,-2.0,-1.0,0.958984375,-0.10400390625,0.21826171875,-0.9146341463414634,-0.12195121951219513,0.6707317073170732
14_12_55_404,2.0,2.0,2.0,-1.0,0.0,-1.0,-4.0,-1.0,0.9541015625,-0.10986328125,0.21435546875,1.7682926829268295,0.1829268292682927,0.9146341463414634
14_12_55_469,1.0,-1.0,2.0,-3.0,-4.0,-1.0,-1.0,-1.0,0.958984375,-0.1259765625,0.22119140625,-0.12195121951219513,-0.30487804878048785,-0.12195121951219513
14_12_55_469,0.0,-1.0,-1.0,-4.0,0.0,-3.0,1.0,-1.0,0.958984375,-0.11328125,0.22314453125,-0.7317073170731708,-0.48780487804878053,0.0
14_12_55_469,-2.0,0.0,0.0,0.0,-2.0,3.0,2.0,-3.0,0.95947265625,-0.107421875,0.2177734375,-0.3658536585365854,-0.9756097560975611,0.3658536585365854
14_12_55_469,-2.0,-1.0,0.0,0.0,-1.0,0.0,-3.0,-1.0,0.958984375,-0.1123046875,0.21923828125,0.853658536585366,-1.0975609756097562,0.24390243902439027
14_12_55_469,-2.0,-1.0,-3.0,0.0,-2.0,-1.0,0.0,2.0,0.95751953125,-0.1220703125,0.2265625,0.6707317073170732,-1.1585365853658538,0.1829268292682927
14_12_55_469,-3.0,-2.0,0.0,-1.0,-1.0,-1.0,-1.0,-1.0,0.95947265625,-0.1201171875,0.22314453125,0.0,-0.9146341463414634,0.30487804878048785
14_12_55_469,-1.0,0.0,-3.0,2.0,-1.0,-1.0,-1.0,0.0,0.95703125,-0.11083984375,0.21484375,-0.3658536585365854,-0.7926829268292683,0.3658536585365854
14_12_55_469,0.0,1.0,-1.0,1.0,-2.0,1.0,0.0,2.0,0.958984375,-0.1103515625,0.21875,-0.426829268292683,-0.7926829268292683,0.24390243902439027
14_12_55_469,-1.0,0.0,0.0,-1.0,1.0,-1.0,-2.0,-3.0,0.958984375,-0.11474609375,0.220703125,-0.24390243902439027,-0.7317073170731708,0.30487804878048785
14_12_55_469,0.0,0.0,-2.0,0.0,-2.0,0.0,0.0,2.0,0.9560546875,-0.11669921875,0.220703125,-0.9146341463414634,-0.426829268292683,0.24390243902439027
14_12_55_514,-1.0,-2.0,-2.0,-1.0,1.0,0.0,-2.0,1.0,0.95458984375,-0.125,0.2216796875,1.402439024390244,-0.3658536585365854,-0.24390243902439027
14_12_55_514,-1.0,2.0,1.0,0.0,0.0,-2.0,-1.0,-1.0,0.958984375,-0.1259765625,0.22119140625,-0.12195121951219513,-0.30487804878048785,-0.12195121951219513
14_12_55_514,0.0,-1.0,-3.0,0.0,-2.0,0.0,0.0,-2.0,0.958984375,-0.11328125,0.22314453125,-0.7317073170731708,-0.48780487804878053,0.0
14_12_55_514,1.0,0.0,0.0,-1.0,-1.0,-1.0,1.0,-1.0,0.95947265625,-0.107421875,0.2177734375,-0.3658536585365854,-0.9756097560975611,0.3658536585365854
14_12_55_514,0.0,-1.0,-1.0,1.0,-3.0,-2.0,3.0,2.0,0.958984375,-0.1123046875,0.21923828125,0.853658536585366,-1.0975609756097562,0.24390243902439027
14_12_55_514,-1.0,0.0,-1.0,-2.0,0.0,-2.0,-2.0,0.0,0.95751953125,-0.1220703125,0.2265625,0.6707317073170732,-1.1585365853658538,0.1829268292682927
14_12_55_514,0.0,-3.0,-1.0,0.0,-3.0,-2.0,-3.0,-2.0,0.95947265625,-0.1201171875,0.22314453125,0.0,-0.9146341463414634,0.30487804878048785
14_12_55_514,-3.0,-2.0,-2.0,0.0,-3.0,0.0,-2.0,-2.0,0.95703125,-0.11083984375,0.21484375,-0.3658536585365854,-0.7926829268292683,0.3658536585365854
14_12_55_514,-1.0,-1.0,0.0,-3.0,3.0,0.0,-4.0,0.0,0.958984375,-0.1103515625,0.21875,-0.426829268292683,-0.7926829268292683,0.24390243902439027
14_12_55_574,0.0,-1.0,-1.0,-3.0,-2.0,0.0,-2.0,-2.0,0.9609375,-0.125,0.22021484375,0.7926829268292683,-0.426829268292683,0.06097560975609757
14_12_55_574,-3.0,-1.0,-2.0,0.0,-1.0,-3.0,-2.0,0.0,0.95751953125,-0.1162109375,0.2197265625,0.6707317073170732,-0.426829268292683,0.1829268292682927
14_12_55_574,-1.0,-1.0,-1.0,0.0,0.0,0.0,0.0,-2.0,0.9609375,-0.111328125,0.2216796875,1.402439024390244,-0.6707317073170732,-0.12195121951219513
14_12_55_574,0.0,-1.0,-4.0,-4.0,-2.0,0.0,0.0,-1.0,0.9580078125,-0.115234375,0.2275390625,1.8902439024390245,-0.48780487804878053,-0.30487804878048785
14_12_55_574,-1.0,-2.0,0.0,0.0,1.0,-1.0,-2.0,-2.0,0.95458984375,-0.125,0.2216796875,1.402439024390244,-0.3658536585365854,-0.24390243902439027
14_12_55_574,-2.0,0.0,0.0,0.0,-1.0,-2.0,-2.0,1.0,0.958984375,-0.1259765625,0.22119140625,-0.12195121951219513,-0.30487804878048785,-0.12195121951219513
14_12_55_574,-2.0,1.0,1.0,-4.0,1.0,-2.0,-3.0,-1.0,0.958984375,-0.11328125,0.22314453125,-0.7317073170731708,-0.48780487804878053,0.0
14_12_55_574,-1.0,-1.0,-2.0,-1.0,-2.0,-1.0,0.0,-3.0,0.95947265625,-0.107421875,0.2177734375,-0.3658536585365854,-0.9756097560975611,0.3658536585365854
14_12_55_574,0.0,-2.0,-2.0,0.0,-4.0,0.0,-2.0,0.0,0.958984375,-0.1123046875,0.21923828125,0.853658536585366,-1.0975609756097562,0.24390243902439027
14_12_55_574,2.0,1.0,2.0,2.0,0.0,1.0,0.0,-1.0,0.95751953125,-0.1220703125,0.2265625,0.6707317073170732,-1.1585365853658538,0.1829268292682927
14_12_55_624,0.0,0.0,-2.0,-3.0,1.0,0.0,-3.0,0.0,0.95654296875,-0.11474609375,0.21923828125,1.9512195121951221,-0.06097560975609757,-0.5487804878048781
14_12_55_624,-3.0,-2.0,0.0,0.0,1.0,0.0,-1.0,-3.0,0.9619140625,-0.12109375,0.2216796875,1.5853658536585367,-0.12195121951219513,-0.3658536585365854
14_12_55_624,-3.0,-1.0,1.0,-2.0,-3.0,-3.0,-1.0,-2.0,0.9609375,-0.125,0.22021484375,0.7926829268292683,-0.426829268292683,0.06097560975609757
14_12_55_624,-2.0,0.0,-3.0,1.0,-3.0,-1.0,-2.0,1.0,0.95751953125,-0.1162109375,0.2197265625,0.6707317073170732,-0.426829268292683,0.1829268292682927
14_12_55_624,-3.0,-1.0,-2.0,-1.0,-1.0,3.0,0.0,-1.0,0.9609375,-0.111328125,0.2216796875,1.402439024390244,-0.6707317073170732,-0.12195121951219513
14_12_55_624,-2.0,1.0,-1.0,-2.0,0.0,-1.0,-2.0,-2.0,0.9580078125,-0.115234375,0.2275390625,1.8902439024390245,-0.48780487804878053,-0.30487804878048785
14_12_55_624,-1.0,-2.0,-2.0,-1.0,-2.0,-1.0,0.0,0.0,0.95458984375,-0.125,0.2216796875,1.402439024390244,-0.3658536585365854,-0.24390243902439027
14_12_55_624,-1.0,0.0,0.0,-2.0,-1.0,2.0,-2.0,1.0,0.958984375,-0.1259765625,0.22119140625,-0.12195121951219513,-0.30487804878048785,-0.12195121951219513
14_12_55_624,1.0,-2.0,-1.0,-1.0,-3.0,0.0,-1.0,-1.0,0.958984375,-0.11328125,0.22314453125,-0.7317073170731708,-0.48780487804878053,0.0
14_12_55_694,0.0,0.0,-1.0,-1.0,1.0,0.0,0.0,0.0,0.955078125,-0.14111328125,0.220703125,1.707317073170732,-0.3658536585365854,-1.1585365853658538
14_12_55_694,-1.0,0.0,-1.0,6.0,9.0,5.0,0.0,1.0,0.94677734375,-0.13720703125,0.21875,1.1585365853658538,-0.06097560975609757,-1.2195121951219514
14_12_55_694,-2.0,-2.0,0.0,0.0,-4.0,-2.0,-3.0,-5.0,0.94970703125,-0.13037109375,0.21630859375,0.06097560975609757,-0.1829268292682927,-0.9756097560975611
14_12_55_694,-3.0,0.0,-3.0,-5.0,-5.0,-3.0,-1.0,-2.0,0.95263671875,-0.11669921875,0.22607421875,0.426829268292683,-0.12195121951219513,-0.6097560975609757
14_12_55_694,-4.0,0.0,-1.0,-2.0,1.0,0.0,0.0,0.0,0.95654296875,-0.11474609375,0.21923828125,1.9512195121951221,-0.06097560975609757,-0.5487804878048781
14_12_55_694,0.0,0.0,-1.0,0.0,1.0,0.0,-3.0,-3.0,0.9619140625,-0.12109375,0.2216796875,1.5853658536585367,-0.12195121951219513,-0.3658536585365854
14_12_55_694,0.0,-5.0,1.0,-2.0,0.0,0.0,1.0,0.0,0.9609375,-0.125,0.22021484375,0.7926829268292683,-0.426829268292683,0.06097560975609757
14_12_55_694,-1.0,-2.0,-1.0,-3.0,-3.0,0.0,1.0,-2.0,0.95751953125,-0.1162109375,0.2197265625,0.6707317073170732,-0.426829268292683,0.1829268292682927
14_12_55_694,-2.0,0.0,1.0,-1.0,1.0,0.0,0.0,1.0,0.9609375,-0.111328125,0.2216796875,1.402439024390244,-0.6707317073170732,-0.12195121951219513
14_12_55_694,-2.0,-3.0,-1.0,-2.0,-3.0,-1.0,1.0,0.0,0.9580078125,-0.115234375,0.2275390625,1.8902439024390245,-0.48780487804878053,-0.30487804878048785
14_12_55_740,-2.0,-3.0,0.0,3.0,7.0,0.0,2.0,-2.0,0.96875,-0.16357421875,0.23095703125,2.6219512195121952,-1.7682926829268295,-0.06097560975609757
14_12_55_740,-1.0,-1.0,-3.0,-3.0,2.0,-1.0,-1.0,-1.0,0.970703125,-0.15185546875,0.22216796875,1.5853658536585367,-1.2804878048780488,-1.2804878048780488
14_12_55_740,-2.0,-2.0,-1.0,-4.0,-7.0,0.0,-1.0,-2.0,0.955078125,-0.14111328125,0.220703125,1.707317073170732,-0.3658536585365854,-1.1585365853658538
14_12_55_740,0.0,-2.0,0.0,1.0,2.0,0.0,1.0,-1.0,0.94677734375,-0.13720703125,0.21875,1.1585365853658538,-0.06097560975609757,-1.2195121951219514
14_12_55_740,0.0,0.0,1.0,1.0,-2.0,1.0,-1.0,0.0,0.94970703125,-0.13037109375,0.21630859375,0.06097560975609757,-0.1829268292682927,-0.9756097560975611
14_12_55_740,-3.0,2.0,-3.0,-3.0,-2.0,-1.0,-1.0,-2.0,0.95263671875,-0.11669921875,0.22607421875,0.426829268292683,-0.12195121951219513,-0.6097560975609757
14_12_55_740,-1.0,0.0,3.0,0.0,0.0,-1.0,-1.0,-1.0,0.95654296875,-0.11474609375,0.21923828125,1.9512195121951221,-0.06097560975609757,-0.5487804878048781
14_12_55_740,1.0,-1.0,-2.0,-2.0,-2.0,0.0,-1.0,0.0,0.9619140625,-0.12109375,0.2216796875,1.5853658536585367,-0.12195121951219513,-0.3658536585365854
14_12_55_740,-1.0,-1.0,-1.0,-1.0,-6.0,-1.0,0.0,-1.0,0.9609375,-0.125,0.22021484375,0.7926829268292683,-0.426829268292683,0.06097560975609757
14_12_55_811,0.0,-1.0,-5.0,-2.0,-10.0,-8.0,-2.0,-2.0,0.98828125,-0.20263671875,0.2412109375,11.951219512195124,0.06097560975609757,2.1951219512195124
14_12_55_811,-2.0,-2.0,-3.0,0.0,4.0,1.0,1.0,0.0,0.9775390625,-0.2080078125,0.244140625,10.731707317073171,-1.9512195121951221,2.0121951219512195
14_12_55_811,-1.0,0.0,0.0,1.0,0.0,4.0,-1.0,-2.0,0.96826171875,-0.20703125,0.24951171875,7.8048780487804885,-2.6219512195121952,1.3414634146341464
14_12_55_811,-1.0,2.0,-2.0,-1.0,3.0,-5.0,0.0,-4.0,0.9658203125,-0.19287109375,0.24609375,4.390243902439025,-2.378048780487805,0.7317073170731708
14_12_55_811,-1.0,-3.0,-4.0,0.0,-2.0,-2.0,1.0,-1.0,0.96875,-0.16357421875,0.23095703125,2.6219512195121952,-1.7682926829268295,-0.06097560975609757
14_12_55_811,-1.0,-2.0,-2.0,2.0,1.0,-3.0,0.0,-3.0,0.970703125,-0.15185546875,0.22216796875,1.5853658536585367,-1.2804878048780488,-1.2804878048780488
14_12_55_811,-2.0,-1.0,2.0,-2.0,-1.0,0.0,0.0,-2.0,0.955078125,-0.14111328125,0.220703125,1.707317073170732,-0.3658536585365854,-1.1585365853658538
14_12_55_811,0.0,0.0,-1.0,-2.0,-3.0,0.0,-1.0,0.0,0.94677734375,-0.13720703125,0.21875,1.1585365853658538,-0.06097560975609757,-1.2195121951219514
14_12_55_811,1.0,0.0,-8.0,-15.0,-5.0,-2.0,0.0,-1.0,0.94970703125,-0.13037109375,0.21630859375,0.06097560975609757,-0.1829268292682927,-0.9756097560975611
14_12_55_811,-3.0,-3.0,2.0,5.0,9.0,2.0,1.0,-2.0,0.95263671875,-0.11669921875,0.22607421875,0.426829268292683,-0.12195121951219513,-0.6097560975609757
14_12_55_864,0.0,-2.0,1.0,0.0,-3.0,-1.0,0.0,-3.0,0.95751953125,-0.1708984375,0.25,-0.9756097560975611,12.926829268292684,9.146341463414634
14_12_55_864,0.0,-1.0,-1.0,-2.0,-2.0,-3.0,0.0,1.0,0.95947265625,-0.14599609375,0.24462890625,1.8902439024390245,9.146341463414634,6.707317073170732
14_12_55_864,-1.0,-2.0,0.0,-3.0,-1.0,1.0,-3.0,2.0,0.9892578125,-0.162109375,0.2431640625,8.414634146341465,4.2682926829268295,3.231707317073171
14_12_55_864,1.0,-2.0,-3.0,-2.0,1.0,1.0,-5.0,-2.0,0.98828125,-0.20263671875,0.2412109375,11.951219512195124,0.06097560975609757,2.1951219512195124
14_12_55_864,0.0,-2.0,-1.0,-1.0,0.0,-2.0,1.0,0.0,0.9775390625,-0.2080078125,0.244140625,10.731707317073171,-1.9512195121951221,2.0121951219512195
14_12_55_864,-2.0,0.0,-1.0,0.0,0.0,-3.0,1.0,0.0,0.96826171875,-0.20703125,0.24951171875,7.8048780487804885,-2.6219512195121952,1.3414634146341464
14_12_55_864,-2.0,-1.0,0.0,2.0,-2.0,-1.0,-1.0,0.0,0.9658203125,-0.19287109375,0.24609375,4.390243902439025,-2.378048780487805,0.7317073170731708
14_12_55_864,1.0,1.0,0.0,-1.0,-1.0,-2.0,-3.0,-3.0,0.96875,-0.16357421875,0.23095703125,2.6219512195121952,-1.7682926829268295,-0.06097560975609757
14_12_55_864,-2.0,0.0,-3.0,-2.0,-9.0,-4.0,-1.0,2.0,0.970703125,-0.15185546875,0.22216796875,1.5853658536585367,-1.2804878048780488,-1.2804878048780488
14_12_55_864,0.0,-4.0,-1.0,-1.0,-11.0,0.0,-1.0,-4.0,0.955078125,-0.14111328125,0.220703125,1.707317073170732,-0.3658536585365854,-1.1585365853658538
14_12_55_924,-2.0,-3.0,0.0,1.0,-3.0,0.0,1.0,-1.0,0.9296875,-0.17041015625,0.2763671875,12.073170731707318,18.414634146341466,11.951219512195124
14_12_55_924,1.0,1.0,-10.0,-21.0,-5.0,0.0,0.0,0.0,0.94775390625,-0.19140625,0.2744140625,12.073170731707318,17.378048780487806,11.463414634146343
14_12_55_924,-1.0,-3.0,-2.0,7.0,1.0,1.0,1.0,1.0,0.95751953125,-0.20263671875,0.27197265625,4.939024390243903,15.487804878048783,10.914634146341465
14_12_55_924,-2.0,0.0,-3.0,0.0,0.0,-3.0,-2.0,0.0,0.95751953125,-0.1708984375,0.25,-0.9756097560975611,12.926829268292684,9.146341463414634
14_12_55_924,-2.0,-3.0,2.0,-3.0,-1.0,0.0,-3.0,2.0,0.95947265625,-0.14599609375,0.24462890625,1.8902439024390245,9.146341463414634,6.707317073170732
14_12_55_924,-4.0,-2.0,-1.0,3.0,-1.0,-3.0,-1.0,1.0,0.9892578125,-0.162109375,0.2431640625,8.414634146341465,4.2682926829268295,3.231707317073171
14_12_55_924,-1.0,-1.0,-2.0,0.0,0.0,0.0,0.0,0.0,0.98828125,-0.20263671875,0.2412109375,11.951219512195124,0.06097560975609757,2.1951219512195124
14_12_55_924,-3.0,-3.0,-1.0,-1.0,-2.0,-2.0,0.0,0.0,0.9775390625,-0.2080078125,0.244140625,10.731707317073171,-1.9512195121951221,2.0121951219512195
14_12_55_924,3.0,-2.0,-1.0,-3.0,-4.0,-1.0,-2.0,3.0,0.96826171875,-0.20703125,0.24951171875,7.8048780487804885,-2.6219512195121952,1.3414634146341464
14_12_55_924,-1.0,0.0,1.0,-1.0,-3.0,-3.0,-1.0,-1.0,0.9658203125,-0.19287109375,0.24609375,4.390243902439025,-2.378048780487805,0.7317073170731708
14_12_55_964,2.0,1.0,0.0,2.0,0.0,0.0,-1.0,-1.0,0.93505859375,-0.17724609375,0.25830078125,8.963414634146343,18.170731707317074,11.890243902439025
14_12_55_964,0.0,-1.0,1.0,5.0,9.0,6.0,-1.0,0.0,0.9296875,-0.17041015625,0.2763671875,12.073170731707318,18.414634146341466,11.951219512195124
14_12_55_964,-1.0,1.0,0.0,-4.0,-2.0,-3.0,0.0,-1.0,0.94775390625,-0.19140625,0.2744140625,12.073170731707318,17.378048780487806,11.463414634146343
14_12_55_964,-2.0,-2.0,-2.0,-1.0,-6.0,-1.0,-2.0,-1.0,0.95751953125,-0.20263671875,0.27197265625,4.939024390243903,15.487804878048783,10.914634146341465
14_12_55_964,0.0,1.0,0.0,0.0,2.0,-1.0,1.0,0.0,0.95751953125,-0.1708984375,0.25,-0.9756097560975611,12.926829268292684,9.146341463414634
14_12_55_964,0.0,-4.0,-1.0,-1.0,0.0,-2.0,-2.0,-3.0,0.95947265625,-0.14599609375,0.24462890625,1.8902439024390245,9.146341463414634,6.707317073170732
14_12_55_964,-2.0,-3.0,0.0,1.0,3.0,2.0,0.0,-3.0,0.9892578125,-0.162109375,0.2431640625,8.414634146341465,4.2682926829268295,3.231707317073171
14_12_55_964,0.0,-1.0,-1.0,1.0,-2.0,-2.0,-3.0,-3.0,0.98828125,-0.20263671875,0.2412109375,11.951219512195124,0.06097560975609757,2.1951219512195124
14_12_55_964,0.0,-2.0,0.0,1.0,-1.0,-1.0,0.0,1.0,0.9775390625,-0.2080078125,0.244140625,10.731707317073171,-1.9512195121951221,2.0121951219512195
14_12_56_029,0.0,1.0,-1.0,8.0,6.0,1.0,1.0,-1.0,0.953125,-0.1826171875,0.26123046875,0.3658536585365854,19.390243902439025,8.109756097560977
14_12_56_029,-5.0,0.0,1.0,-1.0,-3.0,3.0,1.0,-2.0,0.95263671875,-0.17919921875,0.24951171875,4.51219512195122,18.53658536585366,10.30487804878049
14_12_56_029,0.0,0.0,-3.0,-3.0,-3.0,-1.0,-1.0,0.0,0.93505859375,-0.17724609375,0.25830078125,8.963414634146343,18.170731707317074,11.890243902439025
14_12_56_029,-1.0,-2.0,-4.0,-4.0,-7.0,-4.0,0.0,-4.0,0.9296875,-0.17041015625,0.2763671875,12.073170731707318,18.414634146341466,11.951219512195124
14_12_56_029,-4.0,1.0,2.0,-2.0,-11.0,-1.0,0.0,-1.0,0.94775390625,-0.19140625,0.2744140625,12.073170731707318,17.378048780487806,11.463414634146343
14_12_56_029,0.0,-2.0,-1.0,5.0,32.0,-1.0,0.0,1.0,0.95751953125,-0.20263671875,0.27197265625,4.939024390243903,15.487804878048783,10.914634146341465
14_12_56_029,0.0,-1.0,-2.0,3.0,-12.0,4.0,1.0,-1.0,0.95751953125,-0.1708984375,0.25,-0.9756097560975611,12.926829268292684,9.146341463414634
14_12_56_029,-1.0,-2.0,-4.0,-2.0,-9.0,-6.0,-2.0,1.0,0.95947265625,-0.14599609375,0.24462890625,1.8902439024390245,9.146341463414634,6.707317073170732
14_12_56_084,-1.0,-3.0,-4.0,-7.0,-5.0,-3.0,-1.0,-3.0,0.90087890625,-0.16845703125,0.3203125,-3.8414634146341466,22.073170731707318,7.500000000000001
14_12_56_084,-3.0,-1.0,-3.0,-4.0,-6.0,-2.0,-4.0,-2.0,0.91357421875,-0.16943359375,0.30517578125,-1.7682926829268295,23.78048780487805,6.036585365853659
14_12_56_084,1.0,4.0,4.0,17.0,5.0,5.0,1.0,1.0,0.9267578125,-0.1796875,0.294921875,-1.829268292682927,22.012195121951223,6.402439024390245
14_12_56_084,0.0,2.0,0.0,-4.0,10.0,0.0,-1.0,-1.0,0.93359375,-0.18701171875,0.28955078125,-3.9024390243902443,20.60975609756098,7.621951219512196
14_12_56_084,-3.0,6.0,-3.0,-10.0,-12.0,-4.0,-2.0,-4.0,0.94287109375,-0.181640625,0.279296875,-3.231707317073171,19.878048780487806,7.926829268292684
14_12_56_084,-2.0,-1.0,-1.0,0.0,1.0,0.0,-1.0,0.0,0.953125,-0.1826171875,0.26123046875,0.3658536585365854,19.390243902439025,8.109756097560977
14_12_56_084,1.0,-2.0,0.0,-14.0,-4.0,-4.0,-4.0,-1.0,0.95263671875,-0.17919921875,0.24951171875,4.51219512195122,18.53658536585366,10.30487804878049
14_12_56_084,-1.0,6.0,3.0,4.0,3.0,0.0,1.0,1.0,0.93505859375,-0.17724609375,0.25830078125,8.963414634146343,18.170731707317074,11.890243902439025
14_12_56_084,-2.0,0.0,-4.0,0.0,1.0,-1.0,-1.0,-1.0,0.9296875,-0.17041015625,0.2763671875,12.073170731707318,18.414634146341466,11.951219512195124
14_12_56_084,-1.0,-2.0,-7.0,-17.0,-7.0,-1.0,-1.0,-2.0,0.94775390625,-0.19140625,0.2744140625,12.073170731707318,17.378048780487806,11.463414634146343
14_12_56_144,-2.0,-5.0,2.0,6.0,1.0,3.0,-1.0,-1.0,0.85302734375,-0.17919921875,0.3857421875,-2.439024390243903,34.08536585365854,13.78048780487805
14_12_56_144,2.0,2.0,-1.0,2.0,-15.0,-3.0,-1.0,-2.0,0.88134765625,-0.16015625,0.3662109375,-3.9024390243902443,28.414634146341466,12.01219512195122
14_12_56_144,-8.0,-3.0,-1.0,2.0,2.0,-1.0,-3.0,-2.0,0.8974609375,-0.173828125,0.337890625,-6.097560975609756,23.10975609756098,9.451219512195122
14_12_56_144,3.0,4.0,-10.0,-20.0,-1.0,-1.0,2.0,0.0,0.90087890625,-0.16845703125,0.3203125,-3.8414634146341466,22.073170731707318,7.500000000000001
14_12_56_144,-2.0,-4.0,-1.0,6.0,0.0,4.0,-1.0,1.0,0.91357421875,-0.16943359375,0.30517578125,-1.7682926829268295,23.78048780487805,6.036585365853659
14_12_56_144,-2.0,0.0,-3.0,-1.0,0.0,-1.0,1.0,1.0,0.9267578125,-0.1796875,0.294921875,-1.829268292682927,22.012195121951223,6.402439024390245
14_12_56_144,-1.0,0.0,0.0,0.0,-5.0,-1.0,0.0,-2.0,0.93359375,-0.18701171875,0.28955078125,-3.9024390243902443,20.60975609756098,7.621951219512196
14_12_56_144,-2.0,-1.0,1.0,-1.0,-1.0,-1.0,-2.0,-1.0,0.94287109375,-0.181640625,0.279296875,-3.231707317073171,19.878048780487806,7.926829268292684
14_12_56_144,-1.0,-3.0,-2.0,2.0,14.0,2.0,1.0,0.0,0.953125,-0.1826171875,0.26123046875,0.3658536585365854,19.390243902439025,8.109756097560977
14_12_56_144,2.0,-1.0,-4.0,-5.0,-7.0,-2.0,-3.0,1.0,0.95263671875,-0.17919921875,0.24951171875,4.51219512195122,18.53658536585366,10.30487804878049
14_12_56_184,1.0,0.0,-4.0,3.0,-1.0,-2.0,-4.0,-5.0,0.88671875,-0.1923828125,0.4306640625,-1.2804878048780488,37.5609756097561,17.621951219512198
14_12_56_184,-2.0,-3.0,2.0,2.0,-6.0,-3.0,-1.0,1.0,0.8603515625,-0.19921875,0.4150390625,-1.9512195121951221,37.31707317073171,15.000000000000002
14_12_56_184,0.0,-6.0,-2.0,-1.0,10.0,0.0,0.0,1.0,0.85302734375,-0.17919921875,0.3857421875,-2.439024390243903,34.08536585365854,13.78048780487805
14_12_56_184,0.0,-10.0,-3.0,0.0,1.0,6.0,0.0,-2.0,0.88134765625,-0.16015625,0.3662109375,-3.9024390243902443,28.414634146341466,12.01219512195122
14_12_56_184,-3.0,-3.0,-7.0,-6.0,-4.0,-6.0,-5.0,-2.0,0.8974609375,-0.173828125,0.337890625,-6.097560975609756,23.10975609756098,9.451219512195122
14_12_56_184,2.0,28.0,5.0,-5.0,-5.0,-3.0,-1.0,1.0,0.90087890625,-0.16845703125,0.3203125,-3.8414634146341466,22.073170731707318,7.500000000000001
14_12_56_184,2.0,2.0,5.0,-17.0,-3.0,-4.0,-1.0,-1.0,0.91357421875,-0.16943359375,0.30517578125,-1.7682926829268295,23.78048780487805,6.036585365853659
14_12_56_184,-4.0,-8.0,4.0,23.0,1.0,3.0,1.0,-2.0,0.9267578125,-0.1796875,0.294921875,-1.829268292682927,22.012195121951223,6.402439024390245
14_12_56_184,-2.0,-3.0,-10.0,15.0,-8.0,-1.0,2.0,-1.0,0.93359375,-0.18701171875,0.28955078125,-3.9024390243902443,20.60975609756098,7.621951219512196
14_12_56_184,6.0,49.0,6.0,-4.0,-6.0,-5.0,-3.0,0.0,0.94287109375,-0.181640625,0.279296875,-3.231707317073171,19.878048780487806,7.926829268292684
14_12_56_254,-1.0,3.0,4.0,6.0,18.0,2.0,1.0,0.0,0.82666015625,-0.18505859375,0.54052734375,-19.207317073170735,53.41463414634147,28.231707317073173
14_12_56_254,4.0,20.0,14.0,13.0,3.0,1.0,1.0,-1.0,0.90673828125,-0.177734375,0.48876953125,-15.670731707317074,48.78048780487805,22.5609756097561
14_12_56_254,-2.0,6.0,0.0,-6.0,-4.0,-4.0,-1.0,2.0,0.9306640625,-0.19580078125,0.44384765625,-8.231707317073171,41.768292682926834,19.573170731707318
14_12_56_254,0.0,-11.0,-6.0,1.0,9.0,3.0,-1.0,-2.0,0.88671875,-0.1923828125,0.4306640625,-1.2804878048780488,37.5609756097561,17.621951219512198
14_12_56_254,1.0,1.0,0.0,3.0,-8.0,-1.0,-1.0,1.0,0.8603515625,-0.19921875,0.4150390625,-1.9512195121951221,37.31707317073171,15.000000000000002
14_12_56_254,2.0,-4.0,-6.0,-9.0,7.0,5.0,1.0,1.0,0.85302734375,-0.17919921875,0.3857421875,-2.439024390243903,34.08536585365854,13.78048780487805
14_12_56_254,-1.0,0.0,-2.0,2.0,-2.0,0.0,-1.0,-3.0,0.88134765625,-0.16015625,0.3662109375,-3.9024390243902443,28.414634146341466,12.01219512195122
14_12_56_254,1.0,-2.0,0.0,-1.0,-3.0,-3.0,-1.0,0.0,0.8974609375,-0.173828125,0.337890625,-6.097560975609756,23.10975609756098,9.451219512195122
14_12_56_254,0.0,-2.0,7.0,-1.0,-2.0,-3.0,-4.0,-3.0,0.90087890625,-0.16845703125,0.3203125,-3.8414634146341466,22.073170731707318,7.500000000000001
14_12_56_254,-6.0,-3.0,-6.0,-2.0,2.0,-3.0,1.0,2.0,0.91357421875,-0.16943359375,0.30517578125,-1.7682926829268295,23.78048780487805,6.036585365853659
14_12_56_304,2.0,-5.0,-6.0,-19.0,-12.0,-6.0,-4.0,1.0,0.7763671875,-0.3154296875,0.64208984375,-7.500000000000001,51.646341463414636,34.63414634146342
14_12_56_304,0.0,6.0,-1.0,-3.0,10.0,3.0,-3.0,0.0,0.77197265625,-0.271484375,0.625,-15.975609756097562,51.40243902439025,36.28048780487805
14_12_56_304,1.0,17.0,-1.0,14.0,3.0,3.0,3.0,-1.0,0.775390625,-0.2236328125,0.59521484375,-18.902439024390244,53.23170731707317,34.51219512195122
14_12_56_304,2.0,5.0,-1.0,31.0,-5.0,-1.0,-1.0,1.0,0.82666015625,-0.18505859375,0.54052734375,-19.207317073170735,53.41463414634147,28.231707317073173
14_12_56_304,-2.0,1.0,3.0,-45.0,-6.0,-4.0,0.0,-3.0,0.90673828125,-0.177734375,0.48876953125,-15.670731707317074,48.78048780487805,22.5609756097561
14_12_56_304,-4.0,-10.0,-8.0,3.0,4.0,-1.0,-1.0,1.0,0.9306640625,-0.19580078125,0.44384765625,-8.231707317073171,41.768292682926834,19.573170731707318
14_12_56_304,-3.0,-3.0,0.0,-1.0,0.0,-2.0,-1.0,-2.0,0.88671875,-0.1923828125,0.4306640625,-1.2804878048780488,37.5609756097561,17.621951219512198
14_12_56_304,-3.0,0.0,3.0,8.0,-2.0,0.0,-4.0,-2.0,0.8603515625,-0.19921875,0.4150390625,-1.9512195121951221,37.31707317073171,15.000000000000002
14_12_56_304,-2.0,-3.0,-4.0,-1.0,-3.0,-5.0,-2.0,-4.0,0.85302734375,-0.17919921875,0.3857421875,-2.439024390243903,34.08536585365854,13.78048780487805
14_12_56_304,-4.0,-12.0,-10.0,-13.0,-9.0,-4.0,0.0,-1.0,0.88134765625,-0.16015625,0.3662109375,-3.9024390243902443,28.414634146341466,12.01219512195122
14_12_56_374,2.0,3.0,-6.0,16.0,-3.0,-2.0,-3.0,-3.0,0.6748046875,-0.3115234375,0.68359375,-0.30487804878048785,49.57317073170732,38.963414634146346
14_12_56_374,-1.0,6.0,7.0,-13.0,-4.0,-4.0,-5.0,-1.0,0.72705078125,-0.31689453125,0.66357421875,-2.804878048780488,50.97560975609756,34.57317073170732
14_12_56_374,-3.0,-7.0,3.0,11.0,-3.0,-4.0,-1.0,1.0,0.76416015625,-0.3173828125,0.6484375,-2.3170731707317076,51.768292682926834,33.29268292682927
14_12_56_374,-3.0,-22.0,-26.0,-10.0,-3.0,-2.0,0.0,0.0,0.7763671875,-0.3154296875,0.64208984375,-7.500000000000001,51.646341463414636,34.63414634146342
14_12_56_374,1.0,7.0,3.0,-9.0,9.0,2.0,0.0,-3.0,0.77197265625,-0.271484375,0.625,-15.975609756097562,51.40243902439025,36.28048780487805
14_12_56_374,-4.0,-10.0,1.0,19.0,4.0,-1.0,0.0,-3.0,0.775390625,-0.2236328125,0.59521484375,-18.902439024390244,53.23170731707317,34.51219512195122
14_12_56_374,-4.0,-16.0,-14.0,-18.0,-2.0,0.0,-4.0,-3.0,0.82666015625,-0.18505859375,0.54052734375,-19.207317073170735,53.41463414634147,28.231707317073173
14_12_56_374,0.0,-5.0,-2.0,0.0,1.0,-2.0,-1.0,0.0,0.90673828125,-0.177734375,0.48876953125,-15.670731707317074,48.78048780487805,22.5609756097561
14_12_56_374,-5.0,7.0,-6.0,-1.0,-6.0,-4.0,0.0,-3.0,0.9306640625,-0.19580078125,0.44384765625,-8.231707317073171,41.768292682926834,19.573170731707318
14_12_56_374,-1.0,45.0,1.0,-1.0,-6.0,-1.0,-1.0,-3.0,0.88671875,-0.1923828125,0.4306640625,-1.2804878048780488,37.5609756097561,17.621951219512198
14_12_56_424,8.0,24.0,49.0,23.0,-1.0,-1.0,2.0,2.0,0.60107421875,-0.30419921875,0.66796875,13.231707317073171,53.90243902439025,42.804878048780495
14_12_56_424,-16.0,6.0,7.0,17.0,9.0,2.0,-5.0,-5.0,0.6142578125,-0.29052734375,0.662109375,8.414634146341465,54.51219512195122,40.91463414634147
14_12_56_424,5.0,-6.0,-9.0,-41.0,-9.0,-3.0,1.0,-1.0,0.65283203125,-0.29443359375,0.67333984375,3.536585365853659,51.82926829268293,40.304878048780495
14_12_56_424,-1.0,-10.0,-1.0,4.0,0.0,-3.0,-5.0,-2.0,0.6748046875,-0.3115234375,0.68359375,-0.30487804878048785,49.57317073170732,38.963414634146346
14_12_56_424,-4.0,16.0,1.0,1.0,0.0,2.0,0.0,-4.0,0.72705078125,-0.31689453125,0.66357421875,-2.804878048780488,50.97560975609756,34.57317073170732
14_12_56_424,4.0,6.0,-1.0,14.0,12.0,1.0,2.0,0.0,0.76416015625,-0.3173828125,0.6484375,-2.3170731707317076,51.768292682926834,33.29268292682927
14_12_56_424,5.0,-21.0,4.0,-9.0,-10.0,-2.0,0.0,1.0,0.7763671875,-0.3154296875,0.64208984375,-7.500000000000001,51.646341463414636,34.63414634146342
14_12_56_424,-1.0,1.0,-1.0,0.0,-3.0,1.0,-1.0,0.0,0.77197265625,-0.271484375,0.625,-15.975609756097562,51.40243902439025,36.28048780487805
14_12_56_424,0.0,7.0,-3.0,1.0,4.0,-1.0,-4.0,0.0,0.775390625,-0.2236328125,0.59521484375,-18.902439024390244,53.23170731707317,34.51219512195122
14_12_56_424,-3.0,-2.0,-7.0,-1.0,-4.0,-2.0,-3.0,1.0,0.82666015625,-0.18505859375,0.54052734375,-19.207317073170735,53.41463414634147,28.231707317073173
14_12_56_469,1.0,3.0,9.0,-16.0,-3.0,0.0,-3.0,0.0,0.611328125,-0.32177734375,0.6484375,13.353658536585368,50.60975609756098,47.19512195121952
14_12_56_469,-1.0,0.0,-2.0,11.0,7.0,2.0,-2.0,2.0,0.6064453125,-0.31591796875,0.67333984375,13.963414634146343,51.524390243902445,46.15853658536586
14_12_56_469,0.0,-1.0,-4.0,4.0,-3.0,-4.0,1.0,0.0,0.60107421875,-0.30419921875,0.66796875,13.231707317073171,53.90243902439025,42.804878048780495
14_12_56_469,0.0,3.0,8.0,-6.0,0.0,-2.0,-2.0,-3.0,0.6142578125,-0.29052734375,0.662109375,8.414634146341465,54.51219512195122,40.91463414634147
14_12_56_469,-3.0,-4.0,-5.0,-7.0,-5.0,-2.0,-2.0,-2.0,0.65283203125,-0.29443359375,0.67333984375,3.536585365853659,51.82926829268293,40.304878048780495
14_12_56_469,-1.0,-8.0,-5.0,-3.0,5.0,1.0,1.0,0.0,0.6748046875,-0.3115234375,0.68359375,-0.30487804878048785,49.57317073170732,38.963414634146346
14_12_56_469,-1.0,-2.0,-7.0,-14.0,-3.0,-5.0,-1.0,-1.0,0.72705078125,-0.31689453125,0.66357421875,-2.804878048780488,50.97560975609756,34.57317073170732
14_12_56_469,3.0,-3.0,-9.0,4.0,8.0,0.0,1.0,2.0,0.76416015625,-0.3173828125,0.6484375,-2.3170731707317076,51.768292682926834,33.29268292682927
14_12_56_469,-5.0,-9.0,2.0,3.0,-2.0,0.0,-3.0,0.0,0.7763671875,-0.3154296875,0.64208984375,-7.500000000000001,51.646341463414636,34.63414634146342
14_12_56_544,-1.0,-4.0,24.0,-2.0,-4.0,-1.0,0.0,-1.0,0.53369140625,-0.37255859375,0.65966796875,15.121951219512196,39.268292682926834,47.6219512195122
14_12_56_544,2.0,-2.0,-1.0,-1.0,-1.0,0.0,0.0,-3.0,0.50927734375,-0.32958984375,0.67724609375,12.073170731707318,46.82926829268293,47.743902439024396
14_12_56_544,-3.0,-13.0,-9.0,-4.0,-2.0,-1.0,-1.0,-1.0,0.54150390625,-0.30224609375,0.64599609375,12.80487804878049,51.34146341463415,45.85365853658537
14_12_56_544,5.0,12.0,15.0,2.0,-1.0,0.0,-1.0,0.0,0.58984375,-0.302734375,0.64111328125,15.243902439024392,51.646341463414636,46.40243902439025
14_12_56_544,-5.0,-3.0,14.0,14.0,-2.0,-2.0,-1.0,-1.0,0.611328125,-0.32177734375,0.6484375,13.353658536585368,50.60975609756098,47.19512195121952
14_12_56_544,-9.0,-2.0,-13.0,-16.0,-5.0,-4.0,-3.0,-3.0,0.6064453125,-0.31591796875,0.67333984375,13.963414634146343,51.524390243902445,46.15853658536586
14_12_56_544,-4.0,-13.0,-26.0,-12.0,-3.0,0.0,-3.0,-3.0,0.60107421875,-0.30419921875,0.66796875,13.231707317073171,53.90243902439025,42.804878048780495
14_12_56_544,-14.0,-40.0,-5.0,2.0,-1.0,0.0,1.0,-2.0,0.6142578125,-0.29052734375,0.662109375,8.414634146341465,54.51219512195122,40.91463414634147
14_12_56_544,0.0,26.0,11.0,21.0,3.0,1.0,1.0,1.0,0.65283203125,-0.29443359375,0.67333984375,3.536585365853659,51.82926829268293,40.304878048780495
14_12_56_544,5.0,27.0,13.0,9.0,-1.0,-4.0,0.0,3.0,0.6748046875,-0.3115234375,0.68359375,-0.30487804878048785,49.57317073170732,38.963414634146346
14_12_56_595,0.0,-7.0,-17.0,1.0,-4.0,-4.0,-3.0,-5.0,0.54345703125,-0.361328125,0.6640625,22.195121951219512,36.58536585365854,44.268292682926834
14_12_56_595,4.0,33.0,-3.0,-33.0,-4.0,-1.0,1.0,-1.0,0.5478515625,-0.345703125,0.66748046875,22.31707317073171,39.146341463414636,45.79268292682927
14_12_56_595,-7.0,-39.0,40.0,27.0,16.0,5.0,-4.0,-1.0,0.53369140625,-0.37255859375,0.65966796875,15.121951219512196,39.268292682926834,47.6219512195122
14_12_56_595,16.0,-11.0,-3.0,13.0,3.0,-3.0,-2.0,-1.0,0.50927734375,-0.32958984375,0.67724609375,12.073170731707318,46.82926829268293,47.743902439024396
14_12_56_595,-2.0,-4.0,-42.0,-29.0,-8.0,-3.0,0.0,-2.0,0.54150390625,-0.30224609375,0.64599609375,12.80487804878049,51.34146341463415,45.85365853658537
14_12_56_595,0.0,-4.0,7.0,7.0,5.0,-1.0,0.0,0.0,0.58984375,-0.302734375,0.64111328125,15.243902439024392,51.646341463414636,46.40243902439025
14_12_56_595,-1.0,8.0,4.0,6.0,-1.0,-1.0,-2.0,-13.0,0.611328125,-0.32177734375,0.6484375,13.353658536585368,50.60975609756098,47.19512195121952
14_12_56_595,4.0,4.0,-64.0,-12.0,-4.0,0.0,-1.0,2.0,0.6064453125,-0.31591796875,0.67333984375,13.963414634146343,51.524390243902445,46.15853658536586
14_12_56_595,-2.0,-1.0,71.0,-6.0,4.0,0.0,1.0,-3.0,0.60107421875,-0.30419921875,0.66796875,13.231707317073171,53.90243902439025,42.804878048780495
14_12_56_595,-3.0,1.0,-109.0,-24.0,-4.0,1.0,0.0,-1.0,0.6142578125,-0.29052734375,0.662109375,8.414634146341465,54.51219512195122,40.91463414634147
14_12_56_654,-3.0,-1.0,-13.0,21.0,33.0,7.0,3.0,2.0,0.54931640625,-0.34375,0.7060546875,10.914634146341465,24.451219512195124,46.82926829268293
14_12_56_654,-4.0,0.0,-11.0,-72.0,-13.0,-1.0,-3.0,-4.0,0.52099609375,-0.33447265625,0.681640625,15.609756097560977,26.951219512195124,44.146341463414636
14_12_56_654,31.0,-6.0,18.0,71.0,-12.0,-8.0,-12.0,-9.0,0.525390625,-0.36279296875,0.66162109375,16.646341463414636,32.19512195121951,41.768292682926834
14_12_56_654,-12.0,-4.0,0.0,-13.0,-1.0,2.0,0.0,-3.0,0.54345703125,-0.361328125,0.6640625,22.195121951219512,36.58536585365854,44.268292682926834
14_12_56_654,-2.0,-14.0,-31.0,12.0,2.0,-4.0,-2.0,-9.0,0.5478515625,-0.345703125,0.66748046875,22.31707317073171,39.146341463414636,45.79268292682927
14_12_56_654,4.0,-3.0,5.0,10.0,1.0,-3.0,9.0,42.0,0.53369140625,-0.37255859375,0.65966796875,15.121951219512196,39.268292682926834,47.6219512195122
14_12_56_654,27.0,54.0,28.0,-10.0,-4.0,-3.0,-10.0,-20.0,0.50927734375,-0.32958984375,0.67724609375,12.073170731707318,46.82926829268293,47.743902439024396
14_12_56_654,-13.0,-24.0,58.0,4.0,3.0,18.0,9.0,79.0,0.54150390625,-0.30224609375,0.64599609375,12.80487804878049,51.34146341463415,45.85365853658537
14_12_56_654,7.0,12.0,-106.0,-12.0,-3.0,-6.0,-38.0,9.0,0.58984375,-0.302734375,0.64111328125,15.243902439024392,51.646341463414636,46.40243902439025
14_12_56_654,-19.0,-21.0,38.0,-11.0,-3.0,-6.0,13.0,11.0,0.611328125,-0.32177734375,0.6484375,13.353658536585368,50.60975609756098,47.19512195121952
14_12_56_707,-6.0,-3.0,-9.0,-8.0,-1.0,0.0,1.0,-2.0,0.5966796875,-0.41845703125,0.69873046875,-2.1951219512195124,18.353658536585368,41.21951219512196
14_12_56_707,2.0,-1.0,-24.0,16.0,0.0,0.0,-1.0,2.0,0.580078125,-0.36474609375,0.70751953125,5.7926829268292686,24.695121951219516,45.73170731707317
14_12_56_707,2.0,2.0,47.0,14.0,6.0,2.0,0.0,0.0,0.54931640625,-0.34375,0.7060546875,10.914634146341465,24.451219512195124,46.82926829268293
14_12_56_707,-6.0,-10.0,-33.0,-32.0,-6.0,-7.0,-3.0,-5.0,0.52099609375,-0.33447265625,0.681640625,15.609756097560977,26.951219512195124,44.146341463414636
14_12_56_707,-4.0,14.0,-16.0,15.0,1.0,2.0,-2.0,-2.0,0.525390625,-0.36279296875,0.66162109375,16.646341463414636,32.19512195121951,41.768292682926834
14_12_56_707,-4.0,-18.0,9.0,-18.0,-7.0,-1.0,3.0,-2.0,0.54345703125,-0.361328125,0.6640625,22.195121951219512,36.58536585365854,44.268292682926834
14_12_56_707,0.0,2.0,-10.0,30.0,8.0,0.0,-4.0,-4.0,0.5478515625,-0.345703125,0.66748046875,22.31707317073171,39.146341463414636,45.79268292682927
14_12_56_707,-3.0,-1.0,28.0,21.0,-9.0,-5.0,-2.0,-3.0,0.53369140625,-0.37255859375,0.65966796875,15.121951219512196,39.268292682926834,47.6219512195122
14_12_56_707,-2.0,-6.0,-26.0,0.0,-11.0,-6.0,-1.0,-6.0,0.50927734375,-0.32958984375,0.67724609375,12.073170731707318,46.82926829268293,47.743902439024396
14_12_56_774,-5.0,-1.0,-4.0,-12.0,-3.0,-3.0,-1.0,1.0,0.70556640625,-0.44970703125,0.60498046875,-33.170731707317074,-15.426829268292684,24.207317073170735
14_12_56_774,4.0,19.0,26.0,1.0,-2.0,-4.0,1.0,0.0,0.76708984375,-0.47412109375,0.63916015625,-17.804878048780488,-13.04878048780488,22.682926829268293
14_12_56_774,-3.0,14.0,5.0,14.0,4.0,-1.0,0.0,-2.0,0.765625,-0.55419921875,0.61865234375,-9.634146341463415,-9.329268292682928,23.84146341463415
14_12_56_774,-5.0,-13.0,28.0,-3.0,-3.0,0.0,-1.0,-1.0,0.69482421875,-0.55908203125,0.69482421875,-11.341463414634147,2.3170731707317076,35.1219512195122
14_12_56_774,-5.0,1.0,-43.0,0.0,-3.0,12.0,0.0,1.0,0.5966796875,-0.41845703125,0.69873046875,-2.1951219512195124,18.353658536585368,41.21951219512196
14_12_56_774,1.0,5.0,25.0,-44.0,-1.0,16.0,9.0,3.0,0.580078125,-0.36474609375,0.70751953125,5.7926829268292686,24.695121951219516,45.73170731707317
14_12_56_774,-2.0,4.0,-24.0,-3.0,-2.0,-13.0,-4.0,50.0,0.54931640625,-0.34375,0.7060546875,10.914634146341465,24.451219512195124,46.82926829268293
14_12_56_774,-10.0,5.0,86.0,30.0,2.0,0.0,3.0,28.0,0.52099609375,-0.33447265625,0.681640625,15.609756097560977,26.951219512195124,44.146341463414636
14_12_56_774,27.0,-6.0,-71.0,-25.0,-1.0,-6.0,-29.0,0.0,0.525390625,-0.36279296875,0.66162109375,16.646341463414636,32.19512195121951,41.768292682926834
14_12_56_774,0.0,-4.0,-7.0,3.0,2.0,0.0,-5.0,23.0,0.54345703125,-0.361328125,0.6640625,22.195121951219512,36.58536585365854,44.268292682926834
14_12_56_820,2.0,15.0,69.0,11.0,-2.0,1.0,-4.0,-7.0,0.74462890625,-0.52978515625,0.54443359375,-19.634146341463417,-24.75609756097561,22.195121951219512
14_12_56_820,-6.0,-6.0,-21.0,-33.0,-4.0,3.0,4.0,-10.0,0.73046875,-0.49462890625,0.5673828125,-32.926829268292686,-20.853658536585368,23.353658536585368
14_12_56_820,-15.0,-4.0,-12.0,11.0,1.0,0.0,4.0,-10.0,0.70556640625,-0.44970703125,0.60498046875,-33.170731707317074,-15.426829268292684,24.207317073170735
14_12_56_820,15.0,4.0,34.0,14.0,-5.0,-4.0,-2.0,9.0,0.76708984375,-0.47412109375,0.63916015625,-17.804878048780488,-13.04878048780488,22.682926829268293
14_12_56_820,-7.0,-2.0,-43.0,-16.0,0.0,0.0,-2.0,5.0,0.765625,-0.55419921875,0.61865234375,-9.634146341463415,-9.329268292682928,23.84146341463415
14_12_56_820,3.0,10.0,50.0,11.0,0.0,0.0,-4.0,-4.0,0.69482421875,-0.55908203125,0.69482421875,-11.341463414634147,2.3170731707317076,35.1219512195122
14_12_56_820,-2.0,-21.0,-44.0,-13.0,-1.0,-2.0,0.0,2.0,0.5966796875,-0.41845703125,0.69873046875,-2.1951219512195124,18.353658536585368,41.21951219512196
14_12_56_820,1.0,5.0,-32.0,5.0,1.0,0.0,2.0,-3.0,0.580078125,-0.36474609375,0.70751953125,5.7926829268292686,24.695121951219516,45.73170731707317
14_12_56_820,-1.0,9.0,-25.0,-27.0,-3.0,-5.0,-4.0,-1.0,0.54931640625,-0.34375,0.7060546875,10.914634146341465,24.451219512195124,46.82926829268293
14_12_56_820,-4.0,-17.0,23.0,40.0,5.0,1.0,0.0,1.0,0.52099609375,-0.33447265625,0.681640625,15.609756097560977,26.951219512195124,44.146341463414636
14_12_56_867,-6.0,-36.0,15.0,3.0,-25.0,-5.0,-6.0,0.0,0.650390625,-0.40478515625,0.54052734375,-10.670731707317074,-27.682926829268297,16.402439024390244
14_12_56_867,-10.0,10.0,-101.0,-7.0,-5.0,-11.0,-7.0,22.0,0.71044921875,-0.46875,0.52587890625,-9.329268292682928,-26.951219512195124,18.78048780487805
14_12_56_867,5.0,-10.0,110.0,-7.0,7.0,15.0,23.0,83.0,0.74462890625,-0.52978515625,0.54443359375,-19.634146341463417,-24.75609756097561,22.195121951219512
14_12_56_867,-5.0,-21.0,-99.0,23.0,0.0,-7.0,-12.0,-35.0,0.73046875,-0.49462890625,0.5673828125,-32.926829268292686,-20.853658536585368,23.353658536585368
14_12_56_867,2.0,15.0,69.0,11.0,-2.0,1.0,-4.0,-7.0,0.70556640625,-0.44970703125,0.60498046875,-33.170731707317074,-15.426829268292684,24.207317073170735
14_12_56_867,-6.0,-6.0,-21.0,-33.0,-4.0,3.0,4.0,-10.0,0.76708984375,-0.47412109375,0.63916015625,-17.804878048780488,-13.04878048780488,22.682926829268293
14_12_56_867,-15.0,-4.0,-12.0,11.0,1.0,0.0,4.0,-10.0,0.765625,-0.55419921875,0.61865234375,-9.634146341463415,-9.329268292682928,23.84146341463415
14_12_56_867,15.0,4.0,34.0,14.0,-5.0,-4.0,-2.0,9.0,0.69482421875,-0.55908203125,0.69482421875,-11.341463414634147,2.3170731707317076,35.1219512195122
14_12_56_867,-7.0,-2.0,-43.0,-16.0,0.0,0.0,-2.0,5.0,0.5966796875,-0.41845703125,0.69873046875,-2.1951219512195124,18.353658536585368,41.21951219512196
14_12_56_867,3.0,10.0,50.0,11.0,0.0,0.0,-4.0,-4.0,0.580078125,-0.36474609375,0.70751953125,5.7926829268292686,24.695121951219516,45.73170731707317
14_12_56_924,11.0,3.0,-2.0,-24.0,-7.0,-2.0,-6.0,51.0,0.6591796875,-0.46484375,0.45751953125,19.32926829268293,-39.93902439024391,6.463414634146342
14_12_56_924,-7.0,-31.0,86.0,14.0,4.0,3.0,7.0,-13.0,0.67333984375,-0.49755859375,0.4765625,13.475609756097562,-42.13414634146342,14.085365853658537
14_12_56_924,1.0,20.0,-68.0,-5.0,-1.0,-1.0,-6.0,-3.0,0.6455078125,-0.4970703125,0.48095703125,-1.7682926829268295,-40.79268292682927,19.878048780487806
14_12_56_924,-14.0,-17.0,8.0,-1.0,-2.0,-2.0,2.0,-4.0,0.62548828125,-0.455078125,0.50439453125,-15.54878048780488,-31.951219512195124,17.865853658536587
14_12_56_924,6.0,8.0,34.0,28.0,3.0,1.0,0.0,5.0,0.650390625,-0.40478515625,0.54052734375,-10.670731707317074,-27.682926829268297,16.402439024390244
14_12_56_924,0.0,-5.0,21.0,12.0,-1.0,0.0,1.0,1.0,0.71044921875,-0.46875,0.52587890625,-9.329268292682928,-26.951219512195124,18.78048780487805
14_12_56_924,-1.0,9.0,9.0,-14.0,1.0,-1.0,-2.0,-1.0,0.74462890625,-0.52978515625,0.54443359375,-19.634146341463417,-24.75609756097561,22.195121951219512
14_12_56_924,-4.0,-7.0,6.0,-6.0,1.0,-1.0,-4.0,9.0,0.73046875,-0.49462890625,0.5673828125,-32.926829268292686,-20.853658536585368,23.353658536585368
14_12_56_924,-1.0,6.0,74.0,9.0,0.0,-2.0,-1.0,-7.0,0.70556640625,-0.44970703125,0.60498046875,-33.170731707317074,-15.426829268292684,24.207317073170735
14_12_56_924,-2.0,-1.0,-15.0,-1.0,3.0,0.0,3.0,4.0,0.76708984375,-0.47412109375,0.63916015625,-17.804878048780488,-13.04878048780488,22.682926829268293
14_12_57_003,0.0,-14.0,-20.0,-9.0,2.0,3.0,1.0,3.0,0.8232421875,-0.49462890625,0.40185546875,12.865853658536587,-41.646341463414636,-8.658536585365855
14_12_57_003,-2.0,0.0,7.0,7.0,0.0,1.0,-3.0,2.0,0.771484375,-0.51513671875,0.4248046875,25.243902439024392,-42.86585365853659,-2.8658536585365857
14_12_57_003,-4.0,4.0,-26.0,4.0,-7.0,-5.0,-4.0,-4.0,0.69970703125,-0.48779296875,0.43310546875,23.475609756097562,-42.86585365853659,2.5609756097560976
14_12_57_003,0.0,45.0,7.0,7.0,-6.0,-1.0,-2.0,1.0,0.6591796875,-0.46484375,0.45751953125,19.32926829268293,-39.93902439024391,6.463414634146342
14_12_57_003,-6.0,-22.0,18.0,4.0,1.0,1.0,-1.0,-2.0,0.67333984375,-0.49755859375,0.4765625,13.475609756097562,-42.13414634146342,14.085365853658537
14_12_57_003,27.0,3.0,-36.0,1.0,21.0,5.0,26.0,-2.0,0.6455078125,-0.4970703125,0.48095703125,-1.7682926829268295,-40.79268292682927,19.878048780487806
14_12_57_003,-7.0,-18.0,-25.0,-22.0,-19.0,0.0,-8.0,2.0,0.62548828125,-0.455078125,0.50439453125,-15.54878048780488,-31.951219512195124,17.865853658536587
14_12_57_003,-1.0,7.0,4.0,-9.0,4.0,-3.0,26.0,-2.0,0.650390625,-0.40478515625,0.54052734375,-10.670731707317074,-27.682926829268297,16.402439024390244
14_12_57_003,-10.0,-5.0,-22.0,5.0,-4.0,-1.0,-16.0,-6.0,0.71044921875,-0.46875,0.52587890625,-9.329268292682928,-26.951219512195124,18.78048780487805
14_12_57_054,-30.0,-59.0,-12.0,-21.0,-10.0,-5.0,-3.0,-7.0,0.7646484375,-0.4130859375,0.4482421875,26.646341463414636,-44.390243902439025,-8.597560975609756
14_12_57_054,4.0,65.0,21.0,-8.0,-2.0,3.0,-3.0,0.0,0.78271484375,-0.408203125,0.396484375,12.80487804878049,-40.426829268292686,-13.04878048780488
14_12_57_054,-12.0,-26.0,-4.0,20.0,9.0,2.0,-1.0,-1.0,0.82080078125,-0.4580078125,0.38916015625,7.682926829268293,-38.84146341463415,-11.951219512195124
14_12_57_054,10.0,21.0,19.0,27.0,-5.0,-3.0,-6.0,-2.0,0.8232421875,-0.49462890625,0.40185546875,12.865853658536587,-41.646341463414636,-8.658536585365855
14_12_57_054,1.0,-47.0,-23.0,-4.0,0.0,-1.0,0.0,-1.0,0.771484375,-0.51513671875,0.4248046875,25.243902439024392,-42.86585365853659,-2.8658536585365857
14_12_57_054,7.0,47.0,40.0,7.0,1.0,0.0,1.0,1.0,0.69970703125,-0.48779296875,0.43310546875,23.475609756097562,-42.86585365853659,2.5609756097560976
14_12_57_054,-3.0,1.0,-29.0,-3.0,1.0,-4.0,-2.0,2.0,0.6591796875,-0.46484375,0.45751953125,19.32926829268293,-39.93902439024391,6.463414634146342
14_12_57_054,4.0,5.0,2.0,-15.0,-4.0,-1.0,0.0,-3.0,0.67333984375,-0.49755859375,0.4765625,13.475609756097562,-42.13414634146342,14.085365853658537
14_12_57_054,-1.0,-13.0,6.0,2.0,2.0,-1.0,-2.0,-2.0,0.6455078125,-0.4970703125,0.48095703125,-1.7682926829268295,-40.79268292682927,19.878048780487806
14_12_57_054,0.0,-14.0,-20.0,-9.0,2.0,3.0,1.0,3.0,0.62548828125,-0.455078125,0.50439453125,-15.54878048780488,-31.951219512195124,17.865853658536587
14_12_57_104,6.0,-13.0,0.0,37.0,17.0,10.0,5.0,2.0,0.84130859375,-0.42724609375,0.3779296875,4.390243902439025,-25.000000000000004,-5.121951219512195
14_12_57_104,4.0,2.0,8.0,-10.0,4.0,-1.0,1.0,-2.0,0.84912109375,-0.38232421875,0.37255859375,25.54878048780488,-33.35365853658537,-1.1585365853658538
14_12_57_104,1.0,-1.0,11.0,-11.0,-11.0,-6.0,-6.0,-2.0,0.798828125,-0.3984375,0.43896484375,36.463414634146346,-42.25609756097561,-2.0121951219512195
14_12_57_104,-2.0,-38.0,-60.0,5.0,-5.0,-1.0,-12.0,-1.0,0.7646484375,-0.4130859375,0.4482421875,26.646341463414636,-44.390243902439025,-8.597560975609756
14_12_57_104,-2.0,-1.0,35.0,9.0,10.0,1.0,1.0,2.0,0.78271484375,-0.408203125,0.396484375,12.80487804878049,-40.426829268292686,-13.04878048780488
14_12_57_104,-24.0,-18.0,54.0,-17.0,-15.0,-1.0,-5.0,-7.0,0.82080078125,-0.4580078125,0.38916015625,7.682926829268293,-38.84146341463415,-11.951219512195124
14_12_57_104,5.0,-4.0,-103.0,-13.0,0.0,0.0,0.0,-3.0,0.8232421875,-0.49462890625,0.40185546875,12.865853658536587,-41.646341463414636,-8.658536585365855
14_12_57_104,23.0,13.0,42.0,17.0,9.0,3.0,0.0,-2.0,0.771484375,-0.51513671875,0.4248046875,25.243902439024392,-42.86585365853659,-2.8658536585365857
14_12_57_104,1.0,-6.0,3.0,19.0,1.0,-2.0,-1.0,-2.0,0.69970703125,-0.48779296875,0.43310546875,23.475609756097562,-42.86585365853659,2.5609756097560976
14_12_57_104,-2.0,-5.0,18.0,-8.0,-4.0,-1.0,-2.0,0.0,0.6591796875,-0.46484375,0.45751953125,19.32926829268293,-39.93902439024391,6.463414634146342
14_12_57_156,-5.0,-2.0,10.0,-16.0,-1.0,1.0,-7.0,-11.0,0.82177734375,-0.4765625,0.3271484375,-13.963414634146343,-23.04878048780488,1.1585365853658538
14_12_57_156,-1.0,-3.0,7.0,2.0,-1.0,0.0,2.0,8.0,0.83349609375,-0.443359375,0.33154296875,-10.121951219512196,-22.25609756097561,-2.804878048780488
14_12_57_156,-1.0,-3.0,-4.0,3.0,-2.0,0.0,-6.0,2.0,0.84130859375,-0.42724609375,0.3779296875,4.390243902439025,-25.000000000000004,-5.121951219512195
14_12_57_156,5.0,8.0,20.0,7.0,-1.0,-1.0,-3.0,-3.0,0.84912109375,-0.38232421875,0.37255859375,25.54878048780488,-33.35365853658537,-1.1585365853658538
14_12_57_156,21.0,-3.0,-7.0,4.0,3.0,4.0,27.0,24.0,0.798828125,-0.3984375,0.43896484375,36.463414634146346,-42.25609756097561,-2.0121951219512195
14_12_57_156,-6.0,-5.0,-5.0,-4.0,-3.0,-1.0,-21.0,-9.0,0.7646484375,-0.4130859375,0.4482421875,26.646341463414636,-44.390243902439025,-8.597560975609756
14_12_57_156,-12.0,-6.0,5.0,-13.0,-7.0,-10.0,-11.0,-7.0,0.78271484375,-0.408203125,0.396484375,12.80487804878049,-40.426829268292686,-13.04878048780488
14_12_57_156,1.0,14.0,0.0,30.0,0.0,1.0,8.0,3.0,0.82080078125,-0.4580078125,0.38916015625,7.682926829268293,-38.84146341463415,-11.951219512195124
14_12_57_156,-4.0,-9.0,-16.0,-39.0,-8.0,-4.0,-10.0,3.0,0.8232421875,-0.49462890625,0.40185546875,12.865853658536587,-41.646341463414636,-8.658536585365855
14_12_57_156,-11.0,15.0,5.0,11.0,7.0,1.0,1.0,-2.0,0.771484375,-0.51513671875,0.4248046875,25.243902439024392,-42.86585365853659,-2.8658536585365857
14_12_57_214,-30.0,5.0,24.0,12.0,-4.0,-6.0,1.0,-9.0,0.79638671875,-0.4423828125,0.3154296875,0.9146341463414634,-15.121951219512196,-13.414634146341465
14_12_57_214,19.0,-11.0,-34.0,-41.0,-23.0,-6.0,9.0,19.0,0.80224609375,-0.49267578125,0.412109375,3.1097560975609757,-18.170731707317074,-14.02439024390244
14_12_57_214,-9.0,-2.0,17.0,2.0,-7.0,-6.0,-3.0,-5.0,0.81396484375,-0.53369140625,0.35986328125,-10.121951219512196,-23.475609756097562,-4.573170731707317
14_12_57_214,9.0,4.0,5.0,19.0,21.0,-2.0,-2.0,-6.0,0.82177734375,-0.4765625,0.3271484375,-13.963414634146343,-23.04878048780488,1.1585365853658538
14_12_57_214,-2.0,-2.0,0.0,20.0,25.0,34.0,17.0,0.0,0.83349609375,-0.443359375,0.33154296875,-10.121951219512196,-22.25609756097561,-2.804878048780488
14_12_57_214,2.0,6.0,43.0,-3.0,-18.0,-8.0,0.0,-1.0,0.84130859375,-0.42724609375,0.3779296875,4.390243902439025,-25.000000000000004,-5.121951219512195
14_12_57_214,11.0,-1.0,-20.0,-3.0,-3.0,-10.0,-1.0,1.0,0.84912109375,-0.38232421875,0.37255859375,25.54878048780488,-33.35365853658537,-1.1585365853658538
14_12_57_214,-5.0,-5.0,-13.0,-21.0,-4.0,-6.0,-8.0,21.0,0.798828125,-0.3984375,0.43896484375,36.463414634146346,-42.25609756097561,-2.0121951219512195
14_12_57_214,-4.0,-1.0,-26.0,39.0,2.0,2.0,1.0,-1.0,0.7646484375,-0.4130859375,0.4482421875,26.646341463414636,-44.390243902439025,-8.597560975609756
14_12_57_214,3.0,20.0,36.0,14.0,0.0,-5.0,-17.0,14.0,0.78271484375,-0.408203125,0.396484375,12.80487804878049,-40.426829268292686,-13.04878048780488
14_12_57_264,-4.0,6.0,6.0,15.0,2.0,-7.0,-8.0,35.0,0.859375,-0.4345703125,0.390625,-19.573170731707318,-20.0609756097561,-28.53658536585366
14_12_57_264,7.0,4.0,-49.0,4.0,5.0,25.0,31.0,13.0,0.81298828125,-0.40087890625,0.3681640625,-6.097560975609756,-18.29268292682927,-15.060975609756099
14_12_57_264,-20.0,-26.0,-79.0,-5.0,-3.0,-16.0,-28.0,-45.0,0.79638671875,-0.4423828125,0.3154296875,0.9146341463414634,-15.121951219512196,-13.414634146341465
14_12_57_264,-8.0,7.0,70.0,41.0,2.0,-2.0,18.0,-8.0,0.80224609375,-0.49267578125,0.412109375,3.1097560975609757,-18.170731707317074,-14.02439024390244
14_12_57_264,-3.0,2.0,21.0,22.0,-7.0,-13.0,-20.0,8.0,0.81396484375,-0.53369140625,0.35986328125,-10.121951219512196,-23.475609756097562,-4.573170731707317
14_12_57_264,1.0,4.0,-14.0,-34.0,8.0,73.0,12.0,22.0,0.82177734375,-0.4765625,0.3271484375,-13.963414634146343,-23.04878048780488,1.1585365853658538
14_12_57_264,-3.0,-20.0,-15.0,38.0,0.0,10.0,-6.0,76.0,0.83349609375,-0.443359375,0.33154296875,-10.121951219512196,-22.25609756097561,-2.804878048780488
14_12_57_264,-13.0,-3.0,-64.0,-128.0,-22.0,-33.0,-3.0,-103.0,0.84130859375,-0.42724609375,0.3779296875,4.390243902439025,-25.000000000000004,-5.121951219512195
14_12_57_264,-13.0,10.0,92.0,27.0,8.0,-7.0,-12.0,0.0,0.84912109375,-0.38232421875,0.37255859375,25.54878048780488,-33.35365853658537,-1.1585365853658538
14_12_57_324,-2.0,-8.0,18.0,-18.0,1.0,34.0,60.0,-7.0,0.8154296875,-0.56787109375,0.38134765625,-23.29268292682927,-16.70731707317073,-33.84146341463415
14_12_57_324,35.0,12.0,-25.0,1.0,-9.0,-24.0,40.0,-22.0,0.8349609375,-0.46875,0.40625,-19.81707317073171,-15.121951219512196,-38.963414634146346
14_12_57_324,-37.0,30.0,-22.0,15.0,-5.0,-15.0,-29.0,23.0,0.85546875,-0.3671875,0.40869140625,-2.6219512195121952,-12.01219512195122,-44.390243902439025
14_12_57_324,54.0,-49.0,-12.0,-10.0,-6.0,-4.0,-2.0,-32.0,0.87646484375,-0.46337890625,0.3671875,-17.195121951219512,-15.487804878048783,-39.69512195121951
14_12_57_324,2.0,15.0,-6.0,16.0,7.0,-4.0,-4.0,-5.0,0.859375,-0.4345703125,0.390625,-19.573170731707318,-20.0609756097561,-28.53658536585366
14_12_57_324,2.0,-3.0,28.0,-15.0,-8.0,-1.0,-4.0,4.0,0.81298828125,-0.40087890625,0.3681640625,-6.097560975609756,-18.29268292682927,-15.060975609756099
14_12_57_324,-62.0,-32.0,3.0,-27.0,-4.0,-9.0,-9.0,-20.0,0.79638671875,-0.4423828125,0.3154296875,0.9146341463414634,-15.121951219512196,-13.414634146341465
14_12_57_324,89.0,13.0,21.0,28.0,6.0,-1.0,-4.0,1.0,0.80224609375,-0.49267578125,0.412109375,3.1097560975609757,-18.170731707317074,-14.02439024390244
14_12_57_324,5.0,7.0,-124.0,-22.0,-14.0,-10.0,-7.0,-2.0,0.81396484375,-0.53369140625,0.35986328125,-10.121951219512196,-23.475609756097562,-4.573170731707317
14_12_57_324,11.0,-10.0,53.0,3.0,-1.0,-5.0,-2.0,-10.0,0.82177734375,-0.4765625,0.3271484375,-13.963414634146343,-23.04878048780488,1.1585365853658538
14_12_57_374,6.0,-10.0,-49.0,-21.0,-6.0,-5.0,-44.0,4.0,0.7353515625,-0.48291015625,0.4765625,26.58536585365854,-10.365853658536587,-36.09756097560976
14_12_57_374,-14.0,-3.0,10.0,14.0,1.0,-9.0,3.0,-10.0,0.75,-0.51123046875,0.48193359375,0.24390243902439027,-14.939024390243905,-35.670731707317074
14_12_57_374,-24.0,-56.0,1.0,31.0,-1.0,-2.0,4.0,0.0,0.8154296875,-0.56787109375,0.38134765625,-23.29268292682927,-16.70731707317073,-33.84146341463415
14_12_57_374,-6.0,-38.0,27.0,-51.0,-10.0,-9.0,1.0,-4.0,0.8349609375,-0.46875,0.40625,-19.81707317073171,-15.121951219512196,-38.963414634146346
14_12_57_374,-8.0,-27.0,-105.0,6.0,7.0,5.0,-109.0,3.0,0.85546875,-0.3671875,0.40869140625,-2.6219512195121952,-12.01219512195122,-44.390243902439025
14_12_57_374,-10.0,-5.0,127.0,-9.0,-8.0,-13.0,14.0,-3.0,0.87646484375,-0.46337890625,0.3671875,-17.195121951219512,-15.487804878048783,-39.69512195121951
14_12_57_374,-15.0,-12.0,-73.0,-2.0,-6.0,-12.0,0.0,-12.0,0.859375,-0.4345703125,0.390625,-19.573170731707318,-20.0609756097561,-28.53658536585366
14_12_57_374,2.0,51.0,105.0,15.0,-3.0,-13.0,-6.0,-17.0,0.81298828125,-0.40087890625,0.3681640625,-6.097560975609756,-18.29268292682927,-15.060975609756099
14_12_57_374,31.0,-19.0,-76.0,-2.0,-1.0,7.0,21.0,4.0,0.79638671875,-0.4423828125,0.3154296875,0.9146341463414634,-15.121951219512196,-13.414634146341465
14_12_57_374,10.0,12.0,36.0,10.0,29.0,85.0,-34.0,9.0,0.80224609375,-0.49267578125,0.412109375,3.1097560975609757,-18.170731707317074,-14.02439024390244
14_12_57_439,-5.0,-16.0,30.0,-6.0,7.0,-4.0,-65.0,-9.0,0.697265625,-0.20166015625,0.58984375,2.804878048780488,-21.402439024390247,-24.085365853658537
14_12_57_439,-12.0,-39.0,25.0,-3.0,-4.0,-5.0,-24.0,-2.0,0.62939453125,-0.24755859375,0.61669921875,19.451219512195124,-16.28048780487805,-28.353658536585368
14_12_57_439,4.0,2.0,-9.0,-1.0,-1.0,-6.0,33.0,9.0,0.69677734375,-0.353515625,0.53271484375,28.658536585365855,-11.707317073170733,-30.670731707317074
14_12_57_439,-7.0,12.0,16.0,0.0,0.0,21.0,-38.0,10.0,0.7353515625,-0.48291015625,0.4765625,26.58536585365854,-10.365853658536587,-36.09756097560976
14_12_57_439,0.0,-27.0,-12.0,11.0,3.0,-13.0,7.0,-16.0,0.75,-0.51123046875,0.48193359375,0.24390243902439027,-14.939024390243905,-35.670731707317074
14_12_57_439,15.0,2.0,-13.0,7.0,0.0,-9.0,-1.0,3.0,0.8154296875,-0.56787109375,0.38134765625,-23.29268292682927,-16.70731707317073,-33.84146341463415
14_12_57_439,27.0,-1.0,0.0,-1.0,0.0,14.0,-23.0,-3.0,0.8349609375,-0.46875,0.40625,-19.81707317073171,-15.121951219512196,-38.963414634146346
14_12_57_439,-50.0,-26.0,23.0,11.0,-10.0,-5.0,4.0,-4.0,0.85546875,-0.3671875,0.40869140625,-2.6219512195121952,-12.01219512195122,-44.390243902439025
14_12_57_439,79.0,12.0,-53.0,5.0,23.0,-4.0,-5.0,-12.0,0.87646484375,-0.46337890625,0.3671875,-17.195121951219512,-15.487804878048783,-39.69512195121951
14_12_57_439,-38.0,-10.0,19.0,0.0,-9.0,-11.0,-7.0,-4.0,0.859375,-0.4345703125,0.390625,-19.573170731707318,-20.0609756097561,-28.53658536585366
14_12_57_494,-1.0,-1.0,-17.0,7.0,17.0,6.0,19.0,4.0,0.8154296875,-0.291015625,0.57861328125,20.54878048780488,-21.03658536585366,-25.243902439024392
14_12_57_494,72.0,8.0,0.0,18.0,2.0,-19.0,-10.0,-8.0,0.77490234375,-0.2783203125,0.5888671875,2.073170731707317,-21.463414634146343,-24.146341463414636
14_12_57_494,13.0,7.0,-35.0,-98.0,-29.0,-13.0,-8.0,1.0,0.697265625,-0.20166015625,0.58984375,2.804878048780488,-21.402439024390247,-24.085365853658537
14_12_57_494,127.0,3.0,70.0,39.0,15.0,15.0,-2.0,2.0,0.62939453125,-0.24755859375,0.61669921875,19.451219512195124,-16.28048780487805,-28.353658536585368
14_12_57_494,-47.0,3.0,-3.0,-4.0,7.0,1.0,-4.0,-3.0,0.69677734375,-0.353515625,0.53271484375,28.658536585365855,-11.707317073170733,-30.670731707317074
14_12_57_494,16.0,-9.0,-2.0,-9.0,-22.0,-11.0,-4.0,-5.0,0.7353515625,-0.48291015625,0.4765625,26.58536585365854,-10.365853658536587,-36.09756097560976
14_12_57_494,-15.0,-6.0,0.0,-1.0,-8.0,-6.0,-4.0,-3.0,0.75,-0.51123046875,0.48193359375,0.24390243902439027,-14.939024390243905,-35.670731707317074
14_12_57_494,-6.0,6.0,-6.0,8.0,8.0,0.0,-8.0,-15.0,0.8154296875,-0.56787109375,0.38134765625,-23.29268292682927,-16.70731707317073,-33.84146341463415
14_12_57_494,-1.0,9.0,-14.0,-19.0,-15.0,-5.0,4.0,-1.0,0.8349609375,-0.46875,0.40625,-19.81707317073171,-15.121951219512196,-38.963414634146346
14_12_57_536,27.0,15.0,38.0,-11.0,-17.0,-5.0,6.0,-3.0,0.87451171875,-0.130859375,0.52880859375,27.926829268292686,-21.76829268292683,-9.390243902439025
14_12_57_536,74.0,22.0,12.0,-3.0,-6.0,-5.0,-32.0,-10.0,0.88134765625,-0.13671875,0.47802734375,19.573170731707318,-19.634146341463417,-14.26829268292683
14_12_57_536,-101.0,10.0,-2.0,19.0,31.0,14.0,32.0,45.0,0.947265625,-0.16845703125,0.4765625,16.158536585365855,-22.439024390243905,-18.963414634146343
14_12_57_536,120.0,30.0,10.0,51.0,8.0,12.0,40.0,9.0,0.92431640625,-0.22314453125,0.5068359375,29.573170731707318,-22.012195121951223,-24.207317073170735
14_12_57_536,-25.0,-66.0,-35.0,-52.0,-34.0,-7.0,-10.0,-9.0,0.8154296875,-0.291015625,0.57861328125,20.54878048780488,-21.03658536585366,-25.243902439024392
14_12_57_536,-20.0,-18.0,10.0,-1.0,10.0,-6.0,-29.0,-6.0,0.77490234375,-0.2783203125,0.5888671875,2.073170731707317,-21.463414634146343,-24.146341463414636
14_12_57_536,-1.0,-9.0,1.0,16.0,-4.0,2.0,26.0,2.0,0.697265625,-0.20166015625,0.58984375,2.804878048780488,-21.402439024390247,-24.085365853658537
14_12_57_536,6.0,23.0,-23.0,2.0,14.0,-7.0,-6.0,-3.0,0.62939453125,-0.24755859375,0.61669921875,19.451219512195124,-16.28048780487805,-28.353658536585368
14_12_57_536,4.0,-7.0,-2.0,-35.0,-8.0,-12.0,-8.0,5.0,0.69677734375,-0.353515625,0.53271484375,28.658536585365855,-11.707317073170733,-30.670731707317074
14_12_57_536,-10.0,2.0,6.0,35.0,4.0,-11.0,7.0,-9.0,0.7353515625,-0.48291015625,0.4765625,26.58536585365854,-10.365853658536587,-36.09756097560976
14_12_57_614,106.0,-37.0,-56.0,-60.0,9.0,15.0,20.0,-11.0,0.86376953125,-0.16064453125,0.2548828125,35.91463414634147,-28.780487804878053,9.02439024390244
14_12_57_614,24.0,12.0,60.0,53.0,65.0,27.0,-35.0,-1.0,0.794921875,-0.3046875,0.36669921875,25.54878048780488,-28.84146341463415,0.6097560975609757
14_12_57_614,-4.0,47.0,1.0,43.0,-60.0,-26.0,8.0,34.0,0.79931640625,-0.3037109375,0.38427734375,17.5,-22.98780487804878,-5.365853658536586
14_12_57_614,-23.0,-28.0,-34.0,-2.0,-5.0,-29.0,2.0,-24.0,0.87451171875,-0.130859375,0.52880859375,27.926829268292686,-21.76829268292683,-9.390243902439025
14_12_57_614,92.0,4.0,-5.0,6.0,-17.0,-27.0,-110.0,7.0,0.88134765625,-0.13671875,0.47802734375,19.573170731707318,-19.634146341463417,-14.26829268292683
14_12_57_614,15.0,18.0,-21.0,101.0,120.0,20.0,29.0,4.0,0.947265625,-0.16845703125,0.4765625,16.158536585365855,-22.439024390243905,-18.963414634146343
14_12_57_614,16.0,-4.0,2.0,-48.0,-46.0,35.0,-19.0,3.0,0.92431640625,-0.22314453125,0.5068359375,29.573170731707318,-22.012195121951223,-24.207317073170735
14_12_57_614,-128.0,-43.0,-38.0,-17.0,-5.0,-7.0,-29.0,-31.0,0.8154296875,-0.291015625,0.57861328125,20.54878048780488,-21.03658536585366,-25.243902439024392
14_12_57_614,52.0,43.0,75.0,10.0,35.0,-25.0,-27.0,36.0,0.77490234375,-0.2783203125,0.5888671875,2.073170731707317,-21.463414634146343,-24.146341463414636
14_12_57_614,-128.0,10.0,-28.0,-21.0,-56.0,1.0,24.0,15.0,0.697265625,-0.20166015625,0.58984375,2.804878048780488,-21.402439024390247,-24.085365853658537
14_12_57_662,-128.0,-36.0,-36.0,-8.0,46.0,77.0,-118.0,-122.0,0.91845703125,-0.44677734375,0.15869140625,5.365853658536586,-36.646341463414636,15.914634146341465
14_12_57_662,92.0,27.0,74.0,-84.0,-76.0,81.0,71.0,2.0,0.91650390625,-0.22802734375,0.2197265625,19.634146341463417,-32.25609756097561,10.731707317073171
14_12_57_662,-55.0,-2.0,-76.0,84.0,6.0,-13.0,29.0,20.0,0.86376953125,-0.16064453125,0.2548828125,35.91463414634147,-28.780487804878053,9.02439024390244
14_12_57_662,52.0,22.0,112.0,127.0,127.0,-22.0,-71.0,-13.0,0.794921875,-0.3046875,0.36669921875,25.54878048780488,-28.84146341463415,0.6097560975609757
14_12_57_662,11.0,36.0,-12.0,-108.0,-62.0,66.0,-58.0,23.0,0.79931640625,-0.3037109375,0.38427734375,17.5,-22.98780487804878,-5.365853658536586
14_12_57_662,-55.0,-16.0,11.0,-94.0,-69.0,-117.0,-17.0,-11.0,0.87451171875,-0.130859375,0.52880859375,27.926829268292686,-21.76829268292683,-9.390243902439025
14_12_57_662,-87.0,-28.0,-28.0,28.0,17.0,-88.0,-35.0,-2.0,0.88134765625,-0.13671875,0.47802734375,19.573170731707318,-19.634146341463417,-14.26829268292683
14_12_57_662,127.0,64.0,24.0,127.0,68.0,35.0,119.0,19.0,0.947265625,-0.16845703125,0.4765625,16.158536585365855,-22.439024390243905,-18.963414634146343
14_12_57_662,-104.0,27.0,-61.0,-128.0,-48.0,-26.0,-27.0,-14.0,0.92431640625,-0.22314453125,0.5068359375,29.573170731707318,-22.012195121951223,-24.207317073170735
14_12_57_662,36.0,-46.0,37.0,-55.0,-52.0,-44.0,-54.0,0.0,0.8154296875,-0.291015625,0.57861328125,20.54878048780488,-21.03658536585366,-25.243902439024392
14_12_57_714,-90.0,-24.0,-73.0,-128.0,-32.0,-5.0,-120.0,-60.0,0.80029296875,-0.07763671875,0.3408203125,20.30487804878049,-6.890243902439025,32.86585365853659
14_12_57_714,-128.0,-60.0,12.0,-87.0,-14.0,-6.0,-69.0,-51.0,0.94580078125,-0.42236328125,0.26513671875,11.829268292682928,-27.25609756097561,27.439024390243905
14_12_57_714,92.0,38.0,48.0,81.0,69.0,-11.0,-32.0,29.0,0.91845703125,-0.44677734375,0.15869140625,5.365853658536586,-36.646341463414636,15.914634146341465
14_12_57_714,108.0,13.0,76.0,127.0,45.0,-77.0,-58.0,98.0,0.91650390625,-0.22802734375,0.2197265625,19.634146341463417,-32.25609756097561,10.731707317073171
14_12_57_714,-39.0,-11.0,-73.0,-14.0,-71.0,-16.0,127.0,-105.0,0.86376953125,-0.16064453125,0.2548828125,35.91463414634147,-28.780487804878053,9.02439024390244
14_12_57_714,5.0,10.0,-119.0,59.0,-66.0,-15.0,-48.0,-29.0,0.794921875,-0.3046875,0.36669921875,25.54878048780488,-28.84146341463415,0.6097560975609757
14_12_57_714,-6.0,-15.0,37.0,40.0,63.0,3.0,-78.0,-46.0,0.79931640625,-0.3037109375,0.38427734375,17.5,-22.98780487804878,-5.365853658536586
14_12_57_714,19.0,15.0,5.0,87.0,36.0,-3.0,48.0,114.0,0.87451171875,-0.130859375,0.52880859375,27.926829268292686,-21.76829268292683,-9.390243902439025
14_12_57_714,6.0,-6.0,86.0,-128.0,-78.0,-50.0,79.0,127.0,0.88134765625,-0.13671875,0.47802734375,19.573170731707318,-19.634146341463417,-14.26829268292683
14_12_57_769,34.0,41.0,-38.0,-6.0,39.0,127.0,127.0,39.0,1.01953125,-0.20458984375,0.5224609375,19.878048780487806,5.609756097560976,18.170731707317074
14_12_57_769,-78.0,-41.0,104.0,-61.0,8.0,12.0,-5.0,-42.0,0.98046875,-0.17919921875,0.5244140625,17.012195121951223,-2.1951219512195124,16.76829268292683
14_12_57_769,18.0,3.0,3.0,40.0,28.0,-83.0,16.0,-32.0,0.84619140625,-0.51708984375,0.5126953125,-19.390243902439025,-9.634146341463415,17.31707317073171
14_12_57_769,0.0,-1.0,-4.0,63.0,-128.0,-128.0,-128.0,-18.0,0.69580078125,-0.20458984375,0.3544921875,-25.000000000000004,-4.024390243902439,22.378048780487806
14_12_57_769,47.0,-22.0,-54.0,-2.0,-48.0,-18.0,19.0,83.0,0.80029296875,-0.07763671875,0.3408203125,20.30487804878049,-6.890243902439025,32.86585365853659
14_12_57_769,-20.0,7.0,-86.0,-121.0,40.0,-27.0,83.0,45.0,0.94580078125,-0.42236328125,0.26513671875,11.829268292682928,-27.25609756097561,27.439024390243905
14_12_57_769,-111.0,33.0,87.0,-89.0,-47.0,-60.0,-128.0,-82.0,0.91845703125,-0.44677734375,0.15869140625,5.365853658536586,-36.646341463414636,15.914634146341465
14_12_57_769,51.0,-63.0,-66.0,81.0,27.0,-61.0,127.0,67.0,0.91650390625,-0.22802734375,0.2197265625,19.634146341463417,-32.25609756097561,10.731707317073171
14_12_57_769,-29.0,-128.0,91.0,-63.0,9.0,-25.0,-82.0,-63.0,0.86376953125,-0.16064453125,0.2548828125,35.91463414634147,-28.780487804878053,9.02439024390244
14_12_57_769,-108.0,-22.0,-106.0,127.0,34.0,127.0,45.0,-20.0,0.794921875,-0.3046875,0.36669921875,25.54878048780488,-28.84146341463415,0.6097560975609757
14_12_57_814,-85.0,-22.0,26.0,127.0,-128.0,-94.0,26.0,4.0,0.96337890625,-0.27197265625,0.35693359375,17.743902439024392,5.670731707317073,18.04878048780488
14_12_57_814,-10.0,126.0,14.0,-128.0,81.0,-36.0,-128.0,-43.0,0.921875,-0.36962890625,0.37353515625,10.792682926829269,9.695121951219512,16.28048780487805
14_12_57_814,-79.0,52.0,-30.0,-73.0,-50.0,-38.0,-73.0,-8.0,0.92041015625,-0.404296875,0.46826171875,7.8048780487804885,9.695121951219512,18.29268292682927
14_12_57_814,14.0,1.0,64.0,68.0,-75.0,-22.0,-61.0,-44.0,1.01953125,-0.20458984375,0.5224609375,19.878048780487806,5.609756097560976,18.170731707317074
14_12_57_814,12.0,6.0,-35.0,-60.0,106.0,127.0,-87.0,-70.0,0.98046875,-0.17919921875,0.5244140625,17.012195121951223,-2.1951219512195124,16.76829268292683
14_12_57_814,-20.0,-51.0,30.0,127.0,127.0,64.0,-3.0,30.0,0.84619140625,-0.51708984375,0.5126953125,-19.390243902439025,-9.634146341463415,17.31707317073171
14_12_57_814,81.0,51.0,20.0,-128.0,-128.0,-128.0,33.0,15.0,0.69580078125,-0.20458984375,0.3544921875,-25.000000000000004,-4.024390243902439,22.378048780487806
14_12_57_814,122.0,-16.0,3.0,-18.0,127.0,127.0,80.0,45.0,0.80029296875,-0.07763671875,0.3408203125,20.30487804878049,-6.890243902439025,32.86585365853659
14_12_57_814,-52.0,-37.0,-27.0,127.0,-107.0,-100.0,-128.0,-38.0,0.94580078125,-0.42236328125,0.26513671875,11.829268292682928,-27.25609756097561,27.439024390243905
14_12_57_814,127.0,27.0,6.0,-88.0,8.0,-35.0,-46.0,50.0,0.91845703125,-0.44677734375,0.15869140625,5.365853658536586,-36.646341463414636,15.914634146341465
14_12_57_884,94.0,62.0,-18.0,19.0,-128.0,-36.0,-128.0,-58.0,0.92529296875,-0.50390625,0.54248046875,-4.634146341463415,28.292682926829272,33.65853658536586
14_12_57_884,26.0,-128.0,12.0,127.0,82.0,124.0,127.0,-19.0,0.94482421875,-0.35205078125,0.4091796875,10.24390243902439,21.28048780487805,27.25609756097561
14_12_57_884,66.0,-29.0,39.0,-23.0,-70.0,-128.0,-108.0,48.0,0.990234375,-0.2890625,0.37353515625,26.28048780487805,11.341463414634147,21.52439024390244
14_12_57_884,-128.0,-21.0,-69.0,-128.0,-78.0,-41.0,55.0,-107.0,0.96337890625,-0.27197265625,0.35693359375,17.743902439024392,5.670731707317073,18.04878048780488
14_12_57_884,127.0,88.0,17.0,127.0,75.0,127.0,127.0,29.0,0.921875,-0.36962890625,0.37353515625,10.792682926829269,9.695121951219512,16.28048780487805
14_12_57_884,64.0,36.0,49.0,-128.0,106.0,5.0,59.0,124.0,0.92041015625,-0.404296875,0.46826171875,7.8048780487804885,9.695121951219512,18.29268292682927
14_12_57_884,-105.0,-52.0,22.0,-2.0,-126.0,-95.0,89.0,-26.0,1.01953125,-0.20458984375,0.5224609375,19.878048780487806,5.609756097560976,18.170731707317074
14_12_57_884,67.0,33.0,-22.0,-10.0,33.0,127.0,57.0,97.0,0.98046875,-0.17919921875,0.5244140625,17.012195121951223,-2.1951219512195124,16.76829268292683
14_12_57_884,-100.0,1.0,24.0,-128.0,-67.0,-73.0,115.0,-113.0,0.84619140625,-0.51708984375,0.5126953125,-19.390243902439025,-9.634146341463415,17.31707317073171
14_12_57_884,127.0,52.0,-91.0,127.0,127.0,114.0,-128.0,127.0,0.69580078125,-0.20458984375,0.3544921875,-25.000000000000004,-4.024390243902439,22.378048780487806
14_12_57_934,-62.0,1.0,-3.0,-128.0,-128.0,-35.0,127.0,-45.0,0.92431640625,-0.49755859375,0.646484375,10.609756097560977,39.08536585365854,40.426829268292686
14_12_57_934,2.0,9.0,-31.0,-49.0,-128.0,-99.0,-86.0,-97.0,0.92529296875,-0.50390625,0.54248046875,-4.634146341463415,28.292682926829272,33.65853658536586
14_12_57_934,-128.0,39.0,20.0,67.0,127.0,53.0,-66.0,127.0,0.94482421875,-0.35205078125,0.4091796875,10.24390243902439,21.28048780487805,27.25609756097561
14_12_57_934,127.0,5.0,13.0,66.0,-5.0,21.0,127.0,-89.0,0.990234375,-0.2890625,0.37353515625,26.28048780487805,11.341463414634147,21.52439024390244
14_12_57_934,-128.0,-19.0,4.0,-128.0,-128.0,-101.0,-128.0,121.0,0.96337890625,-0.27197265625,0.35693359375,17.743902439024392,5.670731707317073,18.04878048780488
14_12_57_934,-34.0,-16.0,-26.0,-67.0,-75.0,-128.0,127.0,51.0,0.921875,-0.36962890625,0.37353515625,10.792682926829269,9.695121951219512,16.28048780487805
14_12_57_934,4.0,50.0,-45.0,82.0,40.0,27.0,-103.0,-115.0,0.92041015625,-0.404296875,0.46826171875,7.8048780487804885,9.695121951219512,18.29268292682927
14_12_57_934,49.0,-27.0,38.0,-37.0,108.0,127.0,127.0,127.0,1.01953125,-0.20458984375,0.5224609375,19.878048780487806,5.609756097560976,18.170731707317074
14_12_57_934,-27.0,-10.0,5.0,-44.0,18.0,-113.0,-128.0,-15.0,0.98046875,-0.17919921875,0.5244140625,17.012195121951223,-2.1951219512195124,16.76829268292683
14_12_57_995,127.0,7.0,-50.0,-11.0,-42.0,-4.0,127.0,-62.0,0.82568359375,-0.3369140625,0.45361328125,20.0609756097561,52.13414634146342,51.82926829268293
14_12_57_995,5.0,-16.0,16.0,127.0,63.0,-128.0,-59.0,1.0,0.9580078125,-0.3720703125,0.4912109375,15.54878048780488,55.426829268292686,53.29268292682927
14_12_57_995,121.0,31.0,99.0,127.0,-86.0,-128.0,72.0,-11.0,0.99072265625,-0.39453125,0.57421875,15.060975609756099,51.768292682926834,45.670731707317074
14_12_57_995,125.0,47.0,-123.0,76.0,127.0,127.0,14.0,12.0,0.9619140625,-0.2255859375,0.5810546875,18.658536585365855,46.09756097560976,46.15853658536586
14_12_57_995,-17.0,6.0,67.0,127.0,-12.0,-128.0,33.0,126.0,0.92431640625,-0.49755859375,0.646484375,10.609756097560977,39.08536585365854,40.426829268292686
14_12_57_995,51.0,-4.0,-13.0,-128.0,-48.0,-92.0,127.0,-41.0,0.92529296875,-0.50390625,0.54248046875,-4.634146341463415,28.292682926829272,33.65853658536586
14_12_57_995,60.0,-22.0,-10.0,127.0,75.0,-33.0,-128.0,-4.0,0.94482421875,-0.35205078125,0.4091796875,10.24390243902439,21.28048780487805,27.25609756097561
14_12_57_995,-128.0,-128.0,-2.0,-128.0,-128.0,-113.0,-128.0,-68.0,0.990234375,-0.2890625,0.37353515625,26.28048780487805,11.341463414634147,21.52439024390244
14_12_57_995,-128.0,-7.0,30.0,127.0,127.0,115.0,-33.0,-40.0,0.96337890625,-0.27197265625,0.35693359375,17.743902439024392,5.670731707317073,18.04878048780488
14_12_57_995,94.0,47.0,-20.0,-128.0,-35.0,-69.0,9.0,112.0,0.921875,-0.36962890625,0.37353515625,10.792682926829269,9.695121951219512,16.28048780487805
14_12_58_044,-8.0,-63.0,-43.0,-88.0,-96.0,-128.0,-128.0,41.0,0.77880859375,-0.41552734375,0.56787109375,17.743902439024392,60.67073170731708,46.03658536585366
14_12_58_044,-128.0,-19.0,1.0,127.0,127.0,-50.0,-96.0,127.0,0.87890625,-0.4619140625,0.546875,21.890243902439025,59.51219512195122,47.13414634146342
14_12_58_044,5.0,-6.0,-21.0,-128.0,-36.0,127.0,-10.0,-120.0,0.9541015625,-0.3369140625,0.51513671875,25.54878048780488,56.28048780487806,42.987804878048784
14_12_58_044,18.0,21.0,-37.0,127.0,112.0,127.0,27.0,-1.0,0.82568359375,-0.3369140625,0.45361328125,20.0609756097561,52.13414634146342,51.82926829268293
14_12_58_044,76.0,35.0,127.0,-108.0,16.0,-118.0,-128.0,-24.0,0.9580078125,-0.3720703125,0.4912109375,15.54878048780488,55.426829268292686,53.29268292682927
14_12_58_044,32.0,22.0,-128.0,-128.0,-48.0,127.0,64.0,9.0,0.99072265625,-0.39453125,0.57421875,15.060975609756099,51.768292682926834,45.670731707317074
14_12_58_044,-128.0,-128.0,-71.0,-128.0,-78.0,-128.0,-128.0,-81.0,0.9619140625,-0.2255859375,0.5810546875,18.658536585365855,46.09756097560976,46.15853658536586
14_12_58_044,127.0,74.0,-32.0,56.0,1.0,-27.0,2.0,15.0,0.92431640625,-0.49755859375,0.646484375,10.609756097560977,39.08536585365854,40.426829268292686
14_12_58_044,-128.0,-76.0,50.0,127.0,42.0,46.0,-4.0,93.0,0.92529296875,-0.50390625,0.54248046875,-4.634146341463415,28.292682926829272,33.65853658536586
14_12_58_044,-128.0,-43.0,5.0,8.0,-128.0,-93.0,127.0,65.0,0.94482421875,-0.35205078125,0.4091796875,10.24390243902439,21.28048780487805,27.25609756097561
14_12_58_104,43.0,-46.0,54.0,-23.0,-39.0,74.0,127.0,33.0,0.662109375,-0.45361328125,0.66064453125,10.182926829268293,75.91463414634147,45.670731707317074
14_12_58_104,-128.0,-85.0,-67.0,-111.0,-34.0,-49.0,6.0,-11.0,0.76953125,-0.5,0.65576171875,17.682926829268293,71.28048780487805,41.951219512195124
14_12_58_104,40.0,14.0,127.0,-128.0,49.0,-98.0,-128.0,19.0,0.78759765625,-0.4326171875,0.60009765625,17.804878048780488,65.73170731707317,45.426829268292686
14_12_58_104,50.0,9.0,-83.0,11.0,-128.0,-16.0,-54.0,119.0,0.77880859375,-0.41552734375,0.56787109375,17.743902439024392,60.67073170731708,46.03658536585366
14_12_58_104,-114.0,-1.0,-40.0,111.0,127.0,121.0,-128.0,-128.0,0.87890625,-0.4619140625,0.546875,21.890243902439025,59.51219512195122,47.13414634146342
14_12_58_104,-44.0,-13.0,-16.0,-76.0,-128.0,-41.0,-43.0,43.0,0.9541015625,-0.3369140625,0.51513671875,25.54878048780488,56.28048780487806,42.987804878048784
14_12_58_104,119.0,59.0,19.0,65.0,33.0,12.0,-128.0,127.0,0.82568359375,-0.3369140625,0.45361328125,20.0609756097561,52.13414634146342,51.82926829268293
14_12_58_104,-128.0,-95.0,57.0,-13.0,-74.0,-128.0,-128.0,-69.0,0.9580078125,-0.3720703125,0.4912109375,15.54878048780488,55.426829268292686,53.29268292682927
14_12_58_104,127.0,21.0,-44.0,79.0,28.0,-8.0,127.0,127.0,0.99072265625,-0.39453125,0.57421875,15.060975609756099,51.768292682926834,45.670731707317074
14_12_58_104,78.0,30.0,22.0,-128.0,82.0,127.0,127.0,-7.0,0.9619140625,-0.2255859375,0.5810546875,18.658536585365855,46.09756097560976,46.15853658536586
14_12_58_154,127.0,-12.0,-27.0,-128.0,-39.0,-124.0,-128.0,127.0,0.70263671875,-0.51220703125,0.6982421875,18.84146341463415,87.31707317073172,40.426829268292686
14_12_58_154,84.0,-72.0,27.0,100.0,-107.0,74.0,127.0,-22.0,0.6630859375,-0.484375,0.6767578125,14.390243902439027,79.51219512195122,45.79268292682927
14_12_58_154,127.0,16.0,55.0,-128.0,-41.0,70.0,55.0,127.0,0.662109375,-0.45361328125,0.66064453125,10.182926829268293,75.91463414634147,45.670731707317074
14_12_58_154,54.0,10.0,-9.0,2.0,-74.0,-128.0,127.0,-128.0,0.76953125,-0.5,0.65576171875,17.682926829268293,71.28048780487805,41.951219512195124
14_12_58_154,-101.0,79.0,117.0,-128.0,-96.0,82.0,100.0,-54.0,0.78759765625,-0.4326171875,0.60009765625,17.804878048780488,65.73170731707317,45.426829268292686
14_12_58_154,127.0,92.0,99.0,127.0,127.0,127.0,-84.0,127.0,0.77880859375,-0.41552734375,0.56787109375,17.743902439024392,60.67073170731708,46.03658536585366
14_12_58_154,127.0,-35.0,-114.0,-90.0,-128.0,-128.0,127.0,55.0,0.87890625,-0.4619140625,0.546875,21.890243902439025,59.51219512195122,47.13414634146342
14_12_58_154,67.0,127.0,32.0,-42.0,-128.0,-80.0,-71.0,-128.0,0.9541015625,-0.3369140625,0.51513671875,25.54878048780488,56.28048780487806,42.987804878048784
14_12_58_154,29.0,-121.0,88.0,-21.0,-128.0,-128.0,-99.0,-89.0,0.82568359375,-0.3369140625,0.45361328125,20.0609756097561,52.13414634146342,51.82926829268293
14_12_58_154,-50.0,23.0,-91.0,127.0,127.0,127.0,127.0,122.0,0.9580078125,-0.3720703125,0.4912109375,15.54878048780488,55.426829268292686,53.29268292682927
14_12_58_212,127.0,10.0,7.0,6.0,11.0,-30.0,127.0,-111.0,0.5478515625,-0.5078125,0.814453125,22.5609756097561,95.1219512195122,36.82926829268293
14_12_58_212,12.0,25.0,-44.0,127.0,6.0,-128.0,-71.0,127.0,0.470703125,-0.49267578125,0.70166015625,15.670731707317074,86.15853658536587,40.54878048780488
14_12_58_212,-75.0,-32.0,127.0,-128.0,120.0,35.0,-128.0,-128.0,0.50732421875,-0.43115234375,0.63720703125,21.646341463414636,92.6829268292683,42.37804878048781
14_12_58_212,89.0,18.0,-48.0,60.0,-22.0,72.0,127.0,-9.0,0.70263671875,-0.51220703125,0.6982421875,18.84146341463415,87.31707317073172,40.426829268292686
14_12_58_212,127.0,81.0,80.0,125.0,127.0,127.0,-25.0,38.0,0.6630859375,-0.484375,0.6767578125,14.390243902439027,79.51219512195122,45.79268292682927
14_12_58_212,-36.0,116.0,16.0,-73.0,3.0,-80.0,-128.0,-114.0,0.662109375,-0.45361328125,0.66064453125,10.182926829268293,75.91463414634147,45.670731707317074
14_12_58_212,-78.0,-67.0,-74.0,13.0,-110.0,-116.0,-128.0,-50.0,0.76953125,-0.5,0.65576171875,17.682926829268293,71.28048780487805,41.951219512195124
14_12_58_212,-47.0,-96.0,127.0,-128.0,116.0,127.0,127.0,29.0,0.78759765625,-0.4326171875,0.60009765625,17.804878048780488,65.73170731707317,45.426829268292686
14_12_58_212,-128.0,-62.0,-128.0,-128.0,-120.0,-63.0,52.0,-10.0,0.77880859375,-0.41552734375,0.56787109375,17.743902439024392,60.67073170731708,46.03658536585366
14_12_58_212,127.0,54.0,16.0,127.0,127.0,-1.0,50.0,-32.0,0.87890625,-0.4619140625,0.546875,21.890243902439025,59.51219512195122,47.13414634146342
14_12_58_262,-46.0,-39.0,22.0,-30.0,15.0,15.0,-26.0,-81.0,0.376953125,-0.4833984375,0.84130859375,26.463414634146343,95.3048780487805,41.03658536585366
14_12_58_262,127.0,-40.0,127.0,-71.0,30.0,88.0,127.0,-40.0,0.388671875,-0.40869140625,0.7490234375,35.1829268292683,96.03658536585367,41.09756097560976
14_12_58_262,127.0,124.0,-128.0,60.0,-79.0,-128.0,-26.0,-81.0,0.39501953125,-0.47509765625,0.75634765625,25.670731707317074,100.79268292682927,45.1829268292683
14_12_58_262,-128.0,-46.0,17.0,9.0,-102.0,-103.0,-128.0,25.0,0.5478515625,-0.5078125,0.814453125,22.5609756097561,95.1219512195122,36.82926829268293
14_12_58_262,-70.0,-64.0,-51.0,-128.0,47.0,-56.0,127.0,101.0,0.470703125,-0.49267578125,0.70166015625,15.670731707317074,86.15853658536587,40.54878048780488
14_12_58_262,-36.0,127.0,52.0,127.0,-128.0,-80.0,-128.0,-128.0,0.50732421875,-0.43115234375,0.63720703125,21.646341463414636,92.6829268292683,42.37804878048781
14_12_58_262,108.0,-128.0,-128.0,-128.0,-96.0,-80.0,-128.0,127.0,0.70263671875,-0.51220703125,0.6982421875,18.84146341463415,87.31707317073172,40.426829268292686
14_12_58_262,-128.0,-71.0,-22.0,102.0,127.0,127.0,91.0,-128.0,0.6630859375,-0.484375,0.6767578125,14.390243902439027,79.51219512195122,45.79268292682927
14_12_58_262,43.0,36.0,73.0,126.0,66.0,76.0,76.0,-95.0,0.662109375,-0.45361328125,0.66064453125,10.182926829268293,75.91463414634147,45.670731707317074
14_12_58_262,-99.0,-77.0,-6.0,-128.0,-128.0,-5.0,-46.0,-50.0,0.76953125,-0.5,0.65576171875,17.682926829268293,71.28048780487805,41.951219512195124
14_12_58_309,68.0,20.0,28.0,-128.0,-114.0,-72.0,-118.0,14.0,0.29833984375,-0.43505859375,0.76953125,40.304878048780495,95.60975609756099,43.84146341463415
14_12_58_309,35.0,-116.0,-128.0,124.0,13.0,35.0,125.0,28.0,0.369140625,-0.5283203125,0.8515625,27.31707317073171,98.78048780487806,42.13414634146342
14_12_58_309,10.0,-42.0,-36.0,13.0,103.0,127.0,68.0,127.0,0.376953125,-0.4833984375,0.84130859375,26.463414634146343,95.3048780487805,41.03658536585366
14_12_58_309,-70.0,-8.0,127.0,-54.0,29.0,-33.0,111.0,-128.0,0.388671875,-0.40869140625,0.7490234375,35.1829268292683,96.03658536585367,41.09756097560976
14_12_58_309,-87.0,-114.0,31.0,127.0,-81.0,-57.0,1.0,29.0,0.39501953125,-0.47509765625,0.75634765625,25.670731707317074,100.79268292682927,45.1829268292683
14_12_58_309,2.0,127.0,-33.0,-128.0,-36.0,-3.0,-5.0,46.0,0.5478515625,-0.5078125,0.814453125,22.5609756097561,95.1219512195122,36.82926829268293
14_12_58_309,2.0,127.0,-107.0,-122.0,-128.0,-17.0,-32.0,23.0,0.470703125,-0.49267578125,0.70166015625,15.670731707317074,86.15853658536587,40.54878048780488
14_12_58_309,-27.0,-64.0,-90.0,-1.0,3.0,-6.0,127.0,-79.0,0.50732421875,-0.43115234375,0.63720703125,21.646341463414636,92.6829268292683,42.37804878048781
14_12_58_309,0.0,3.0,-9.0,127.0,44.0,-62.0,-128.0,47.0,0.70263671875,-0.51220703125,0.6982421875,18.84146341463415,87.31707317073172,40.426829268292686
14_12_58_309,-14.0,93.0,48.0,127.0,127.0,99.0,127.0,127.0,0.6630859375,-0.484375,0.6767578125,14.390243902439027,79.51219512195122,45.79268292682927
14_12_58_364,-128.0,16.0,19.0,-128.0,-122.0,-73.0,-128.0,-128.0,0.23193359375,-0.54931640625,0.73291015625,32.37804878048781,92.19512195121952,40.243902439024396
14_12_58_364,43.0,18.0,-57.0,-19.0,-128.0,-128.0,127.0,103.0,0.18603515625,-0.46533203125,0.7705078125,27.5609756097561,93.90243902439025,40.487804878048784
14_12_58_364,42.0,16.0,30.0,47.0,127.0,111.0,-123.0,-58.0,0.2998046875,-0.38232421875,0.77978515625,38.35365853658537,92.07317073170732,43.59756097560976
14_12_58_364,-40.0,-68.0,-31.0,115.0,127.0,64.0,125.0,-43.0,0.29833984375,-0.43505859375,0.76953125,40.304878048780495,95.60975609756099,43.84146341463415
14_12_58_364,127.0,-11.0,16.0,127.0,-128.0,-67.0,10.0,25.0,0.369140625,-0.5283203125,0.8515625,27.31707317073171,98.78048780487806,42.13414634146342
14_12_58_364,-128.0,127.0,-72.0,-128.0,-85.0,6.0,127.0,-69.0,0.376953125,-0.4833984375,0.84130859375,26.463414634146343,95.3048780487805,41.03658536585366
14_12_58_364,39.0,-128.0,85.0,17.0,-12.0,-29.0,-128.0,65.0,0.388671875,-0.40869140625,0.7490234375,35.1829268292683,96.03658536585367,41.09756097560976
14_12_58_364,31.0,-33.0,52.0,-107.0,9.0,53.0,127.0,-78.0,0.39501953125,-0.47509765625,0.75634765625,25.670731707317074,100.79268292682927,45.1829268292683
14_12_58_364,-68.0,-23.0,-79.0,46.0,79.0,127.0,-128.0,55.0,0.5478515625,-0.5078125,0.814453125,22.5609756097561,95.1219512195122,36.82926829268293
14_12_58_364,26.0,27.0,75.0,6.0,-26.0,-6.0,127.0,-81.0,0.470703125,-0.49267578125,0.70166015625,15.670731707317074,86.15853658536587,40.54878048780488
14_12_58_425,-128.0,-128.0,-21.0,-91.0,-76.0,-24.0,-102.0,-90.0,0.0888671875,-0.50341796875,0.7509765625,15.426829268292684,87.5609756097561,38.84146341463415
14_12_58_425,41.0,69.0,93.0,-19.0,-99.0,-22.0,24.0,0.0,0.107421875,-0.39501953125,0.76171875,27.5609756097561,89.14634146341464,36.58536585365854
14_12_58_425,-24.0,-88.0,-2.0,92.0,127.0,127.0,-128.0,-128.0,0.201171875,-0.39599609375,0.70458984375,36.82926829268293,93.47560975609757,37.6829268292683
14_12_58_425,-33.0,67.0,-31.0,-128.0,-30.0,-57.0,-116.0,127.0,0.23193359375,-0.54931640625,0.73291015625,32.37804878048781,92.19512195121952,40.243902439024396
14_12_58_425,18.0,107.0,-3.0,68.0,-57.0,35.0,127.0,-128.0,0.18603515625,-0.46533203125,0.7705078125,27.5609756097561,93.90243902439025,40.487804878048784
14_12_58_425,71.0,-128.0,8.0,127.0,3.0,-41.0,41.0,0.0,0.2998046875,-0.38232421875,0.77978515625,38.35365853658537,92.07317073170732,43.59756097560976
14_12_58_425,-128.0,-107.0,-50.0,-128.0,-59.0,-103.0,-128.0,1.0,0.29833984375,-0.43505859375,0.76953125,40.304878048780495,95.60975609756099,43.84146341463415
14_12_58_425,127.0,127.0,-63.0,127.0,-4.0,-63.0,42.0,62.0,0.369140625,-0.5283203125,0.8515625,27.31707317073171,98.78048780487806,42.13414634146342
14_12_58_425,-54.0,-120.0,-12.0,-128.0,10.0,39.0,-107.0,-128.0,0.376953125,-0.4833984375,0.84130859375,26.463414634146343,95.3048780487805,41.03658536585366
14_12_58_425,-108.0,93.0,115.0,46.0,49.0,73.0,-128.0,55.0,0.388671875,-0.40869140625,0.7490234375,35.1829268292683,96.03658536585367,41.09756097560976
14_12_58_474,-49.0,-128.0,31.0,-128.0,18.0,-38.0,-107.0,-86.0,0.091796875,-0.328125,0.74169921875,20.48780487804878,77.6219512195122,34.63414634146342
14_12_58_474,-4.0,-128.0,127.0,-20.0,-68.0,-50.0,-128.0,99.0,0.1298828125,-0.46044921875,0.76806640625,16.52439024390244,80.3048780487805,37.5
14_12_58_474,7.0,127.0,-38.0,27.0,-13.0,113.0,-128.0,-28.0,0.0888671875,-0.50341796875,0.7509765625,15.426829268292684,87.5609756097561,38.84146341463415
14_12_58_474,-60.0,-128.0,7.0,127.0,127.0,99.0,-11.0,-49.0,0.107421875,-0.39501953125,0.76171875,27.5609756097561,89.14634146341464,36.58536585365854
14_12_58_474,25.0,2.0,89.0,-35.0,-60.0,-62.0,-128.0,-84.0,0.201171875,-0.39599609375,0.70458984375,36.82926829268293,93.47560975609757,37.6829268292683
14_12_58_474,-24.0,127.0,-31.0,76.0,-36.0,-43.0,-36.0,61.0,0.23193359375,-0.54931640625,0.73291015625,32.37804878048781,92.19512195121952,40.243902439024396
14_12_58_474,36.0,-94.0,-22.0,4.0,-8.0,39.0,-92.0,-49.0,0.18603515625,-0.46533203125,0.7705078125,27.5609756097561,93.90243902439025,40.487804878048784
14_12_58_474,-54.0,-128.0,-4.0,127.0,65.0,13.0,-128.0,67.0,0.2998046875,-0.38232421875,0.77978515625,38.35365853658537,92.07317073170732,43.59756097560976
14_12_58_474,75.0,122.0,-67.0,-128.0,11.0,-106.0,127.0,127.0,0.29833984375,-0.43505859375,0.76953125,40.304878048780495,95.60975609756099,43.84146341463415
14_12_58_474,109.0,127.0,-57.0,31.0,-42.0,-25.0,-66.0,-12.0,0.369140625,-0.5283203125,0.8515625,27.31707317073171,98.78048780487806,42.13414634146342
14_12_58_536,-80.0,-23.0,-27.0,-9.0,12.0,36.0,-31.0,-40.0,-0.04296875,-0.3212890625,0.7294921875,15.79268292682927,59.57317073170732,31.34146341463415
14_12_58_536,13.0,48.0,-8.0,-128.0,-15.0,-13.0,127.0,27.0,0.076171875,-0.4267578125,0.755859375,19.02439024390244,68.17073170731707,33.90243902439025
14_12_58_536,11.0,-49.0,111.0,127.0,-56.0,-65.0,-73.0,89.0,0.0712890625,-0.416015625,0.7861328125,8.963414634146343,71.95121951219512,30.731707317073173
14_12_58_536,-58.0,127.0,-128.0,-128.0,-23.0,12.0,127.0,-86.0,0.091796875,-0.328125,0.74169921875,20.48780487804878,77.6219512195122,34.63414634146342
14_12_58_536,-42.0,-100.0,6.0,-120.0,25.0,-30.0,127.0,25.0,0.1298828125,-0.46044921875,0.76806640625,16.52439024390244,80.3048780487805,37.5
14_12_58_536,127.0,-72.0,-76.0,117.0,-85.0,-46.0,-128.0,-53.0,0.0888671875,-0.50341796875,0.7509765625,15.426829268292684,87.5609756097561,38.84146341463415
14_12_58_536,50.0,-128.0,-51.0,-124.0,-41.0,114.0,127.0,-22.0,0.107421875,-0.39501953125,0.76171875,27.5609756097561,89.14634146341464,36.58536585365854
14_12_58_536,-8.0,-22.0,126.0,127.0,127.0,-35.0,127.0,127.0,0.201171875,-0.39599609375,0.70458984375,36.82926829268293,93.47560975609757,37.6829268292683
14_12_58_536,-61.0,94.0,-49.0,-128.0,-128.0,-80.0,-128.0,-128.0,0.23193359375,-0.54931640625,0.73291015625,32.37804878048781,92.19512195121952,40.243902439024396
14_12_58_536,-22.0,-7.0,2.0,127.0,26.0,-10.0,-128.0,-61.0,0.18603515625,-0.46533203125,0.7705078125,27.5609756097561,93.90243902439025,40.487804878048784
14_12_58_584,127.0,-128.0,-128.0,85.0,95.0,-41.0,-128.0,39.0,-0.06640625,-0.38525390625,0.716796875,-2.0121951219512195,38.71951219512196,17.865853658536587
14_12_58_584,12.0,127.0,112.0,118.0,-18.0,-58.0,127.0,-8.0,-0.0087890625,-0.39208984375,0.75830078125,1.9512195121951221,44.75609756097561,20.30487804878049
14_12_58_584,-104.0,-128.0,-107.0,-117.0,-105.0,-2.0,-128.0,-74.0,0.01025390625,-0.34765625,0.7646484375,7.743902439024391,50.1829268292683,22.5609756097561
14_12_58_584,22.0,-108.0,-28.0,110.0,22.0,73.0,127.0,127.0,-0.04296875,-0.3212890625,0.7294921875,15.79268292682927,59.57317073170732,31.34146341463415
14_12_58_584,51.0,23.0,51.0,-88.0,71.0,11.0,-32.0,-47.0,0.076171875,-0.4267578125,0.755859375,19.02439024390244,68.17073170731707,33.90243902439025
14_12_58_584,-25.0,-82.0,4.0,-33.0,24.0,-23.0,-128.0,-128.0,0.0712890625,-0.416015625,0.7861328125,8.963414634146343,71.95121951219512,30.731707317073173
14_12_58_584,-128.0,127.0,33.0,32.0,-63.0,-13.0,127.0,3.0,0.091796875,-0.328125,0.74169921875,20.48780487804878,77.6219512195122,34.63414634146342
14_12_58_584,-20.0,-128.0,-34.0,-105.0,-23.0,-5.0,-8.0,-43.0,0.1298828125,-0.46044921875,0.76806640625,16.52439024390244,80.3048780487805,37.5
14_12_58_584,-42.0,50.0,-43.0,12.0,-38.0,-16.0,-3.0,30.0,0.0888671875,-0.50341796875,0.7509765625,15.426829268292684,87.5609756097561,38.84146341463415
14_12_58_584,62.0,-29.0,107.0,127.0,127.0,56.0,-2.0,15.0,0.107421875,-0.39501953125,0.76171875,27.5609756097561,89.14634146341464,36.58536585365854
14_12_58_646,-43.0,-128.0,-71.0,-20.0,32.0,-65.0,127.0,-35.0,-0.0478515625,-0.39013671875,0.8583984375,-1.3414634146341464,22.80487804878049,11.646341463414634
14_12_58_646,-10.0,127.0,-27.0,100.0,-91.0,-41.0,-69.0,-9.0,-0.078125,-0.49853515625,0.77197265625,-11.829268292682928,25.914634146341466,8.536585365853659
14_12_58_646,43.0,-128.0,127.0,-109.0,127.0,127.0,-128.0,57.0,-0.1015625,-0.43408203125,0.765625,-9.634146341463415,34.75609756097561,14.817073170731708
14_12_58_646,-12.0,-105.0,-121.0,-84.0,-128.0,-128.0,127.0,38.0,-0.06640625,-0.38525390625,0.716796875,-2.0121951219512195,38.71951219512196,17.865853658536587
14_12_58_646,-79.0,24.0,28.0,38.0,-7.0,48.0,-88.0,-11.0,-0.0087890625,-0.39208984375,0.75830078125,1.9512195121951221,44.75609756097561,20.30487804878049
14_12_58_646,7.0,34.0,-25.0,24.0,-19.0,-58.0,47.0,13.0,0.01025390625,-0.34765625,0.7646484375,7.743902439024391,50.1829268292683,22.5609756097561
14_12_58_646,-128.0,23.0,-75.0,-128.0,-67.0,-32.0,-3.0,-44.0,-0.04296875,-0.3212890625,0.7294921875,15.79268292682927,59.57317073170732,31.34146341463415
14_12_58_646,74.0,-102.0,7.0,121.0,-41.0,-12.0,-19.0,-12.0,0.076171875,-0.4267578125,0.755859375,19.02439024390244,68.17073170731707,33.90243902439025
14_12_58_646,59.0,-128.0,-128.0,32.0,-9.0,25.0,32.0,-18.0,0.0712890625,-0.416015625,0.7861328125,8.963414634146343,71.95121951219512,30.731707317073173
14_12_58_646,71.0,127.0,127.0,-103.0,-2.0,26.0,33.0,-83.0,0.091796875,-0.328125,0.74169921875,20.48780487804878,77.6219512195122,34.63414634146342
14_12_58_701,127.0,41.0,-84.0,65.0,73.0,127.0,127.0,127.0,-0.138671875,-0.3212890625,0.75390625,-7.01219512195122,12.74390243902439,9.634146341463415
14_12_58_701,-128.0,-128.0,33.0,-28.0,90.0,-39.0,-128.0,-128.0,-0.1298828125,-0.3388671875,0.82470703125,0.853658536585366,16.70731707317073,15.243902439024392
14_12_58_701,-5.0,127.0,20.0,-55.0,-103.0,-17.0,58.0,-29.0,-0.0478515625,-0.39013671875,0.8583984375,-1.3414634146341464,22.80487804878049,11.646341463414634
14_12_58_701,127.0,33.0,-48.0,-55.0,-98.0,-57.0,74.0,-46.0,-0.078125,-0.49853515625,0.77197265625,-11.829268292682928,25.914634146341466,8.536585365853659
14_12_58_701,19.0,-128.0,41.0,46.0,-42.0,57.0,-43.0,127.0,-0.1015625,-0.43408203125,0.765625,-9.634146341463415,34.75609756097561,14.817073170731708
14_12_58_701,-128.0,127.0,28.0,127.0,127.0,65.0,127.0,-67.0,-0.06640625,-0.38525390625,0.716796875,-2.0121951219512195,38.71951219512196,17.865853658536587
14_12_58_701,0.0,-111.0,-76.0,-100.0,-12.0,28.0,25.0,-70.0,-0.0087890625,-0.39208984375,0.75830078125,1.9512195121951221,44.75609756097561,20.30487804878049
14_12_58_701,69.0,85.0,32.0,44.0,-61.0,-52.0,-6.0,13.0,0.01025390625,-0.34765625,0.7646484375,7.743902439024391,50.1829268292683,22.5609756097561
14_12_58_701,-37.0,-128.0,-35.0,-49.0,-49.0,-11.0,-2.0,-63.0,-0.04296875,-0.3212890625,0.7294921875,15.79268292682927,59.57317073170732,31.34146341463415
14_12_58_701,49.0,-44.0,18.0,-128.0,-38.0,-36.0,18.0,24.0,0.076171875,-0.4267578125,0.755859375,19.02439024390244,68.17073170731707,33.90243902439025
14_12_58_754,-128.0,-6.0,69.0,28.0,-56.0,-3.0,-63.0,-60.0,-0.12255859375,-0.31787109375,0.8125,-6.097560975609756,-1.2804878048780488,3.231707317073171
14_12_58_754,-60.0,-128.0,-42.0,74.0,43.0,-41.0,127.0,127.0,-0.107421875,-0.37890625,0.87255859375,-11.463414634146343,2.804878048780488,1.707317073170732
14_12_58_754,-42.0,51.0,22.0,-59.0,39.0,68.0,-128.0,-128.0,-0.11669921875,-0.4052734375,0.81689453125,-5.487804878048781,5.975609756097562,8.78048780487805
14_12_58_754,52.0,-7.0,-38.0,-128.0,-111.0,-32.0,33.0,28.0,-0.138671875,-0.3212890625,0.75390625,-7.01219512195122,12.74390243902439,9.634146341463415
14_12_58_754,-99.0,-35.0,-2.0,78.0,78.0,80.0,15.0,-37.0,-0.1298828125,-0.3388671875,0.82470703125,0.853658536585366,16.70731707317073,15.243902439024392
14_12_58_754,24.0,111.0,-17.0,-128.0,127.0,-33.0,99.0,43.0,-0.0478515625,-0.39013671875,0.8583984375,-1.3414634146341464,22.80487804878049,11.646341463414634
14_12_58_754,-64.0,26.0,62.0,108.0,-120.0,-17.0,4.0,10.0,-0.078125,-0.49853515625,0.77197265625,-11.829268292682928,25.914634146341466,8.536585365853659
14_12_58_754,127.0,-41.0,-40.0,127.0,28.0,9.0,102.0,49.0,-0.1015625,-0.43408203125,0.765625,-9.634146341463415,34.75609756097561,14.817073170731708
14_12_58_754,-128.0,29.0,18.0,11.0,43.0,39.0,-21.0,-20.0,-0.06640625,-0.38525390625,0.716796875,-2.0121951219512195,38.71951219512196,17.865853658536587
14_12_58_754,-109.0,-107.0,73.0,124.0,-87.0,0.0,2.0,100.0,-0.0087890625,-0.39208984375,0.75830078125,1.9512195121951221,44.75609756097561,20.30487804878049
14_12_58_804,-35.0,-67.0,1.0,91.0,-58.0,-69.0,102.0,-21.0,-0.07568359375,-0.37158203125,0.802734375,-12.195121951219512,-6.402439024390245,-1.1585365853658538
