Application:, Trigno Discover (2.0.1.2)
Date/Time:, 5/14/2025 12:07:40 PM
Collection Length (seconds):, 42.525
Forearm 2 (83169), , , , , , , , Forearm 1 (82633), , , , , , , , Biceps (83254), , , , , , , , Triceps (83087)
sensor mode: 45, , , , , , , , sensor mode: 45, , , , , , , , sensor mode: 45, , , , , , , , sensor mode: 45
EMG 1 Time Series (s), EMG 1 (mV), ACC X Time Series (s), ACC X (G), ACC Y Time Series (s), ACC Y (G), ACC Z Time Series (s), ACC Z (G), EMG 1 Time Series (s), EMG 1 (mV), ACC X Time Series (s), ACC X (G), ACC Y Time Series (s), ACC Y (G), ACC Z Time Series (s), ACC Z (G), EMG 1 Time Series (s), EMG 1 (mV), ACC X Time Series (s), ACC X (G), ACC Y Time Series (s), ACC Y (G), ACC Z Time Series (s), ACC Z (G), EMG 1 Time Series (s), EMG 1 (mV), ACC X Time Series (s), ACC X (G), ACC Y Time Series (s), ACC Y (G), ACC Z Time Series (s), ACC Z (G)
, 1925.9259 Hz, , 74.0741 Hz, , 74.0741 Hz, , 74.0741 Hz, , 1925.9259 Hz, , 74.0741 Hz, , 74.0741 Hz, , 74.0741 Hz, , 1925.9259 Hz, , 74.0741 Hz, , 74.0741 Hz, , 74.0741 Hz, , 1925.9259 Hz, , 74.0741 Hz, , 74.0741 Hz, , 74.0741 Hz
, 0.0005192307692307692 s, , 0.0135 s, , 0.0135 s, , 0.0135 s, , 0.0005192307692307692 s, , 0.0135 s, , 0.0135 s, , 0.0135 s, , 0.0005192307692307692 s, , 0.0135 s, , 0.0135 s, , 0.0135 s, , 0.0005192307692307692 s, , 0.0135 s, , 0.0135 s, , 0.0135 s, , Type, Name, Label, Time (s), , Pair, E1, E2, T1, T2, V1, V2, Sensor, Channel, Units, Delta T, RMS, PKPK, Peak Value, TPK, Integral
0, 0.0209812, 0, -0.2666016, 0, -0.9873047, 0, 0.1245117, 0, -0.0072175, 0, 0.3344727, 0, -0.9404297, 0, -0.199707, 0, -0.0082246, 0, 0.1513672, 0, -1.0087891, 0, -0.0244141, 0, 0.0119173, 0, -0.1640625, 0, -0.9951172, 0, 0.0512695, , , , , , , , , , , , , , , , , , , , , , 
0.0005192, 0.0196384, 0.0135, -0.2729492, 0.0135, -0.9882812, 0.0135, 0.1220703, 0.0005192, -0.0058747, 0.0135, 0.3334961, 0.0135, -0.940918, 0.0135, -0.1958008, 0.0005192, -0.008896, 0.0135, 0.1455078, 0.0135, -1.0083008, 0.0135, -0.0249023, 0.0005192, 0.012253, 0.0135, -0.1591797, 0.0135, -0.9936523, 0.0135, 0.050293, , , , , , , , , , , , , , , , , , , , , , 
0.0010385, 0.0169528, 0.027, -0.2729492, 0.027, -0.9853516, 0.027, 0.1220703, 0.0010385, -0.0058747, 0.027, 0.3286133, 0.027, -0.9433594, 0.027, -0.1938477, 0.0010385, -0.0085603, 0.027, 0.1489258, 0.027, -1.0078125, 0.027, -0.0229492, 0.0010385, 0.0125887, 0.027, -0.1640625, 0.027, -0.9936523, 0.027, 0.050293, , , , , , , , , , , , , , , , , , , , , , 
0.0015577, 0.0135958, 0.0405, -0.2661133, 0.0405, -0.9848633, 0.0405, 0.1240234, 0.0015577, -0.0050355, 0.0405, 0.3266602, 0.0405, -0.9433594, 0.0405, -0.1958008, 0.0015577, -0.008896, 0.0405, 0.152832, 0.0405, -1.0073242, 0.0405, -0.0258789, 0.0015577, 0.0095674, 0.0405, -0.1699219, 0.0405, -0.9926758, 0.0405, 0.0541992, , , , , , , , , , , , , , , , , , , , , , 
0.0020769, 0.0164492, 0.054, -0.2578125, 0.054, -0.984375, 0.054, 0.1259766, 0.0020769, -0.0048676, 0.054, 0.3295898, 0.054, -0.9433594, 0.054, -0.2006836, 0.0020769, -0.0092317, 0.054, 0.152832, 0.054, -1.0053711, 0.054, -0.0258789, 0.0020769, 0.0058747, 0.054, -0.1699219, 0.054, -0.9936523, 0.054, 0.0541992, , , , , , , , , , , , , , , , , , , , , , 
0.0025962, 0.0223239, 0.0675, -0.2543945, 0.0675, -0.9824219, 0.0675, 0.1279297, 0.0025962, -0.0041962, 0.0675, 0.3320312, 0.0675, -0.9379883, 0.0675, -0.1987305, 0.0025962, -0.0097353, 0.0675, 0.1513672, 0.0675, -1.003418, 0.0675, -0.0244141, 0.0025962, 0.0016785, 0.0675, -0.1694336, 0.0675, -0.9921875, 0.0675, 0.0541992, , , , , , , , , , , , , , , , , , , , , , 
0.0031154, 0.0236667, 0.081, -0.2636719, 0.081, -0.9775391, 0.081, 0.1240234, 0.0031154, -0.005539, 0.081, 0.3320312, 0.081, -0.9379883, 0.081, -0.1977539, 0.0031154, -0.0109102, 0.081, 0.1435547, 0.081, -1, 0.081, -0.0273438, 0.0031154, -0.0008392, 0.081, -0.168457, 0.081, -0.987793, 0.081, 0.0522461, , , , , , , , , , , , , , , , , , , , , , 
0.0036346, 0.0240024, 0.0945, -0.269043, 0.0945, -0.9746094, 0.0945, 0.1225586, 0.0036346, -0.0070497, 0.0945, 0.3276367, 0.0945, -0.9345703, 0.0945, -0.1948242, 0.0036346, -0.011078, 0.0945, 0.1411133, 0.0945, -1, 0.0945, -0.0273438, 0.0036346, -0.0016785, 0.0945, -0.1630859, 0.0945, -0.9853516, 0.0945, 0.0458984, , , , , , , , , , , , , , , , , , , , , , 
0.0041538, 0.0253452, 0.108, -0.265625, 0.108, -0.9750977, 0.108, 0.1225586, 0.0041538, -0.0077211, 0.108, 0.3256836, 0.108, -0.9301758, 0.108, -0.1948242, 0.0041538, -0.0105745, 0.108, 0.1445312, 0.108, -0.9995117, 0.108, -0.0268555, 0.0041538, -0.0041962, 0.108, -0.1586914, 0.108, -0.9848633, 0.108, 0.0478516, , , , , , , , , , , , , , , , , , , , , , 
0.0046731, 0.0263523, 0.1215, -0.2641602, 0.1215, -0.9785156, 0.1215, 0.1210938, 0.0046731, -0.0062104, 0.1215, 0.3276367, 0.1215, -0.9311523, 0.1215, -0.1953125, 0.0046731, -0.0105745, 0.1215, 0.1464844, 0.1215, -1.0009766, 0.1215, -0.0288086, 0.0046731, -0.0068818, 0.1215, -0.159668, 0.1215, -0.987793, 0.1215, 0.0483398, , , , , , , , , , , , , , , , , , , , , , 
0.0051923, 0.0253452, 0.135, -0.2612305, 0.135, -0.9814453, 0.135, 0.1230469, 0.0051923, -0.0048676, 0.135, 0.3325195, 0.135, -0.9301758, 0.135, -0.1962891, 0.0051923, -0.0109102, 0.135, 0.1533203, 0.135, -1.0014648, 0.135, -0.0258789, 0.0051923, -0.0068818, 0.135, -0.1606445, 0.135, -0.9868164, 0.135, 0.0483398, , , , , , , , , , , , , , , , , , , , , , 
0.0057115, 0.0182956, 0.1485, -0.2641602, 0.1485, -0.9775391, 0.1485, 0.1240234, 0.0057115, -0.0023499, 0.1485, 0.3305664, 0.1485, -0.9331055, 0.1485, -0.1948242, 0.0057115, -0.0119173, 0.1485, 0.1503906, 0.1485, -0.9995117, 0.1485, -0.0209961, 0.0057115, -0.0052033, 0.1485, -0.1630859, 0.1485, -0.9882812, 0.1485, 0.043457, , , , , , , , , , , , , , , , , , , , , , 
0.0062308, 0.0132601, 0.162, -0.2612305, 0.162, -0.9785156, 0.162, 0.125, 0.0062308, -0.0048676, 0.162, 0.3330078, 0.162, -0.9306641, 0.162, -0.1972656, 0.0062308, -0.0109102, 0.162, 0.140625, 0.162, -1, 0.162, -0.0229492, 0.0062308, -0.002182, 0.162, -0.1689453, 0.162, -0.9873047, 0.162, 0.0488281, , , , , , , , , , , , , , , , , , , , , , 
0.00675, 0.0112459, 0.1755, -0.2602539, 0.1755, -0.9799805, 0.1755, 0.1245117, 0.00675, -0.0082246, 0.1755, 0.3374023, 0.1755, -0.9311523, 0.1755, -0.1987305, 0.00675, -0.0083925, 0.1755, 0.1386719, 0.1755, -1.0004883, 0.1755, -0.0273438, 0.00675, 0.0025177, 0.1755, -0.1645508, 0.1755, -0.9814453, 0.1755, 0.046875, , , , , , , , , , , , , , , , , , , , , , 
0.0072692, 0.0075532, 0.189, -0.2553711, 0.189, -0.9780273, 0.189, 0.1225586, 0.0072692, -0.0090639, 0.189, 0.3291016, 0.189, -0.9321289, 0.189, -0.1967773, 0.0072692, -0.0068818, 0.189, 0.1357422, 0.189, -1.0009766, 0.189, -0.0302734, 0.0072692, 0.0065461, 0.189, -0.1625977, 0.189, -0.9868164, 0.189, 0.0498047, , , , , , , , , , , , , , , , , , , , , , 
0.0077885, 0.0075532, 0.2025, -0.2573242, 0.2025, -0.9780273, 0.2025, 0.1240234, 0.0077885, -0.0078889, 0.2025, 0.3256836, 0.2025, -0.9331055, 0.2025, -0.1987305, 0.0077885, -0.0062104, 0.2025, 0.1474609, 0.2025, -1.0019531, 0.2025, -0.0302734, 0.0077885, 0.0068818, 0.2025, -0.1577148, 0.2025, -0.987793, 0.2025, 0.0541992, , , , , , , , , , , , , , , , , , , , , , 
0.0083077, 0.0036927, 0.216, -0.2617188, 0.216, -0.9819336, 0.216, 0.1225586, 0.0083077, -0.0085603, 0.216, 0.3251953, 0.216, -0.9345703, 0.216, -0.2001953, 0.0083077, -0.0068818, 0.216, 0.1547852, 0.216, -1.0048828, 0.216, -0.0249023, 0.0083077, 0.008896, 0.216, -0.15625, 0.216, -0.9912109, 0.216, 0.0488281, , , , , , , , , , , , , , , , , , , , , , 
0.0088269, -0.0031891, 0.2295, -0.2675781, 0.2295, -0.9829102, 0.2295, 0.1210938, 0.0088269, -0.0085603, 0.2295, 0.3232422, 0.2295, -0.9384766, 0.2295, -0.1982422, 0.0088269, -0.0068818, 0.2295, 0.159668, 0.2295, -1.0073242, 0.2295, -0.0229492, 0.0088269, 0.014435, 0.2295, -0.1616211, 0.2295, -0.9926758, 0.2295, 0.0454102, , , , , , , , , , , , , , , , , , , , , , 
0.0093462, -0.0072175, 0.243, -0.2680664, 0.243, -0.9833984, 0.243, 0.1225586, 0.0093462, -0.0085603, 0.243, 0.3276367, 0.243, -0.9414062, 0.243, -0.1977539, 0.0093462, -0.0075532, 0.243, 0.1518555, 0.243, -1.0063477, 0.243, -0.0244141, 0.0093462, 0.0196384, 0.243, -0.1635742, 0.243, -0.9956055, 0.243, 0.050293, , , , , , , , , , , , , , , , , , , , , , 
0.0098654, -0.0078889, 0.2565, -0.2617188, 0.2565, -0.9863281, 0.2565, 0.1235352, 0.0098654, -0.0083925, 0.2565, 0.3330078, 0.2565, -0.940918, 0.2565, -0.1958008, 0.0098654, -0.0085603, 0.2565, 0.1420898, 0.2565, -1.0092773, 0.2565, -0.0234375, 0.0098654, 0.0224918, 0.2565, -0.1640625, 0.2565, -0.9931641, 0.2565, 0.0537109, , , , , , , , , , , , , , , , , , , , , , 
0.0103846, -0.0043641, 0.27, -0.2573242, 0.27, -0.9858398, 0.27, 0.1240234, 0.0103846, -0.0077211, 0.27, 0.3364258, 0.27, -0.9379883, 0.27, -0.1953125, 0.0103846, -0.0077211, 0.27, 0.1435547, 0.27, -1.0048828, 0.27, -0.0307617, 0.0103846, 0.0246738, 0.27, -0.1625977, 0.27, -0.9941406, 0.27, 0.0532227, , , , , , , , , , , , , , , , , , , , , , 
0.0109038, -0.0016785, 0.2835, -0.2592773, 0.2835, -0.9824219, 0.2835, 0.125, 0.0109038, -0.0072175, 0.2835, 0.331543, 0.2835, -0.9365234, 0.2835, -0.1972656, 0.0109038, -0.0072175, 0.2835, 0.1499023, 0.2835, -1.003418, 0.2835, -0.0307617, 0.0109038, 0.0253452, 0.2835, -0.1606445, 0.2835, -0.9897461, 0.2835, 0.0532227, , , , , , , , , , , , , , , , , , , , , , 
0.0114231, -0.0028534, 0.297, -0.2626953, 0.297, -0.9814453, 0.297, 0.121582, 0.0114231, -0.0102388, 0.297, 0.3291016, 0.297, -0.9350586, 0.297, -0.199707, 0.0114231, -0.0077211, 0.297, 0.1523438, 0.297, -0.9995117, 0.297, -0.0288086, 0.0114231, 0.026688, 0.297, -0.1621094, 0.297, -0.9873047, 0.297, 0.0546875, , , , , , , , , , , , , , , , , , , , , , 
0.0119423, -0.0057069, 0.3105, -0.262207, 0.3105, -0.9799805, 0.3105, 0.1230469, 0.0119423, -0.0109102, 0.3105, 0.3261719, 0.3105, -0.934082, 0.3105, -0.1992188, 0.0119423, -0.0065461, 0.3105, 0.1518555, 0.3105, -0.9970703, 0.3105, -0.0288086, 0.0119423, 0.0280308, 0.3105, -0.1582031, 0.3105, -0.9873047, 0.3105, 0.0541992, , , , , , , , , , , , , , , , , , , , , , 
0.0124615, -0.0035248, 0.324, -0.2636719, 0.324, -0.9746094, 0.324, 0.1235352, 0.0124615, -0.008896, 0.324, 0.3242188, 0.324, -0.9296875, 0.324, -0.1987305, 0.0124615, -0.0048676, 0.324, 0.1513672, 0.324, -0.9956055, 0.324, -0.0288086, 0.0124615, 0.0253452, 0.324, -0.1586914, 0.324, -0.984375, 0.324, 0.0507812, , , , , , , , , , , , , , , , , , , , , , 
0.0129808, 0.0025177, 0.3375, -0.2651367, 0.3375, -0.9775391, 0.3375, 0.1225586, 0.0129808, -0.0068818, 0.3375, 0.3256836, 0.3375, -0.9296875, 0.3375, -0.1977539, 0.0129808, -0.0038605, 0.3375, 0.1450195, 0.3375, -0.9985352, 0.3375, -0.0268555, 0.0129808, 0.0203098, 0.3375, -0.1708984, 0.3375, -0.9804688, 0.3375, 0.0551758, , , , , , , , , , , , , , , , , , , , , , 
0.0135, 0.0057069, 0.351, -0.2641602, 0.351, -0.9785156, 0.351, 0.1235352, 0.0135, -0.0075532, 0.351, 0.331543, 0.351, -0.9321289, 0.351, -0.1962891, 0.0135, -0.0031891, 0.351, 0.1391602, 0.351, -1.0043945, 0.351, -0.0288086, 0.0135, 0.0169528, 0.351, -0.1655273, 0.351, -0.984375, 0.351, 0.0527344, , , , , , , , , , , , , , , , , , , , , , 
0.0140192, 0.005539, 0.3645, -0.2626953, 0.3645, -0.9794922, 0.3645, 0.1240234, 0.0140192, -0.0085603, 0.3645, 0.331543, 0.3645, -0.9350586, 0.3645, -0.1948242, 0.0140192, -0.0035248, 0.3645, 0.1445312, 0.3645, -1.0029297, 0.3645, -0.0292969, 0.0140192, 0.0169528, 0.3645, -0.1572266, 0.3645, -0.9858398, 0.3645, 0.0507812, , , , , , , , , , , , , , , , , , , , , , 
0.0145385, 0.005539, 0.378, -0.2597656, 0.378, -0.9794922, 0.378, 0.1240234, 0.0145385, -0.0078889, 0.378, 0.3339844, 0.378, -0.9326172, 0.378, -0.1933594, 0.0145385, -0.0048676, 0.378, 0.152832, 0.378, -0.9980469, 0.378, -0.0263672, 0.0145385, 0.0172885, 0.378, -0.15625, 0.378, -0.9824219, 0.378, 0.0512695, , , , , , , , , , , , , , , , , , , , , , 
0.0150577, 0.0102388, 0.3915, -0.2583008, 0.3915, -0.9765625, 0.3915, 0.1235352, 0.0150577, -0.0065461, 0.3915, 0.3374023, 0.3915, -0.9301758, 0.3915, -0.1972656, 0.0150577, -0.005539, 0.3915, 0.1557617, 0.3915, -0.9946289, 0.3915, -0.0273438, 0.0150577, 0.0162814, 0.3915, -0.1591797, 0.3915, -0.9848633, 0.3915, 0.050293, , , , , , , , , , , , , , , , , , , , , , 
0.0155769, 0.0166171, 0.405, -0.253418, 0.405, -0.9819336, 0.405, 0.1235352, 0.0155769, -0.0072175, 0.405, 0.3330078, 0.405, -0.934082, 0.405, -0.1972656, 0.0155769, -0.0052033, 0.405, 0.1567383, 0.405, -1.0004883, 0.405, -0.027832, 0.0155769, 0.0157778, 0.405, -0.159668, 0.405, -0.9887695, 0.405, 0.0488281, , , , , , , , , , , , , , , , , , , , , , 
0.0160962, 0.0166171, 0.4185, -0.2617188, 0.4185, -0.9799805, 0.4185, 0.1259766, 0.0160962, -0.0075532, 0.4185, 0.3271484, 0.4185, -0.9384766, 0.4185, -0.1982422, 0.0160962, -0.005539, 0.4185, 0.1499023, 0.4185, -1.0043945, 0.4185, -0.0273438, 0.0160962, 0.0162814, 0.4185, -0.1591797, 0.4185, -0.9931641, 0.4185, 0.0517578, , , , , , , , , , , , , , , , , , , , , , 
0.0166154, 0.014435, 0.432, -0.2705078, 0.432, -0.9833984, 0.432, 0.1210938, 0.0166154, -0.0068818, 0.432, 0.3291016, 0.432, -0.9365234, 0.432, -0.1958008, 0.0166154, -0.0063783, 0.432, 0.1411133, 0.432, -1.0048828, 0.432, -0.0268555, 0.0166154, 0.0169528, 0.432, -0.1591797, 0.432, -0.987793, 0.432, 0.0546875, , , , , , , , , , , , , , , , , , , , , , 
0.0171346, 0.0149386, 0.4455, -0.2700195, 0.4455, -0.984375, 0.4455, 0.1210938, 0.0171346, -0.0068818, 0.4455, 0.3325195, 0.4455, -0.9370117, 0.4455, -0.1918945, 0.0171346, -0.0082246, 0.4455, 0.140625, 0.4455, -1.0053711, 0.4455, -0.027832, 0.0171346, 0.0169528, 0.4455, -0.1645508, 0.4455, -0.9853516, 0.4455, 0.0527344, , , , , , , , , , , , , , , , , , , , , , 
0.0176538, 0.0146029, 0.459, -0.2626953, 0.459, -0.9780273, 0.459, 0.1230469, 0.0176538, -0.0063783, 0.459, 0.328125, 0.459, -0.9379883, 0.459, -0.1958008, 0.0176538, -0.0092317, 0.459, 0.1499023, 0.459, -1.0009766, 0.459, -0.0302734, 0.0176538, 0.0159457, 0.459, -0.1625977, 0.459, -0.987793, 0.459, 0.0522461, , , , , , , , , , , , , , , , , , , , , , 
0.0181731, 0.0159457, 0.4725, -0.2578125, 0.4725, -0.9775391, 0.4725, 0.1240234, 0.0181731, -0.0072175, 0.4725, 0.3261719, 0.4725, -0.934082, 0.4725, -0.2001953, 0.0181731, -0.010071, 0.4725, 0.1542969, 0.4725, -0.9980469, 0.4725, -0.0288086, 0.0181731, 0.0152743, 0.4725, -0.1640625, 0.4725, -0.9873047, 0.4725, 0.0517578, , , , , , , , , , , , , , , , , , , , , , 
0.0186923, 0.0226596, 0.486, -0.2602539, 0.486, -0.9824219, 0.486, 0.1240234, 0.0186923, -0.0082246, 0.486, 0.3334961, 0.486, -0.9301758, 0.486, -0.1987305, 0.0186923, -0.0102388, 0.486, 0.1459961, 0.486, -0.9995117, 0.486, -0.0249023, 0.0186923, 0.01561, 0.486, -0.1660156, 0.486, -0.9838867, 0.486, 0.0532227, , , , , , , , , , , , , , , , , , , , , , 
0.0192115, 0.0240024, 0.4995, -0.2641602, 0.4995, -0.9819336, 0.4995, 0.1240234, 0.0192115, -0.0082246, 0.4995, 0.3325195, 0.4995, -0.9335938, 0.4995, -0.1958008, 0.0192115, -0.0092317, 0.4995, 0.1416016, 0.4995, -1.0014648, 0.4995, -0.027832, 0.0192115, 0.0152743, 0.4995, -0.1630859, 0.4995, -0.984375, 0.4995, 0.0483398, , , , , , , , , , , , , , , , , , , , , , 
0.0197308, 0.0199741, 0.513, -0.2651367, 0.513, -0.9755859, 0.513, 0.121582, 0.0197308, -0.0078889, 0.513, 0.3286133, 0.513, -0.9365234, 0.513, -0.1914062, 0.0197308, -0.008896, 0.513, 0.1474609, 0.513, -1.0019531, 0.513, -0.0283203, 0.0197308, 0.0146029, 0.513, -0.1577148, 0.513, -0.9868164, 0.513, 0.0498047, , , , , , , , , , , , , , , , , , , , , , 
0.02025, 0.0167849, 0.5265, -0.2646484, 0.5265, -0.9780273, 0.5265, 0.1201172, 0.02025, -0.0082246, 0.5265, 0.3330078, 0.5265, -0.9331055, 0.5265, -0.1958008, 0.02025, -0.0105745, 0.5265, 0.1503906, 0.5265, -1.0009766, 0.5265, -0.0263672, 0.02025, 0.0151064, 0.5265, -0.1547852, 0.5265, -0.9858398, 0.5265, 0.0498047, , , , , , , , , , , , , , , , , , , , , , 
0.0207692, 0.0186313, 0.54, -0.2641602, 0.54, -0.980957, 0.54, 0.121582, 0.0207692, -0.0058747, 0.54, 0.3374023, 0.54, -0.934082, 0.54, -0.1928711, 0.0207692, -0.0102388, 0.54, 0.1518555, 0.54, -0.9990234, 0.54, -0.0273438, 0.0207692, 0.0179599, 0.54, -0.1572266, 0.54, -0.9863281, 0.54, 0.0507812, , , , , , , , , , , , , , , , , , , , , , 
0.0212885, 0.0236667, 0.5535, -0.2597656, 0.5535, -0.9814453, 0.5535, 0.1206055, 0.0212885, -0.0050355, 0.5535, 0.331543, 0.5535, -0.9375, 0.5535, -0.1943359, 0.0212885, -0.008896, 0.5535, 0.1547852, 0.5535, -0.996582, 0.5535, -0.0273438, 0.0212885, 0.0179599, 0.5535, -0.1586914, 0.5535, -0.9882812, 0.5535, 0.0493164, , , , , , , , , , , , , , , , , , , , , , 
0.0218077, 0.0223239, 0.567, -0.2602539, 0.567, -0.9770508, 0.567, 0.1225586, 0.0218077, -0.0062104, 0.567, 0.3256836, 0.567, -0.934082, 0.567, -0.1967773, 0.0218077, -0.0085603, 0.567, 0.1523438, 0.567, -0.9985352, 0.567, -0.0258789, 0.0218077, 0.0152743, 0.567, -0.1674805, 0.567, -0.9819336, 0.567, 0.0546875, , , , , , , , , , , , , , , , , , , , , , 
0.0223269, 0.0186313, 0.5805, -0.2631836, 0.5805, -0.9775391, 0.5805, 0.1225586, 0.0223269, -0.0062104, 0.5805, 0.3271484, 0.5805, -0.9311523, 0.5805, -0.2001953, 0.0223269, -0.0095674, 0.5805, 0.1469727, 0.5805, -1.0009766, 0.5805, -0.0234375, 0.0223269, 0.0119173, 0.5805, -0.1694336, 0.5805, -0.9814453, 0.5805, 0.0576172, , , , , , , , , , , , , , , , , , , , , , 
0.0228462, 0.0199741, 0.594, -0.2626953, 0.594, -0.9794922, 0.594, 0.1240234, 0.0228462, -0.0062104, 0.594, 0.3291016, 0.594, -0.9316406, 0.594, -0.1992188, 0.0228462, -0.0112459, 0.594, 0.1455078, 0.594, -0.9995117, 0.594, -0.0297852, 0.0228462, 0.0105745, 0.594, -0.1650391, 0.594, -0.9824219, 0.594, 0.0541992, , , , , , , , , , , , , , , , , , , , , , 
0.0233654, 0.0240024, 0.6075, -0.2612305, 0.6075, -0.9750977, 0.6075, 0.1230469, 0.0233654, -0.0072175, 0.6075, 0.3261719, 0.6075, -0.9345703, 0.6075, -0.1972656, 0.0233654, -0.0115816, 0.6075, 0.1479492, 0.6075, -1.0014648, 0.6075, -0.03125, 0.0233654, 0.011078, 0.6075, -0.1611328, 0.6075, -0.9868164, 0.6075, 0.0541992, , , , , , , , , , , , , , , , , , , , , , 
0.0238846, 0.0280308, 0.621, -0.2568359, 0.621, -0.9780273, 0.621, 0.1220703, 0.0238846, -0.0075532, 0.621, 0.3295898, 0.621, -0.9335938, 0.621, -0.2011719, 0.0238846, -0.0117494, 0.621, 0.1503906, 0.621, -1.0004883, 0.621, -0.0268555, 0.0238846, 0.0097353, 0.621, -0.1606445, 0.621, -0.9882812, 0.621, 0.0546875, , , , , , , , , , , , , , , , , , , , , , 
0.0244038, 0.0292058, 0.6345, -0.2626953, 0.6345, -0.9824219, 0.6345, 0.1201172, 0.0244038, -0.0075532, 0.6345, 0.3291016, 0.6345, -0.9345703, 0.6345, -0.1958008, 0.0244038, -0.0132601, 0.6345, 0.1499023, 0.6345, -1.0024414, 0.6345, -0.0234375, 0.0244038, 0.0062104, 0.6345, -0.1660156, 0.6345, -0.987793, 0.6345, 0.0517578, , , , , , , , , , , , , , , , , , , , , , 
0.0249231, 0.0287022, 0.648, -0.2680664, 0.648, -0.9804688, 0.648, 0.1206055, 0.0249231, -0.0058747, 0.648, 0.3276367, 0.648, -0.9384766, 0.648, -0.1982422, 0.0249231, -0.0135958, 0.648, 0.1513672, 0.648, -1.0039062, 0.648, -0.0219727, 0.0249231, 0.0041962, 0.648, -0.1650391, 0.648, -0.987793, 0.648, 0.0493164, , , , , , , , , , , , , , , , , , , , , , 
0.0254423, 0.0253452, 0.6615, -0.2661133, 0.6615, -0.980957, 0.6615, 0.1230469, 0.0254423, -0.0041962, 0.6615, 0.3271484, 0.6615, -0.9404297, 0.6615, -0.2006836, 0.0254423, -0.0119173, 0.6615, 0.1489258, 0.6615, -1.0073242, 0.6615, -0.0224609, 0.0254423, 0.0058747, 0.6615, -0.1645508, 0.6615, -0.9907227, 0.6615, 0.0498047, , , , , , , , , , , , , , , , , , , , , , 
0.0259615, 0.0213169, 0.675, -0.2592773, 0.675, -0.9829102, 0.675, 0.1259766, 0.0259615, -0.0052033, 0.675, 0.3310547, 0.675, -0.940918, 0.675, -0.1992188, 0.0259615, -0.010071, 0.675, 0.1469727, 0.675, -1.0043945, 0.675, -0.0258789, 0.0259615, 0.0099031, 0.675, -0.1616211, 0.675, -0.9907227, 0.675, 0.0527344, , , , , , , , , , , , , , , , , , , , , , 
0.0264808, 0.0149386, 0.6885, -0.2587891, 0.6885, -0.9814453, 0.6885, 0.1254883, 0.0264808, -0.008896, 0.6885, 0.3339844, 0.6885, -0.9360352, 0.6885, -0.1982422, 0.0264808, -0.0092317, 0.6885, 0.1503906, 0.6885, -1.0039062, 0.6885, -0.0273438, 0.0264808, 0.0124208, 0.6885, -0.1665039, 0.6885, -0.9892578, 0.6885, 0.0571289, , , , , , , , , , , , , , , , , , , , , , 
0.027, 0.0114137, 0.702, -0.2578125, 0.702, -0.9790039, 0.702, 0.1264648, 0.027, -0.0105745, 0.702, 0.3325195, 0.702, -0.9345703, 0.702, -0.199707, 0.027, -0.0070497, 0.702, 0.1503906, 0.702, -1.0009766, 0.702, -0.0273438, 0.027, 0.0119173, 0.702, -0.1669922, 0.702, -0.9887695, 0.702, 0.0546875, , , , , , , , , , , , , , , , , , , , , , 
0.0275192, 0.010071, 0.7155, -0.2548828, 0.7155, -0.9780273, 0.7155, 0.1259766, 0.0275192, -0.0097353, 0.7155, 0.328125, 0.7155, -0.9326172, 0.7155, -0.2026367, 0.0275192, -0.0068818, 0.7155, 0.1518555, 0.7155, -0.9995117, 0.7155, -0.0253906, 0.0275192, 0.0102388, 0.7155, -0.1660156, 0.7155, -0.9829102, 0.7155, 0.0581055, , , , , , , , , , , , , , , , , , , , , , 
0.0280385, 0.0070497, 0.729, -0.2568359, 0.729, -0.9785156, 0.729, 0.1235352, 0.0280385, -0.0075532, 0.729, 0.324707, 0.729, -0.9350586, 0.729, -0.2026367, 0.0280385, -0.0075532, 0.729, 0.1499023, 0.729, -0.9980469, 0.729, -0.0249023, 0.0280385, 0.0105745, 0.729, -0.1655273, 0.729, -0.9838867, 0.729, 0.0581055, , , , , , , , , , , , , , , , , , , , , , 
0.0285577, 0.0058747, 0.7425, -0.2607422, 0.7425, -0.9790039, 0.7425, 0.125, 0.0285577, -0.0068818, 0.7425, 0.3242188, 0.7425, -0.934082, 0.7425, -0.2045898, 0.0285577, -0.0077211, 0.7425, 0.1557617, 0.7425, -0.9985352, 0.7425, -0.0239258, 0.0285577, 0.0139315, 0.7425, -0.1630859, 0.7425, -0.9853516, 0.7425, 0.0595703, , , , , , , , , , , , , , , , , , , , , , 
0.0290769, 0.0031891, 0.756, -0.262207, 0.756, -0.9790039, 0.756, 0.125, 0.0290769, -0.0078889, 0.756, 0.3212891, 0.756, -0.9335938, 0.756, -0.2045898, 0.0290769, -0.0075532, 0.756, 0.1557617, 0.756, -0.9995117, 0.756, -0.0263672, 0.0290769, 0.0172885, 0.756, -0.1674805, 0.756, -0.9863281, 0.756, 0.059082, , , , , , , , , , , , , , , , , , , , , , 
0.0295962, 0.0018463, 0.7695, -0.2612305, 0.7695, -0.9804688, 0.7695, 0.1269531, 0.0295962, -0.0072175, 0.7695, 0.3261719, 0.7695, -0.9331055, 0.7695, -0.2036133, 0.0295962, -0.0062104, 0.7695, 0.1518555, 0.7695, -1, 0.7695, -0.0234375, 0.0295962, 0.0213169, 0.7695, -0.1665039, 0.7695, -0.9853516, 0.7695, 0.0576172, , , , , , , , , , , , , , , , , , , , , , 
0.0301154, 0.0035248, 0.783, -0.2573242, 0.783, -0.9770508, 0.783, 0.1289062, 0.0301154, -0.0077211, 0.783, 0.3320312, 0.783, -0.9311523, 0.783, -0.2021484, 0.0301154, -0.0046998, 0.783, 0.1479492, 0.783, -1.0024414, 0.783, -0.0209961, 0.0301154, 0.024506, 0.783, -0.1660156, 0.783, -0.9853516, 0.783, 0.0561523, , , , , , , , , , , , , , , , , , , , , , 
0.0306346, 0.0031891, 0.7965, -0.2563477, 0.7965, -0.9760742, 0.7965, 0.1259766, 0.0306346, -0.0102388, 0.7965, 0.3388672, 0.7965, -0.9301758, 0.7965, -0.1992188, 0.0306346, -0.0031891, 0.7965, 0.1503906, 0.7965, -0.9960938, 0.7965, -0.0200195, 0.0306346, 0.0263523, 0.7965, -0.1728516, 0.7965, -0.9790039, 0.7965, 0.0600586, , , , , , , , , , , , , , , , , , , , , , 
0.0311538, -0.0015106, 0.81, -0.2519531, 0.81, -0.9726562, 0.81, 0.1274414, 0.0311538, -0.0125887, 0.81, 0.3349609, 0.81, -0.9287109, 0.81, -0.2045898, 0.0311538, -0.0015106, 0.81, 0.1572266, 0.81, -0.9975586, 0.81, -0.0239258, 0.0311538, 0.0271916, 0.81, -0.1713867, 0.81, -0.9824219, 0.81, 0.0605469, , , , , , , , , , , , , , , , , , , , , , 
0.0316731, 0.0011749, 0.8235, -0.2587891, 0.8235, -0.9755859, 0.8235, 0.1308594, 0.0316731, -0.0104067, 0.8235, 0.3320312, 0.8235, -0.9326172, 0.8235, -0.2075195, 0.0316731, -0.002182, 0.8235, 0.1616211, 0.8235, -1.0053711, 0.8235, -0.0170898, 0.0316731, 0.0253452, 0.8235, -0.1728516, 0.8235, -0.9882812, 0.8235, 0.059082, , , , , , , , , , , , , , , , , , , , , , 
0.0321923, 0.0112459, 0.837, -0.2685547, 0.837, -0.9799805, 0.837, 0.128418, 0.0321923, -0.0082246, 0.837, 0.3295898, 0.837, -0.9389648, 0.837, -0.206543, 0.0321923, -0.003357, 0.837, 0.1577148, 0.837, -1.0092773, 0.837, -0.015625, 0.0321923, 0.0218204, 0.837, -0.1694336, 0.837, -0.9907227, 0.837, 0.0639648, , , , , , , , , , , , , , , , , , , , , , 
0.0327115, 0.0171206, 0.8505, -0.269043, 0.8505, -0.9799805, 0.8505, 0.1279297, 0.0327115, -0.0082246, 0.8505, 0.3295898, 0.8505, -0.9394531, 0.8505, -0.203125, 0.0327115, -0.0041962, 0.8505, 0.1523438, 0.8505, -1.0058594, 0.8505, -0.0126953, 0.0327115, 0.0193027, 0.8505, -0.1748047, 0.8505, -0.9887695, 0.8505, 0.0664062, , , , , , , , , , , , , , , , , , , , , , 
0.0332308, 0.0171206, 0.864, -0.2636719, 0.864, -0.9760742, 0.864, 0.1347656, 0.0332308, -0.008896, 0.864, 0.3286133, 0.864, -0.9375, 0.864, -0.2045898, 0.0332308, -0.0031891, 0.864, 0.1601562, 0.864, -1.0019531, 0.864, -0.0112305, 0.0332308, 0.0172885, 0.864, -0.1816406, 0.864, -0.9863281, 0.864, 0.0683594, , , , , , , , , , , , , , , , , , , , , , 
0.03375, 0.01561, 0.8775, -0.2597656, 0.8775, -0.9741211, 0.8775, 0.1347656, 0.03375, -0.0072175, 0.8775, 0.3339844, 0.8775, -0.9316406, 0.8775, -0.2080078, 0.03375, -0.0045319, 0.8775, 0.1650391, 0.8775, -0.9995117, 0.8775, -0.0166016, 0.03375, 0.0159457, 0.8775, -0.1826172, 0.8775, -0.9853516, 0.8775, 0.0683594, , , , , , , , , , , , , , , , , , , , , , 
0.0342692, 0.0135958, 0.891, -0.2558594, 0.891, -0.9750977, 0.891, 0.1376953, 0.0342692, -0.0058747, 0.891, 0.3369141, 0.891, -0.9316406, 0.891, -0.2104492, 0.0342692, -0.0068818, 0.891, 0.1630859, 0.891, -0.9960938, 0.891, -0.015625, 0.0342692, 0.0139315, 0.891, -0.1806641, 0.891, -0.9824219, 0.891, 0.0698242, , , , , , , , , , , , , , , , , , , , , , 
0.0347885, 0.0115816, 0.9045, -0.2539062, 0.9045, -0.9750977, 0.9045, 0.137207, 0.0347885, -0.0058747, 0.9045, 0.3383789, 0.9045, -0.9301758, 0.9045, -0.2094727, 0.0347885, -0.0062104, 0.9045, 0.1552734, 0.9045, -0.9946289, 0.9045, -0.0136719, 0.0347885, 0.0083925, 0.9045, -0.1791992, 0.9045, -0.9799805, 0.9045, 0.0712891, , , , , , , , , , , , , , , , , , , , , , 
0.0353077, 0.0112459, 0.918, -0.2597656, 0.918, -0.9731445, 0.918, 0.1352539, 0.0353077, -0.0078889, 0.918, 0.3334961, 0.918, -0.9208984, 0.918, -0.206543, 0.0353077, -0.0052033, 0.918, 0.152832, 0.918, -0.9907227, 0.918, -0.0151367, 0.0353077, 0.0038605, 0.918, -0.1762695, 0.918, -0.9750977, 0.918, 0.0688477, , , , , , , , , , , , , , , , , , , , , , 
0.0358269, 0.0146029, 0.9315, -0.2607422, 0.9315, -0.9667969, 0.9315, 0.1362305, 0.0358269, -0.0109102, 0.9315, 0.3320312, 0.9315, -0.9199219, 0.9315, -0.2089844, 0.0358269, -0.0062104, 0.9315, 0.1586914, 0.9315, -0.9887695, 0.9315, -0.0131836, 0.0358269, 0.0041962, 0.9315, -0.1748047, 0.9315, -0.9726562, 0.9315, 0.0649414, , , , , , , , , , , , , , , , , , , , , , 
0.0363462, 0.017792, 0.945, -0.2641602, 0.945, -0.9648438, 0.945, 0.1411133, 0.0363462, -0.0115816, 0.945, 0.331543, 0.945, -0.9189453, 0.945, -0.2114258, 0.0363462, -0.0078889, 0.945, 0.1621094, 0.945, -0.9868164, 0.945, -0.0102539, 0.0363462, 0.0035248, 0.945, -0.1733398, 0.945, -0.9760742, 0.945, 0.0644531, , , , , , , , , , , , , , , , , , , , , , 
0.0368654, 0.0162814, 0.9585, -0.2661133, 0.9585, -0.9633789, 0.9585, 0.1435547, 0.0368654, -0.0095674, 0.9585, 0.3364258, 0.9585, -0.9174805, 0.9585, -0.2099609, 0.0368654, -0.0085603, 0.9585, 0.1621094, 0.9585, -0.9921875, 0.9585, -0.0063477, 0.0368654, 0.002182, 0.9585, -0.1743164, 0.9585, -0.9770508, 0.9585, 0.0634766, , , , , , , , , , , , , , , , , , , , , , 
0.0373846, 0.0129244, 0.972, -0.269043, 0.972, -0.9638672, 0.972, 0.1469727, 0.0373846, -0.0082246, 0.972, 0.34375, 0.972, -0.9145508, 0.972, -0.2080078, 0.0373846, -0.0095674, 0.972, 0.1567383, 0.972, -0.9941406, 0.972, -0.0043945, 0.0373846, 0.0011749, 0.972, -0.1816406, 0.972, -0.9760742, 0.972, 0.0620117, , , , , , , , , , , , , , , , , , , , , , 
0.0379038, 0.0137636, 0.9855, -0.2700195, 0.9855, -0.9643555, 0.9855, 0.1464844, 0.0379038, -0.0077211, 0.9855, 0.3500977, 0.9855, -0.9150391, 0.9855, -0.2080078, 0.0379038, -0.0095674, 0.9855, 0.1484375, 0.9855, -0.9916992, 0.9855, -0.0019531, 0.0379038, 0.0020142, 0.9855, -0.1933594, 0.9855, -0.9746094, 0.9855, 0.0634766, , , , , , , , , , , , , , , , , , , , , , 
0.0384231, 0.01561, 0.999, -0.2631836, 0.999, -0.9736328, 0.999, 0.1479492, 0.0384231, -0.0082246, 0.999, 0.3549805, 0.999, -0.9213867, 0.999, -0.2089844, 0.0384231, -0.010071, 0.999, 0.144043, 0.999, -0.9956055, 0.999, -0.0039062, 0.0384231, 0.0028534, 0.999, -0.1967773, 0.999, -0.9746094, 0.999, 0.0693359, , , , , , , , , , , , , , , , , , , , , , 
0.0389423, 0.0149386, 1.0125, -0.2578125, 1.0125, -0.9780273, 1.0125, 0.1455078, 0.0389423, -0.008896, 1.0125, 0.3569336, 1.0125, -0.9287109, 1.0125, -0.2099609, 0.0389423, -0.0095674, 1.0125, 0.1499023, 1.0125, -0.9980469, 1.0125, -0.0136719, 0.0389423, 0.0031891, 1.0125, -0.1855469, 1.0125, -0.9819336, 1.0125, 0.0712891, , , , , , , , , , , , , , , , , , , , , , 
0.0394615, 0.0129244, 1.026, -0.2587891, 1.026, -0.9790039, 1.026, 0.1455078, 0.0394615, -0.0077211, 1.026, 0.3476562, 1.026, -0.9321289, 1.026, -0.2089844, 0.0394615, -0.0075532, 1.026, 0.1586914, 1.026, -1.0004883, 1.026, -0.0170898, 0.0394615, 0.0038605, 1.026, -0.1782227, 1.026, -0.9853516, 1.026, 0.0732422, , , , , , , , , , , , , , , , , , , , , , 
0.0399808, 0.0129244, 1.0395, -0.2617188, 1.0395, -0.9794922, 1.0395, 0.1430664, 0.0399808, -0.0057069, 1.0395, 0.3417969, 1.0395, -0.9326172, 1.0395, -0.2124023, 0.0399808, -0.0065461, 1.0395, 0.1660156, 1.0395, -1.0009766, 1.0395, -0.0141602, 0.0399808, 0.0035248, 1.0395, -0.1694336, 1.0395, -0.9858398, 1.0395, 0.0761719, , , , , , , , , , , , , , , , , , , , , , 
0.0405, 0.0129244, 1.053, -0.2680664, 1.053, -0.9814453, 1.053, 0.1445312, 0.0405, -0.0062104, 1.053, 0.3334961, 1.053, -0.9311523, 1.053, -0.2177734, 0.0405, -0.0062104, 1.053, 0.1772461, 1.053, -1.0019531, 1.053, -0.015625, 0.0405, 0.0028534, 1.053, -0.1689453, 1.053, -0.9863281, 1.053, 0.0766602, , , , , , , , , , , , , , , , , , , , , , 
0.0410192, 0.0092317, 1.0665, -0.2670898, 1.0665, -0.9819336, 1.0665, 0.1464844, 0.0410192, -0.0082246, 1.0665, 0.3349609, 1.0665, -0.9365234, 1.0665, -0.2192383, 0.0410192, -0.0062104, 1.0665, 0.1806641, 1.0665, -1.003418, 1.0665, -0.0112305, 0.0410192, 0.0030213, 1.0665, -0.1713867, 1.0665, -0.9882812, 1.0665, 0.0795898, , , , , , , , , , , , , , , , , , , , , , 
0.0415385, 0.0068818, 1.08, -0.262207, 1.08, -0.9824219, 1.08, 0.1499023, 0.0415385, -0.0085603, 1.08, 0.3422852, 1.08, -0.9375, 1.08, -0.2172852, 0.0415385, -0.0083925, 1.08, 0.1738281, 1.08, -1.0078125, 1.08, -0.0078125, 0.0415385, 0.002182, 1.08, -0.1728516, 1.08, -0.9902344, 1.08, 0.0820312, , , , , , , , , , , , , , , , , , , , , , 
0.0420577, 0.0112459, 1.0935, -0.2636719, 1.0935, -0.9833984, 1.0935, 0.1503906, 0.0420577, -0.0082246, 1.0935, 0.3500977, 1.0935, -0.9355469, 1.0935, -0.2163086, 0.0420577, -0.0109102, 1.0935, 0.1704102, 1.0935, -1.0083008, 1.0935, -0.0053711, 0.0420577, 0.0008392, 1.0935, -0.1787109, 1.0935, -0.9897461, 1.0935, 0.0830078, , , , , , , , , , , , , , , , , , , , , , 
0.0425769, 0.0172885, 1.107, -0.2612305, 1.107, -0.9794922, 1.107, 0.1508789, 0.0425769, -0.0068818, 1.107, 0.3530273, 1.107, -0.9375, 1.107, -0.2119141, 0.0425769, -0.0115816, 1.107, 0.1699219, 1.107, -1.0029297, 1.107, -0.0039062, 0.0425769, 0.0010071, 1.107, -0.184082, 1.107, -0.9868164, 1.107, 0.0854492, , , , , , , , , , , , , , , , , , , , , , 
0.0430962, 0.018967, 1.1205, -0.2558594, 1.1205, -0.9746094, 1.1205, 0.1513672, 0.0430962, -0.0045319, 1.1205, 0.347168, 1.1205, -0.9316406, 1.1205, -0.2133789, 0.0430962, -0.0115816, 1.1205, 0.1674805, 1.1205, -0.9990234, 1.1205, -0.0058594, 0.0430962, 0.0008392, 1.1205, -0.1894531, 1.1205, -0.9780273, 1.1205, 0.0849609, , , , , , , , , , , , , , , , , , , , , , 
0.0436154, 0.0219883, 1.134, -0.2568359, 1.134, -0.9667969, 1.134, 0.152832, 0.0436154, -0.0031891, 1.134, 0.3457031, 1.134, -0.9228516, 1.134, -0.2192383, 0.0436154, -0.011078, 1.134, 0.1635742, 1.134, -0.9931641, 1.134, -0.0004883, 0.0436154, -0.0008392, 1.134, -0.1948242, 1.134, -0.972168, 1.134, 0.0898438, , , , , , , , , , , , , , , , , , , , , , 
0.0441346, 0.0236667, 1.1475, -0.2592773, 1.1475, -0.9560547, 1.1475, 0.1533203, 0.0441346, -0.0041962, 1.1475, 0.3374023, 1.1475, -0.9135742, 1.1475, -0.2246094, 0.0441346, -0.0125887, 1.1475, 0.1689453, 1.1475, -0.9882812, 1.1475, 0.0068359, 0.0441346, -0.0010071, 1.1475, -0.2006836, 1.1475, -0.9663086, 1.1475, 0.0917969, , , , , , , , , , , , , , , , , , , , , , 
0.0446538, 0.021149, 1.161, -0.2685547, 1.161, -0.9487305, 1.161, 0.1547852, 0.0446538, -0.005539, 1.161, 0.3330078, 1.161, -0.9086914, 1.161, -0.2241211, 0.0446538, -0.0112459, 1.161, 0.1723633, 1.161, -0.9829102, 1.161, 0.0146484, 0.0446538, -0.0008392, 1.161, -0.2124023, 1.161, -0.9614258, 1.161, 0.0932617, , , , , , , , , , , , , , , , , , , , , , 
0.0451731, 0.01561, 1.1745, -0.2729492, 1.1745, -0.9448242, 1.1745, 0.1552734, 0.0451731, -0.0058747, 1.1745, 0.3354492, 1.1745, -0.9067383, 1.1745, -0.2211914, 0.0451731, -0.0095674, 1.1745, 0.1674805, 1.1745, -0.9833984, 1.1745, 0.0185547, 0.0451731, 0.0005035, 1.1745, -0.222168, 1.1745, -0.9589844, 1.1745, 0.0966797, , , , , , , , , , , , , , , , , , , , , , 
0.0456923, 0.0060426, 1.188, -0.2695312, 1.188, -0.9443359, 1.188, 0.1557617, 0.0456923, -0.0058747, 1.188, 0.3447266, 1.188, -0.9057617, 1.188, -0.2143555, 0.0456923, -0.0099031, 1.188, 0.1586914, 1.188, -0.9799805, 1.188, 0.0234375, 0.0456923, 0.0025177, 1.188, -0.2236328, 1.188, -0.9575195, 1.188, 0.0976562, , , , , , , , , , , , , , , , , , , , , , 
0.0462115, -0.0015106, 1.2015, -0.2607422, 1.2015, -0.9365234, 1.2015, 0.1572266, 0.0462115, -0.0063783, 1.2015, 0.3491211, 1.2015, -0.9047852, 1.2015, -0.2119141, 0.0462115, -0.0109102, 1.2015, 0.1601562, 1.2015, -0.972168, 1.2015, 0.0253906, 0.0462115, 0.0065461, 1.2015, -0.2226562, 1.2015, -0.9521484, 1.2015, 0.0976562, , , , , , , , , , , , , , , , , , , , , , 
0.0467308, -0.0018463, 1.215, -0.2583008, 1.215, -0.9360352, 1.215, 0.1567383, 0.0467308, -0.0075532, 1.215, 0.3520508, 1.215, -0.9003906, 1.215, -0.2119141, 0.0467308, -0.008896, 1.215, 0.1630859, 1.215, -0.9672852, 1.215, 0.0268555, 0.0467308, 0.0109102, 1.215, -0.2241211, 1.215, -0.9492188, 1.215, 0.0932617, , , , , , , , , , , , , , , , , , , , , , 
0.04725, 0.0008392, 1.2285, -0.2617188, 1.2285, -0.9335938, 1.2285, 0.1572266, 0.04725, -0.0082246, 1.2285, 0.3461914, 1.2285, -0.8969727, 1.2285, -0.2167969, 0.04725, -0.0062104, 1.2285, 0.1625977, 1.2285, -0.9677734, 1.2285, 0.0263672, 0.04725, 0.0152743, 1.2285, -0.2255859, 1.2285, -0.9501953, 1.2285, 0.0888672, , , , , , , , , , , , , , , , , , , , , , 
0.0477692, 0.0035248, 1.242, -0.2797852, 1.242, -0.9399414, 1.242, 0.1523438, 0.0477692, -0.0062104, 1.242, 0.3398438, 1.242, -0.9067383, 1.242, -0.2119141, 0.0477692, -0.0048676, 1.242, 0.1577148, 1.242, -0.9814453, 1.242, 0.0258789, 0.0477692, 0.0182956, 1.242, -0.2299805, 1.242, -0.9599609, 1.242, 0.0854492, , , , , , , , , , , , , , , , , , , , , , 
0.0482885, 0.0031891, 1.2555, -0.2978516, 1.2555, -0.9472656, 1.2555, 0.1455078, 0.0482885, -0.0065461, 1.2555, 0.3295898, 1.2555, -0.9248047, 1.2555, -0.2045898, 0.0482885, -0.0068818, 1.2555, 0.1479492, 1.2555, -0.9873047, 1.2555, 0.0258789, 0.0482885, 0.0193027, 1.2555, -0.2324219, 1.2555, -0.9643555, 1.2555, 0.0927734, , , , , , , , , , , , , , , , , , , , , , 
0.0488077, -0.0041962, 1.269, -0.2919922, 1.269, -0.9511719, 1.269, 0.1386719, 0.0488077, -0.0077211, 1.269, 0.3320312, 1.269, -0.9228516, 1.269, -0.2006836, 0.0488077, -0.0109102, 1.269, 0.137207, 1.269, -0.987793, 1.269, 0.0239258, 0.0488077, 0.0231632, 1.269, -0.2280273, 1.269, -0.9589844, 1.269, 0.0913086, , , , , , , , , , , , , , , , , , , , , , 
0.0493269, -0.005539, 1.2825, -0.2744141, 1.2825, -0.9423828, 1.2825, 0.1401367, 0.0493269, -0.0085603, 1.2825, 0.3349609, 1.2825, -0.9106445, 1.2825, -0.199707, 0.0493269, -0.0102388, 1.2825, 0.1455078, 1.2825, -0.9736328, 1.2825, 0.0141602, 0.0493269, 0.026688, 1.2825, -0.2246094, 1.2825, -0.949707, 1.2825, 0.0859375, , , , , , , , , , , , , , , , , , , , , , 
0.0498462, -0.0025177, 1.296, -0.2607422, 1.296, -0.9350586, 1.296, 0.1347656, 0.0498462, -0.0095674, 1.296, 0.3344727, 1.296, -0.9013672, 1.296, -0.2021484, 0.0498462, -0.005539, 1.296, 0.1572266, 1.296, -0.9575195, 1.296, 0.0043945, 0.0498462, 0.0292058, 1.296, -0.2226562, 1.296, -0.9428711, 1.296, 0.0805664, , , , , , , , , , , , , , , , , , , , , , 
0.0503654, -0.0018463, 1.3095, -0.2602539, 1.3095, -0.9321289, 1.3095, 0.1274414, 0.0503654, -0.0109102, 1.3095, 0.3242188, 1.3095, -0.8959961, 1.3095, -0.1992188, 0.0503654, -0.0028534, 1.3095, 0.1445312, 1.3095, -0.9477539, 1.3095, -0.0004883, 0.0503654, 0.0307164, 1.3095, -0.2124023, 1.3095, -0.9399414, 1.3095, 0.0722656, , , , , , , , , , , , , , , , , , , , , , 
0.0508846, -0.0005035, 1.323, -0.2709961, 1.323, -0.9267578, 1.323, 0.1181641, 0.0508846, -0.0115816, 1.323, 0.3188477, 1.323, -0.8925781, 1.323, -0.1953125, 0.0508846, -0.0041962, 1.323, 0.1303711, 1.323, -0.9472656, 1.323, 0.0048828, 0.0508846, 0.0293736, 1.323, -0.206543, 1.323, -0.9345703, 1.323, 0.0556641, , , , , , , , , , , , , , , , , , , , , , 
0.0514038, 0.0023499, 1.3365, -0.2758789, 1.3365, -0.918457, 1.3365, 0.1074219, 0.0514038, -0.0119173, 1.3365, 0.3168945, 1.3365, -0.8881836, 1.3365, -0.1767578, 0.0514038, -0.0063783, 1.3365, 0.1196289, 1.3365, -0.9477539, 1.3365, 0.0097656, 0.0514038, 0.0271916, 1.3365, -0.206543, 1.3365, -0.9321289, 1.3365, 0.043457, , , , , , , , , , , , , , , , , , , , , , 
0.0519231, 0.0052033, 1.35, -0.2856445, 1.35, -0.9130859, 1.35, 0.1035156, 0.0519231, -0.0099031, 1.35, 0.3193359, 1.35, -0.8803711, 1.35, -0.1665039, 0.0519231, -0.0078889, 1.35, 0.1064453, 1.35, -0.9511719, 1.35, 0.0092773, 0.0519231, 0.0273594, 1.35, -0.2060547, 1.35, -0.9311523, 1.35, 0.0244141, , , , , , , , , , , , , , , , , , , , , , 
0.0524423, 0.0099031, 1.3635, -0.3095703, 1.3635, -0.921875, 1.3635, 0.0952148, 0.0524423, -0.0095674, 1.3635, 0.3227539, 1.3635, -0.8881836, 1.3635, -0.1577148, 0.0524423, -0.0092317, 1.3635, 0.0981445, 1.3635, -0.9550781, 1.3635, 0.0078125, 0.0524423, 0.0251774, 1.3635, -0.2109375, 1.3635, -0.9414062, 1.3635, 0.0092773, , , , , , , , , , , , , , , , , , , , , , 
0.0529615, 0.0125887, 1.377, -0.3242188, 1.377, -0.9287109, 1.377, 0.0908203, 0.0529615, -0.0105745, 1.377, 0.3208008, 1.377, -0.9101562, 1.377, -0.1450195, 0.0529615, -0.0092317, 1.377, 0.0825195, 1.377, -0.9716797, 1.377, 0.012207, 0.0529615, 0.0193027, 1.377, -0.2207031, 1.377, -0.9599609, 1.377, -0.0097656, , , , , , , , , , , , , , , , , , , , , , 
0.0534808, 0.0142672, 1.3905, -0.3442383, 1.3905, -0.940918, 1.3905, 0.0874023, 0.0534808, -0.0099031, 1.3905, 0.3212891, 1.3905, -0.9306641, 1.3905, -0.1337891, 0.0534808, -0.0062104, 1.3905, 0.0566406, 1.3905, -1.003418, 1.3905, 0.0214844, 0.0534808, 0.0169528, 1.3905, -0.234375, 1.3905, -0.9765625, 1.3905, -0.0297852, , , , , , , , , , , , , , , , , , , , , , 
0.054, 0.0176242, 1.404, -0.3564453, 1.404, -0.956543, 1.404, 0.0834961, 0.054, -0.008896, 1.404, 0.3325195, 1.404, -0.940918, 1.404, -0.1264648, 0.054, -0.0058747, 1.404, 0.0454102, 1.404, -1.0205078, 1.404, 0.0234375, 0.054, 0.01561, 1.404, -0.2470703, 1.404, -0.9902344, 1.404, -0.043457, , , , , , , , , , , , , , , , , , , , , , 
0.0545192, 0.0172885, 1.4175, -0.3608398, 1.4175, -0.9707031, 1.4175, 0.0761719, 0.0545192, -0.008896, 1.4175, 0.3476562, 1.4175, -0.9521484, 1.4175, -0.1171875, 0.0545192, -0.0082246, 1.4175, 0.0273438, 1.4175, -1.0307617, 1.4175, 0.0092773, 0.0545192, 0.0166171, 1.4175, -0.2407227, 1.4175, -1.0043945, 1.4175, -0.0546875, , , , , , , , , , , , , , , , , , , , , , 
0.0550385, 0.0176242, 1.431, -0.3652344, 1.431, -0.9799805, 1.431, 0.0668945, 0.0550385, -0.0102388, 1.431, 0.3452148, 1.431, -0.9614258, 1.431, -0.1040039, 0.0550385, -0.0099031, 1.431, 0.0229492, 1.431, -1.0336914, 1.431, -0.0107422, 0.0550385, 0.0164492, 1.431, -0.2246094, 1.431, -1.0087891, 1.431, -0.0654297, , , , , , , , , , , , , , , , , , , , , , 
0.0555577, 0.0218204, 1.4445, -0.3647461, 1.4445, -0.9824219, 1.4445, 0.0600586, 0.0555577, -0.0112459, 1.4445, 0.3422852, 1.4445, -0.9658203, 1.4445, -0.1020508, 0.0555577, -0.0109102, 1.4445, 0.0151367, 1.4445, -1.0415039, 1.4445, -0.0297852, 0.0555577, 0.0146029, 1.4445, -0.206543, 1.4445, -1.0170898, 1.4445, -0.0791016, , , , , , , , , , , , , , , , , , , , , , 
0.0560769, 0.0243381, 1.458, -0.3769531, 1.458, -0.9926758, 1.458, 0.0551758, 0.0560769, -0.0120851, 1.458, 0.3354492, 1.458, -0.9702148, 1.458, -0.0976562, 0.0560769, -0.0117494, 1.458, 0.0161133, 1.458, -1.0493164, 1.458, -0.0458984, 0.0560769, 0.0142672, 1.458, -0.1918945, 1.458, -1.0307617, 1.458, -0.090332, , , , , , , , , , , , , , , , , , , , , , 
0.0565962, 0.0240024, 1.4715, -0.4082031, 1.4715, -1.0102539, 1.4715, 0.043457, 0.0565962, -0.0115816, 1.4715, 0.3369141, 1.4715, -0.9790039, 1.4715, -0.0957031, 0.0565962, -0.012253, 1.4715, 0.0063477, 1.4715, -1.0751953, 1.4715, -0.0571289, 0.0565962, 0.0159457, 1.4715, -0.1821289, 1.4715, -1.0507812, 1.4715, -0.1010742, , , , , , , , , , , , , , , , , , , , , , 
0.0571154, 0.0250095, 1.485, -0.4326172, 1.485, -1.0371094, 1.485, 0.0371094, 0.0571154, -0.0109102, 1.485, 0.3461914, 1.485, -1.0014648, 1.485, -0.0834961, 0.0571154, -0.0115816, 1.485, -0.0146484, 1.485, -1.1074219, 1.485, -0.0693359, 0.0571154, 0.0172885, 1.485, -0.1743164, 1.485, -1.059082, 1.485, -0.1079102, , , , , , , , , , , , , , , , , , , , , , 
0.0576346, 0.0250095, 1.4985, -0.4287109, 1.4985, -1.0595703, 1.4985, 0.0268555, 0.0576346, -0.0095674, 1.4985, 0.3720703, 1.4985, -1.0263672, 1.4985, -0.0649414, 0.0576346, -0.0085603, 1.4985, -0.0180664, 1.4985, -1.1225586, 1.4985, -0.0737305, 0.0576346, 0.0159457, 1.4985, -0.1508789, 1.4985, -1.0732422, 1.4985, -0.1142578, , , , , , , , , , , , , , , , , , , , , , 
0.0581538, 0.0226596, 1.512, -0.390625, 1.512, -1.0751953, 1.512, 0.0219727, 0.0581538, -0.0068818, 1.512, 0.40625, 1.512, -1.0415039, 1.512, -0.046875, 0.0581538, -0.0052033, 1.512, 0.0019531, 1.512, -1.1362305, 1.512, -0.0776367, 0.0581538, 0.0159457, 1.512, -0.1225586, 1.512, -1.0786133, 1.512, -0.1171875, , , , , , , , , , , , , , , , , , , , , , 
0.0586731, 0.0186313, 1.5255, -0.3457031, 1.5255, -1.0771484, 1.5255, 0.0263672, 0.0586731, -0.0065461, 1.5255, 0.4262695, 1.5255, -1.0463867, 1.5255, -0.0449219, 0.0586731, -0.0041962, 1.5255, 0.0444336, 1.5255, -1.1206055, 1.5255, -0.0830078, 0.0586731, 0.0149386, 1.5255, -0.0893555, 1.5255, -1.078125, 1.5255, -0.1083984, , , , , , , , , , , , , , , , , , , , , , 
0.0591923, 0.01561, 1.539, -0.315918, 1.539, -1.0639648, 1.539, 0.0322266, 0.0591923, -0.0075532, 1.539, 0.4155273, 1.539, -1.0356445, 1.539, -0.0566406, 0.0591923, -0.0045319, 1.539, 0.1005859, 1.539, -1.0922852, 1.539, -0.0766602, 0.0591923, 0.0130922, 1.539, -0.0673828, 1.539, -1.0693359, 1.539, -0.0942383, , , , , , , , , , , , , , , , , , , , , , 
0.0597115, 0.0182956, 1.5525, -0.3081055, 1.5525, -1.0546875, 1.5525, 0.0341797, 0.0597115, -0.0082246, 1.5525, 0.3896484, 1.5525, -1.012207, 1.5525, -0.0742188, 0.0597115, -0.0082246, 1.5525, 0.137207, 1.5525, -1.0561523, 1.5525, -0.0683594, 0.0597115, 0.014435, 1.5525, -0.065918, 1.5525, -1.0463867, 1.5525, -0.0805664, , , , , , , , , , , , , , , , , , , , , , 
0.0602308, 0.0219883, 1.566, -0.3071289, 1.566, -1.0292969, 1.566, 0.034668, 0.0602308, -0.0082246, 1.566, 0.3710938, 1.566, -0.9995117, 1.566, -0.0834961, 0.0602308, -0.010071, 1.566, 0.1411133, 1.566, -1.0185547, 1.566, -0.059082, 0.0602308, 0.0172885, 1.566, -0.0986328, 1.566, -1.0151367, 1.566, -0.074707, , , , , , , , , , , , , , , , , , , , , , 
0.06075, 0.0238346, 1.5795, -0.3125, 1.5795, -1.0073242, 1.5795, 0.0395508, 0.06075, -0.0082246, 1.5795, 0.3334961, 1.5795, -0.9750977, 1.5795, -0.1035156, 0.06075, -0.008896, 1.5795, 0.1123047, 1.5795, -1.0004883, 1.5795, -0.0478516, 0.06075, 0.0164492, 1.5795, -0.1225586, 1.5795, -1.0097656, 1.5795, -0.0620117, , , , , , , , , , , , , , , , , , , , , , 
0.0612692, 0.0280308, 1.593, -0.3227539, 1.593, -0.9799805, 1.593, 0.0415039, 0.0612692, -0.0075532, 1.593, 0.3046875, 1.593, -0.956543, 1.593, -0.1074219, 0.0612692, -0.0075532, 1.593, 0.0581055, 1.593, -0.9902344, 1.593, -0.0458984, 0.0612692, 0.0132601, 1.593, -0.1381836, 1.593, -0.9990234, 1.593, -0.0576172, , , , , , , , , , , , , , , , , , , , , , 
0.0617885, 0.0360876, 1.6065, -0.347168, 1.6065, -0.9541016, 1.6065, 0.0410156, 0.0617885, -0.0041962, 1.6065, 0.2939453, 1.6065, -0.9277344, 1.6065, -0.105957, 0.0617885, -0.0082246, 1.6065, 0.0195312, 1.6065, -0.9775391, 1.6065, -0.046875, 0.0617885, 0.0092317, 1.6065, -0.168457, 1.6065, -0.9765625, 1.6065, -0.0551758, , , , , , , , , , , , , , , , , , , , , , 
0.0623077, 0.040116, 1.62, -0.3686523, 1.62, -0.9326172, 1.62, 0.0400391, 0.0623077, -0.0028534, 1.62, 0.2973633, 1.62, -0.9072266, 1.62, -0.0991211, 0.0623077, -0.0099031, 1.62, 0.003418, 1.62, -0.9702148, 1.62, -0.0449219, 0.0623077, 0.0092317, 1.62, -0.1992188, 1.62, -0.956543, 1.62, -0.065918, , , , , , , , , , , , , , , , , , , , , , 
0.0628269, 0.0421302, 1.6335, -0.3710938, 1.6335, -0.9208984, 1.6335, 0.0395508, 0.0628269, -0.0041962, 1.6335, 0.2998047, 1.6335, -0.8989258, 1.6335, -0.0942383, 0.0628269, -0.010071, 1.6335, -0.0175781, 1.6335, -0.9628906, 1.6335, -0.0366211, 0.0628269, 0.0092317, 1.6335, -0.2182617, 1.6335, -0.9482422, 1.6335, -0.0830078, , , , , , , , , , , , , , , , , , , , , , 
0.0633462, 0.0414588, 1.647, -0.3637695, 1.647, -0.9199219, 1.647, 0.0380859, 0.0633462, -0.005539, 1.647, 0.3066406, 1.647, -0.8979492, 1.647, -0.0839844, 0.0633462, -0.0095674, 1.647, -0.0253906, 1.647, -0.9638672, 1.647, -0.0273438, 0.0633462, 0.0072175, 1.647, -0.2236328, 1.647, -0.9482422, 1.647, -0.0908203, , , , , , , , , , , , , , , , , , , , , , 
0.0638654, 0.0397803, 1.6605, -0.3637695, 1.6605, -0.9228516, 1.6605, 0.0375977, 0.0638654, -0.005539, 1.6605, 0.3251953, 1.6605, -0.8955078, 1.6605, -0.0761719, 0.0638654, -0.0102388, 1.6605, -0.0219727, 1.6605, -0.9755859, 1.6605, -0.0170898, 0.0638654, 0.0041962, 1.6605, -0.222168, 1.6605, -0.9526367, 1.6605, -0.0976562, , , , , , , , , , , , , , , , , , , , , , 
0.0643846, 0.0381018, 1.674, -0.3662109, 1.674, -0.9316406, 1.674, 0.0336914, 0.0643846, -0.005539, 1.674, 0.3427734, 1.674, -0.9013672, 1.674, -0.0649414, 0.0643846, -0.0095674, 1.674, -0.0185547, 1.674, -0.9907227, 1.674, -0.012207, 0.0643846, 0.0035248, 1.674, -0.2036133, 1.674, -0.9609375, 1.674, -0.1069336, , , , , , , , , , , , , , , , , , , , , , 
0.0649038, 0.0290379, 1.6875, -0.3647461, 1.6875, -0.9365234, 1.6875, 0.0288086, 0.0649038, -0.0062104, 1.6875, 0.3486328, 1.6875, -0.9072266, 1.6875, -0.0595703, 0.0649038, -0.0075532, 1.6875, -0.0063477, 1.6875, -1.0014648, 1.6875, -0.0209961, 0.0649038, 0.0025177, 1.6875, -0.1860352, 1.6875, -0.9716797, 1.6875, -0.1201172, , , , , , , , , , , , , , , , , , , , , , 
0.0654231, 0.0166171, 1.701, -0.3666992, 1.701, -0.949707, 1.701, 0.0268555, 0.0654231, -0.006714, 1.701, 0.3510742, 1.701, -0.9199219, 1.701, -0.0556641, 0.0654231, -0.0065461, 1.701, 0.012207, 1.701, -1.0112305, 1.701, -0.0219727, 0.0654231, 0.0035248, 1.701, -0.1728516, 1.701, -0.9833984, 1.701, -0.1269531, , , , , , , , , , , , , , , , , , , , , , 
0.0659423, 0.0104067, 1.7145, -0.3730469, 1.7145, -0.9584961, 1.7145, 0.0283203, 0.0659423, -0.0065461, 1.7145, 0.3510742, 1.7145, -0.9326172, 1.7145, -0.0585938, 0.0659423, -0.0072175, 1.7145, 0.0170898, 1.7145, -1.0249023, 1.7145, -0.0263672, 0.0659423, 0.0038605, 1.7145, -0.1630859, 1.7145, -0.9975586, 1.7145, -0.1269531, , , , , , , , , , , , , , , , , , , , , , 
0.0664615, 0.0112459, 1.728, -0.3837891, 1.728, -0.972168, 1.728, 0.0273438, 0.0664615, -0.0072175, 1.728, 0.3505859, 1.728, -0.9458008, 1.728, -0.0566406, 0.0664615, -0.0075532, 1.728, 0.0146484, 1.728, -1.0366211, 1.728, -0.0302734, 0.0664615, 0.0045319, 1.728, -0.1499023, 1.728, -1.0161133, 1.728, -0.1259766, , , , , , , , , , , , , , , , , , , , , , 
0.0669808, 0.0092317, 1.7415, -0.3886719, 1.7415, -0.9819336, 1.7415, 0.0273438, 0.0669808, -0.008896, 1.7415, 0.3442383, 1.7415, -0.9584961, 1.7415, -0.0595703, 0.0669808, -0.0072175, 1.7415, 0.0097656, 1.7415, -1.0458984, 1.7415, -0.0336914, 0.0669808, 0.0065461, 1.7415, -0.1489258, 1.7415, -1.0283203, 1.7415, -0.125, , , , , , , , , , , , , , , , , , , , , , 
0.0675, 0.0058747, 1.755, -0.3842773, 1.755, -0.9887695, 1.755, 0.0244141, 0.0675, -0.0083925, 1.755, 0.3432617, 1.755, -0.9663086, 1.755, -0.0585938, 0.0675, -0.0075532, 1.755, 0.0083008, 1.755, -1.0512695, 1.755, -0.0375977, 0.0675, 0.0102388, 1.755, -0.1557617, 1.755, -1.0322266, 1.755, -0.1210938, , , , , , , , , , , , , , , , , , , , , , 
0.0680192, -0.0015106, 1.7685, -0.3789062, 1.7685, -0.9970703, 1.7685, 0.0234375, 0.0680192, -0.0082246, 1.7685, 0.3515625, 1.7685, -0.9731445, 1.7685, -0.0595703, 0.0680192, -0.0063783, 1.7685, 0.0107422, 1.7685, -1.0527344, 1.7685, -0.0380859, 0.0680192, 0.0149386, 1.7685, -0.1621094, 1.7685, -1.0356445, 1.7685, -0.1137695, , , , , , , , , , , , , , , , , , , , , , 
0.0685385, -0.0077211, 1.782, -0.3701172, 1.782, -1.0039062, 1.782, 0.0244141, 0.0685385, -0.0099031, 1.782, 0.3574219, 1.782, -0.9804688, 1.782, -0.059082, 0.0685385, -0.0045319, 1.782, 0.0151367, 1.782, -1.050293, 1.782, -0.0395508, 0.0685385, 0.0196384, 1.782, -0.1665039, 1.782, -1.0341797, 1.782, -0.1044922, , , , , , , , , , , , , , , , , , , , , , 
0.0690577, -0.008896, 1.7955, -0.3662109, 1.7955, -1.0058594, 1.7955, 0.0253906, 0.0690577, -0.0097353, 1.7955, 0.3530273, 1.7955, -0.9887695, 1.7955, -0.0610352, 0.0690577, -0.0038605, 1.7955, 0.0214844, 1.7955, -1.0498047, 1.7955, -0.0356445, 0.0690577, 0.0223239, 1.7955, -0.1694336, 1.7955, -1.0327148, 1.7955, -0.0981445, , , , , , , , , , , , , , , , , , , , , , 
0.0695769, -0.005539, 1.809, -0.3632812, 1.809, -1.0043945, 1.809, 0.0317383, 0.0695769, -0.0082246, 1.809, 0.3457031, 1.809, -0.9892578, 1.809, -0.0654297, 0.0695769, -0.0048676, 1.809, 0.0292969, 1.809, -1.0473633, 1.809, -0.0366211, 0.0695769, 0.0223239, 1.809, -0.1811523, 1.809, -1.0317383, 1.809, -0.0854492, , , , , , , , , , , , , , , , , , , , , , 
0.0700962, -0.0065461, 1.8225, -0.3662109, 1.8225, -1.0048828, 1.8225, 0.0307617, 0.0700962, -0.0068818, 1.8225, 0.3330078, 1.8225, -0.9838867, 1.8225, -0.0791016, 0.0700962, -0.0041962, 1.8225, 0.0322266, 1.8225, -1.0444336, 1.8225, -0.0366211, 0.0700962, 0.0226596, 1.8225, -0.1928711, 1.8225, -1.0366211, 1.8225, -0.0786133, , , , , , , , , , , , , , , , , , , , , , 
0.0706154, -0.0097353, 1.836, -0.3735352, 1.836, -1.0078125, 1.836, 0.0292969, 0.0706154, -0.0052033, 1.836, 0.328125, 1.836, -0.9853516, 1.836, -0.0830078, 0.0706154, -0.0028534, 1.836, 0.0297852, 1.836, -1.0507812, 1.836, -0.0385742, 0.0706154, 0.023331, 1.836, -0.1958008, 1.836, -1.0410156, 1.836, -0.0761719, , , , , , , , , , , , , , , , , , , , , , 
0.0711346, -0.0095674, 1.8495, -0.3779297, 1.8495, -1.012207, 1.8495, 0.0297852, 0.0711346, -0.0031891, 1.8495, 0.3305664, 1.8495, -0.9916992, 1.8495, -0.0810547, 0.0711346, -0.002182, 1.8495, 0.0214844, 1.8495, -1.0571289, 1.8495, -0.0390625, 0.0711346, 0.0246738, 1.8495, -0.1962891, 1.8495, -1.046875, 1.8495, -0.0756836, , , , , , , , , , , , , , , , , , , , , , 
0.0716538, -0.0048676, 1.863, -0.375, 1.863, -1.0161133, 1.863, 0.027832, 0.0716538, -0.0028534, 1.863, 0.3344727, 1.863, -0.9970703, 1.863, -0.0766602, 0.0716538, -0.0015106, 1.863, 0.0200195, 1.863, -1.0620117, 1.863, -0.0419922, 0.0716538, 0.0240024, 1.863, -0.1855469, 1.863, -1.0458984, 1.863, -0.0786133, , , , , , , , , , , , , , , , , , , , , , 
0.0721731, 0.0025177, 1.8765, -0.3691406, 1.8765, -1.0161133, 1.8765, 0.0302734, 0.0721731, -0.0031891, 1.8765, 0.3330078, 1.8765, -0.9926758, 1.8765, -0.0771484, 0.0721731, -0.0031891, 1.8765, 0.0292969, 1.8765, -1.0571289, 1.8765, -0.0517578, 0.0721731, 0.021149, 1.8765, -0.1708984, 1.8765, -1.0439453, 1.8765, -0.0839844, , , , , , , , , , , , , , , , , , , , , , 
0.0726923, 0.0082246, 1.89, -0.359375, 1.89, -1.012207, 1.89, 0.03125, 0.0726923, -0.0043641, 1.89, 0.3339844, 1.89, -0.9824219, 1.89, -0.0839844, 0.0726923, -0.0072175, 1.89, 0.0322266, 1.89, -1.0551758, 1.89, -0.0595703, 0.0726923, 0.0193027, 1.89, -0.152832, 1.89, -1.0419922, 1.89, -0.0898438, , , , , , , , , , , , , , , , , , , , , , 
0.0732115, 0.0078889, 1.9035, -0.3588867, 1.9035, -1.0131836, 1.9035, 0.0292969, 0.0732115, -0.0062104, 1.9035, 0.3344727, 1.9035, -0.9750977, 1.9035, -0.0864258, 0.0732115, -0.0082246, 1.9035, 0.0356445, 1.9035, -1.0488281, 1.9035, -0.0761719, 0.0732115, 0.0182956, 1.9035, -0.1313477, 1.9035, -1.0517578, 1.9035, -0.0942383, , , , , , , , , , , , , , , , , , , , , , 
0.0737308, 0.0082246, 1.917, -0.3574219, 1.917, -1.0263672, 1.917, 0.0219727, 0.0737308, -0.005539, 1.917, 0.3291016, 1.917, -0.9892578, 1.917, -0.0893555, 0.0737308, -0.0058747, 1.917, 0.0297852, 1.917, -1.0639648, 1.917, -0.0961914, 0.0737308, 0.0125887, 1.917, -0.112793, 1.917, -1.0766602, 1.917, -0.0942383, , , , , , , , , , , , , , , , , , , , , , 
0.07425, 0.0139315, 1.9305, -0.3525391, 1.9305, -1.0478516, 1.9305, 0.0180664, 0.07425, -0.0031891, 1.9305, 0.3261719, 1.9305, -1.0029297, 1.9305, -0.0893555, 0.07425, -0.0052033, 1.9305, 0.0268555, 1.9305, -1.0766602, 1.9305, -0.1166992, 0.07425, 0.0058747, 1.9305, -0.1064453, 1.9305, -1.0947266, 1.9305, -0.0952148, , , , , , , , , , , , , , , , , , , , , , 
0.0747692, 0.018967, 1.944, -0.3530273, 1.944, -1.081543, 1.944, 0.0214844, 0.0747692, -0.0028534, 1.944, 0.3183594, 1.944, -1.0356445, 1.944, -0.0957031, 0.0747692, -0.0068818, 1.944, 0.0283203, 1.944, -1.1083984, 1.944, -0.1220703, 0.0747692, 0.002182, 1.944, -0.1113281, 1.944, -1.1069336, 1.944, -0.1010742, , , , , , , , , , , , , , , , , , , , , , 
0.0752885, 0.017792, 1.9575, -0.3632812, 1.9575, -1.1176758, 1.9575, 0.0180664, 0.0752885, -0.0045319, 1.9575, 0.3251953, 1.9575, -1.0717773, 1.9575, -0.0986328, 0.0752885, -0.0075532, 1.9575, 0.034668, 1.9575, -1.152832, 1.9575, -0.1123047, 0.0752885, -0.0001678, 1.9575, -0.1113281, 1.9575, -1.121582, 1.9575, -0.0917969, , , , , , , , , , , , , , , , , , , , , , 
0.0758077, 0.0130922, 1.971, -0.3647461, 1.971, -1.1513672, 1.971, 0.015625, 0.0758077, -0.0068818, 1.971, 0.3461914, 1.971, -1.1118164, 1.971, -0.0947266, 0.0758077, -0.0095674, 1.971, 0.0444336, 1.971, -1.2041016, 1.971, -0.1108398, 0.0758077, -0.0005035, 1.971, -0.0820312, 1.971, -1.1430664, 1.971, -0.078125, , , , , , , , , , , , , , , , , , , , , , 
0.0763269, 0.0119173, 1.9845, -0.347168, 1.9845, -1.1850586, 1.9845, 0.0209961, 0.0763269, -0.0082246, 1.9845, 0.3564453, 1.9845, -1.1411133, 1.9845, -0.1020508, 0.0763269, -0.0115816, 1.9845, 0.0913086, 1.9845, -1.2363281, 1.9845, -0.1367188, 0.0763269, 0.0010071, 1.9845, -0.0322266, 1.9845, -1.1958008, 1.9845, -0.0527344, , , , , , , , , , , , , , , , , , , , , , 
0.0768462, 0.0166171, 1.998, -0.3139648, 1.998, -1.2260742, 1.998, 0.0253906, 0.0768462, -0.0075532, 1.998, 0.3583984, 1.998, -1.1728516, 1.998, -0.1230469, 0.0768462, -0.0132601, 1.998, 0.1484375, 1.998, -1.2475586, 1.998, -0.1591797, 0.0768462, 0.0005035, 1.998, -0.0102539, 1.998, -1.2329102, 1.998, -0.0117188, , , , , , , , , , , , , , , , , , , , , , 
0.0773654, 0.0186313, 2.0115, -0.2719727, 2.0115, -1.237793, 2.0115, 0.0229492, 0.0773654, -0.0085603, 2.0115, 0.3588867, 2.0115, -1.199707, 2.0115, -0.1298828, 0.0773654, -0.0142672, 2.0115, 0.1723633, 2.0115, -1.2382812, 2.0115, -0.1567383, 0.0773654, -0.0011749, 2.0115, -0.0224609, 2.0115, -1.222168, 2.0115, 0.0058594, , , , , , , , , , , , , , , , , , , , , , 
0.0778846, 0.0166171, 2.025, -0.2177734, 2.025, -1.1962891, 2.025, 0.0185547, 0.0778846, -0.008896, 2.025, 0.3408203, 2.025, -1.1748047, 2.025, -0.1303711, 0.0778846, -0.0125887, 2.025, 0.1972656, 2.025, -1.2006836, 2.025, -0.1411133, 0.0778846, -0.0015106, 2.025, -0.0366211, 2.025, -1.159668, 2.025, 0.0292969, , , , , , , , , , , , , , , , , , , , , , 
0.0784038, 0.0193027, 2.0385, -0.1625977, 2.0385, -1.1181641, 2.0385, 0.0214844, 0.0784038, -0.0082246, 2.0385, 0.2890625, 2.0385, -1.0917969, 2.0385, -0.15625, 0.0784038, -0.0115816, 2.0385, 0.1884766, 2.0385, -1.1191406, 2.0385, -0.140625, 0.0784038, -0.0001678, 2.0385, -0.0258789, 2.0385, -1.0756836, 2.0385, 0.0488281, , , , , , , , , , , , , , , , , , , , , , 
0.0789231, 0.0209812, 2.052, -0.1401367, 2.052, -1.0791016, 2.052, 0.0249023, 0.0789231, -0.0082246, 2.052, 0.2089844, 2.052, -0.9897461, 2.052, -0.2075195, 0.0789231, -0.0129244, 2.052, 0.1865234, 2.052, -1.003418, 2.052, -0.1772461, 0.0789231, 0.0025177, 2.052, -0.012207, 2.052, -0.996582, 2.052, 0.0595703, , , , , , , , , , , , , , , , , , , , , , 
0.0794423, 0.0179599, 2.0655, -0.1137695, 2.0655, -1.0039062, 2.0655, 0.0283203, 0.0794423, -0.0082246, 2.0655, 0.168457, 2.0655, -0.9433594, 2.0655, -0.2319336, 0.0794423, -0.0124208, 2.0655, 0.1845703, 2.0655, -0.9023438, 2.0655, -0.2202148, 0.0794423, 0.0048676, 2.0655, 0.0102539, 2.0655, -0.9301758, 2.0655, 0.0634766, , , , , , , , , , , , , , , , , , , , , , 
0.0799615, 0.0151064, 2.079, -0.1152344, 2.079, -0.9335938, 2.079, 0.0253906, 0.0799615, -0.0090639, 2.079, 0.1049805, 2.079, -0.8618164, 2.079, -0.2675781, 0.0799615, -0.0109102, 2.079, 0.1606445, 2.079, -0.8354492, 2.079, -0.2504883, 0.0799615, 0.0072175, 2.079, 0.0605469, 2.079, -0.8876953, 2.079, 0.0605469, , , , , , , , , , , , , , , , , , , , , , 
0.0804808, 0.0172885, 2.0925, -0.1308594, 2.0925, -0.8867188, 2.0925, 0.0234375, 0.0804808, -0.008896, 2.0925, 0.0737305, 2.0925, -0.8061523, 2.0925, -0.2724609, 0.0804808, -0.0102388, 2.0925, 0.1420898, 2.0925, -0.8105469, 2.0925, -0.2373047, 0.0804808, 0.0099031, 2.0925, 0.0864258, 2.0925, -0.8730469, 2.0925, 0.0585938, , , , , , , , , , , , , , , , , , , , , , 
0.081, 0.0223239, 2.106, -0.1386719, 2.106, -0.8691406, 2.106, 0.0107422, 0.081, -0.0087282, 2.106, 0.081543, 2.106, -0.7939453, 2.106, -0.2558594, 0.081, -0.0095674, 2.106, 0.1533203, 2.106, -0.8100586, 2.106, -0.2109375, 0.081, 0.0095674, 2.106, 0.1162109, 2.106, -0.8525391, 2.106, 0.0561523, , , , , , , , , , , , , , , , , , , , , , 
0.0815192, 0.0273594, 2.1195, -0.1171875, 2.1195, -0.8745117, 2.1195, 0.0092773, 0.0815192, -0.0095674, 2.1195, 0.1113281, 2.1195, -0.8134766, 2.1195, -0.2304688, 0.0815192, -0.0104067, 2.1195, 0.2119141, 2.1195, -0.8164062, 2.1195, -0.1757812, 0.0815192, 0.0078889, 2.1195, 0.1074219, 2.1195, -0.8325195, 2.1195, 0.0620117, , , , , , , , , , , , , , , , , , , , , , 
0.0820385, 0.0293736, 2.133, -0.0854492, 2.133, -0.8818359, 2.133, 0.0200195, 0.0820385, -0.0095674, 2.133, 0.1542969, 2.133, -0.8291016, 2.133, -0.2148438, 0.0820385, -0.0117494, 2.133, 0.2915039, 2.133, -0.8227539, 2.133, -0.1552734, 0.0820385, 0.0072175, 2.133, 0.0825195, 2.133, -0.8344727, 2.133, 0.0800781, , , , , , , , , , , , , , , , , , , , , , 
0.0825577, 0.0280308, 2.1465, -0.0698242, 2.1465, -0.9033203, 2.1465, 0.0395508, 0.0825577, -0.0095674, 2.1465, 0.1972656, 2.1465, -0.8452148, 2.1465, -0.222168, 0.0825577, -0.0109102, 2.1465, 0.3188477, 2.1465, -0.8383789, 2.1465, -0.1494141, 0.0825577, 0.0048676, 2.1465, 0.0512695, 2.1465, -0.8671875, 2.1465, 0.1181641, , , , , , , , , , , , , , , , , , , , , , 
0.0830769, 0.0273594, 2.16, -0.0952148, 2.16, -0.9458008, 2.16, 0.0522461, 0.0830769, -0.0102388, 2.16, 0.2299805, 2.16, -0.8930664, 2.16, -0.2246094, 0.0830769, -0.0102388, 2.16, 0.328125, 2.16, -0.9047852, 2.16, -0.1430664, 0.0830769, 0.0025177, 2.16, 0.0097656, 2.16, -0.9189453, 2.16, 0.1459961, , , , , , , , , , , , , , , , , , , , , , 
0.0835962, 0.0280308, 2.1735, -0.1274414, 2.1735, -1.0014648, 2.1735, 0.0585938, 0.0835962, -0.0119173, 2.1735, 0.2451172, 2.1735, -0.9648438, 2.1735, -0.2177734, 0.0835962, -0.0099031, 2.1735, 0.3061523, 2.1735, -0.9907227, 2.1735, -0.1333008, 0.0835962, 0.0018463, 2.1735, -0.0341797, 2.1735, -0.9711914, 2.1735, 0.1733398, , , , , , , , , , , , , , , , , , , , , , 
0.0841154, 0.0270237, 2.187, -0.1479492, 2.187, -1.0629883, 2.187, 0.0566406, 0.0841154, -0.0135958, 2.187, 0.2485352, 2.187, -0.9985352, 2.187, -0.2163086, 0.0841154, -0.0097353, 2.187, 0.2524414, 2.187, -1.0688477, 2.187, -0.128418, 0.0841154, 0.0015106, 2.187, -0.0703125, 2.187, -1.0146484, 2.187, 0.1958008, , , , , , , , , , , , , , , , , , , , , , 
0.0846346, 0.0238346, 2.2005, -0.1381836, 2.2005, -1.1166992, 2.2005, 0.0581055, 0.0846346, -0.0139315, 2.2005, 0.246582, 2.2005, -1.0566406, 2.2005, -0.2236328, 0.0846346, -0.0109102, 2.2005, 0.2060547, 2.2005, -1.1025391, 2.2005, -0.1508789, 0.0846346, 0.0015106, 2.2005, -0.065918, 2.2005, -1.0615234, 2.2005, 0.2036133, , , , , , , , , , , , , , , , , , , , , , 
0.0851538, 0.017792, 2.214, -0.1308594, 2.214, -1.1303711, 2.214, 0.0625, 0.0851538, -0.0117494, 2.214, 0.2363281, 2.214, -1.0947266, 2.214, -0.2480469, 0.0851538, -0.0132601, 2.214, 0.2114258, 2.214, -1.0942383, 2.214, -0.1831055, 0.0851538, 0.0028534, 2.214, -0.0258789, 2.214, -1.0805664, 2.214, 0.2006836, , , , , , , , , , , , , , , , , , , , , , 
0.0856731, 0.0102388, 2.2275, -0.1088867, 2.2275, -1.1274414, 2.2275, 0.0629883, 0.0856731, -0.0099031, 2.2275, 0.2045898, 2.2275, -1.0888672, 2.2275, -0.2705078, 0.0856731, -0.0142672, 2.2275, 0.2495117, 2.2275, -1.0581055, 2.2275, -0.2026367, 0.0856731, 0.0048676, 2.2275, -0.003418, 2.2275, -1.0522461, 2.2275, 0.206543, , , , , , , , , , , , , , , , , , , , , , 
0.0861923, 0.0018463, 2.241, -0.0737305, 2.241, -1.0854492, 2.241, 0.0615234, 0.0861923, -0.0095674, 2.241, 0.1611328, 2.241, -1.0366211, 2.241, -0.3041992, 0.0861923, -0.012253, 2.241, 0.3071289, 2.241, -0.9931641, 2.241, -0.190918, 0.0861923, 0.0075532, 2.241, 0.0078125, 2.241, -1.0048828, 2.241, 0.2114258, , , , , , , , , , , , , , , , , , , , , , 
0.0867115, -0.0031891, 2.2545, -0.0332031, 2.2545, -1.027832, 2.2545, 0.0698242, 0.0867115, -0.0090639, 2.2545, 0.1157227, 2.2545, -0.9609375, 2.2545, -0.3422852, 0.0867115, -0.0097353, 2.2545, 0.3457031, 2.2545, -0.9199219, 2.2545, -0.1743164, 0.0867115, 0.010071, 2.2545, 0.0146484, 2.2545, -0.980957, 2.2545, 0.2114258, , , , , , , , , , , , , , , , , , , , , , 
0.0872308, -0.0010071, 2.268, -0.0112305, 2.268, -0.9785156, 2.268, 0.0839844, 0.0872308, -0.0095674, 2.268, 0.0942383, 2.268, -0.902832, 2.268, -0.3583984, 0.0872308, -0.0095674, 2.268, 0.3662109, 2.268, -0.8652344, 2.268, -0.1577148, 0.0872308, 0.0117494, 2.268, 0.0292969, 2.268, -0.9399414, 2.268, 0.199707, , , , , , , , , , , , , , , , , , , , , , 
0.08775, -0.0003357, 2.2815, -0.0209961, 2.2815, -0.9379883, 2.2815, 0.0908203, 0.08775, -0.0105745, 2.2815, 0.1186523, 2.2815, -0.8647461, 2.2815, -0.3476562, 0.08775, -0.0095674, 2.2815, 0.3603516, 2.2815, -0.8496094, 2.2815, -0.1474609, 0.08775, 0.012253, 2.2815, 0.0341797, 2.2815, -0.9130859, 2.2815, 0.1884766, , , , , , , , , , , , , , , , , , , , , , 
0.0882692, -0.0031891, 2.295, -0.0556641, 2.295, -0.9121094, 2.295, 0.0991211, 0.0882692, -0.0125887, 2.295, 0.1630859, 2.295, -0.8408203, 2.295, -0.3212891, 0.0882692, -0.0095674, 2.295, 0.3320312, 2.295, -0.8452148, 2.295, -0.1235352, 0.0882692, 0.0146029, 2.295, 0.0161133, 2.295, -0.8920898, 2.295, 0.1806641, , , , , , , , , , , , , , , , , , , , , , 
0.0887885, -0.0038605, 2.3085, -0.0825195, 2.3085, -0.9003906, 2.3085, 0.109375, 0.0887885, -0.0124208, 2.3085, 0.1821289, 2.3085, -0.8344727, 2.3085, -0.3081055, 0.0887885, -0.0085603, 2.3085, 0.2861328, 2.3085, -0.8569336, 2.3085, -0.1015625, 0.0887885, 0.017792, 2.3085, -0.0102539, 2.3085, -0.875, 2.3085, 0.1704102, , , , , , , , , , , , , , , , , , , , , , 
0.0893077, -0.0062104, 2.322, -0.0878906, 2.322, -0.8925781, 2.322, 0.1274414, 0.0893077, -0.0105745, 2.322, 0.2109375, 2.322, -0.8286133, 2.322, -0.2924805, 0.0893077, -0.0102388, 2.322, 0.262207, 2.322, -0.8686523, 2.322, -0.0844727, 0.0893077, 0.0206455, 2.322, -0.0473633, 2.322, -0.8710938, 2.322, 0.1621094, , , , , , , , , , , , , , , , , , , , , , 
0.0898269, -0.0095674, 2.3355, -0.0893555, 2.3355, -0.8964844, 2.3355, 0.1381836, 0.0898269, -0.0075532, 2.3355, 0.2451172, 2.3355, -0.8208008, 2.3355, -0.2929688, 0.0898269, -0.0090639, 2.3355, 0.253418, 2.3355, -0.8813477, 2.3355, -0.0668945, 0.0898269, 0.0229953, 2.3355, -0.0839844, 2.3355, -0.8710938, 2.3355, 0.1625977, , , , , , , , , , , , , , , , , , , , , , 
0.0903462, -0.0085603, 2.349, -0.0917969, 2.349, -0.9047852, 2.349, 0.1469727, 0.0903462, -0.0062104, 2.349, 0.2763672, 2.349, -0.8237305, 2.349, -0.2900391, 0.0903462, -0.0038605, 2.349, 0.2490234, 2.349, -0.8896484, 2.349, -0.0541992, 0.0903462, 0.024506, 2.349, -0.1044922, 2.349, -0.8701172, 2.349, 0.1689453, , , , , , , , , , , , , , , , , , , , , , 
0.0908654, -0.0035248, 2.3625, -0.0981445, 2.3625, -0.9042969, 2.3625, 0.1523438, 0.0908654, -0.0065461, 2.3625, 0.2861328, 2.3625, -0.8300781, 2.3625, -0.2890625, 0.0908654, -0.002182, 2.3625, 0.2495117, 2.3625, -0.8916016, 2.3625, -0.0478516, 0.0908654, 0.0275273, 2.3625, -0.1088867, 2.3625, -0.8740234, 2.3625, 0.1801758, , , , , , , , , , , , , , , , , , , , , , 
0.0913846, -0.0001678, 2.376, -0.1005859, 2.376, -0.9052734, 2.376, 0.1552734, 0.0913846, -0.0058747, 2.376, 0.2695312, 2.376, -0.8300781, 2.376, -0.2978516, 0.0913846, -0.0031891, 2.376, 0.262207, 2.376, -0.8891602, 2.376, -0.0458984, 0.0913846, 0.0280308, 2.376, -0.1049805, 2.376, -0.8798828, 2.376, 0.1899414, , , , , , , , , , , , , , , , , , , , , , 
0.0919038, 0.0041962, 2.3895, -0.0996094, 2.3895, -0.9047852, 2.3895, 0.1567383, 0.0919038, -0.0060426, 2.3895, 0.2592773, 2.3895, -0.8325195, 2.3895, -0.3061523, 0.0919038, -0.005539, 2.3895, 0.2802734, 2.3895, -0.8818359, 2.3895, -0.0488281, 0.0919038, 0.0260166, 2.3895, -0.0981445, 2.3895, -0.8789062, 2.3895, 0.1953125, , , , , , , , , , , , , , , , , , , , , , 
0.0924231, 0.008896, 2.403, -0.1049805, 2.403, -0.9018555, 2.403, 0.1625977, 0.0924231, -0.0072175, 2.403, 0.2573242, 2.403, -0.8330078, 2.403, -0.3139648, 0.0924231, -0.0075532, 2.403, 0.293457, 2.403, -0.8754883, 2.403, -0.0517578, 0.0924231, 0.0238346, 2.403, -0.09375, 2.403, -0.8779297, 2.403, 0.1972656, , , , , , , , , , , , , , , , , , , , , , 
0.0929423, 0.012253, 2.4165, -0.1118164, 2.4165, -0.902832, 2.4165, 0.1699219, 0.0929423, -0.0082246, 2.4165, 0.2583008, 2.4165, -0.8305664, 2.4165, -0.3232422, 0.0929423, -0.0087282, 2.4165, 0.3012695, 2.4165, -0.8706055, 2.4165, -0.0517578, 0.0929423, 0.0218204, 2.4165, -0.0932617, 2.4165, -0.878418, 2.4165, 0.1987305, , , , , , , , , , , , , , , , , , , , , , 
0.0934615, 0.0132601, 2.43, -0.1147461, 2.43, -0.902832, 2.43, 0.1772461, 0.0934615, -0.0082246, 2.43, 0.2597656, 2.43, -0.8300781, 2.43, -0.3266602, 0.0934615, -0.008896, 2.43, 0.2958984, 2.43, -0.8730469, 2.43, -0.0463867, 0.0934615, 0.0199741, 2.43, -0.1000977, 2.43, -0.871582, 2.43, 0.2001953, , , , , , , , , , , , , , , , , , , , , , 
0.0939808, 0.0142672, 2.4435, -0.1142578, 2.4435, -0.9003906, 2.4435, 0.184082, 0.0939808, -0.0075532, 2.4435, 0.2724609, 2.4435, -0.8320312, 2.4435, -0.3227539, 0.0939808, -0.008896, 2.4435, 0.2836914, 2.4435, -0.875, 2.4435, -0.0375977, 0.0939808, 0.0182956, 2.4435, -0.1103516, 2.4435, -0.8691406, 2.4435, 0.2055664, , , , , , , , , , , , , , , , , , , , , , 
0.0945, 0.0186313, 2.457, -0.1171875, 2.457, -0.8901367, 2.457, 0.1899414, 0.0945, -0.0062104, 2.457, 0.2885742, 2.457, -0.8305664, 2.457, -0.309082, 0.0945, -0.0092317, 2.457, 0.2817383, 2.457, -0.8769531, 2.457, -0.0244141, 0.0945, 0.0176242, 2.457, -0.1254883, 2.457, -0.8681641, 2.457, 0.2070312, , , , , , , , , , , , , , , , , , , , , , 
0.0950192, 0.0216526, 2.4705, -0.1323242, 2.4705, -0.8818359, 2.4705, 0.1923828, 0.0950192, -0.005539, 2.4705, 0.3105469, 2.4705, -0.8183594, 2.4705, -0.2998047, 0.0950192, -0.0105745, 2.4705, 0.2875977, 2.4705, -0.878418, 2.4705, -0.0068359, 0.0950192, 0.0172885, 2.4705, -0.140625, 2.4705, -0.8662109, 2.4705, 0.2060547, , , , , , , , , , , , , , , , , , , , , , 
0.0955385, 0.0191348, 2.484, -0.1455078, 2.484, -0.878418, 2.484, 0.1933594, 0.0955385, -0.0048676, 2.484, 0.324707, 2.484, -0.815918, 2.484, -0.2866211, 0.0955385, -0.0097353, 2.484, 0.2900391, 2.484, -0.8769531, 2.484, 0.0083008, 0.0955385, 0.0171206, 2.484, -0.1523438, 2.484, -0.8608398, 2.484, 0.2006836, , , , , , , , , , , , , , , , , , , , , , 
0.0960577, 0.0182956, 2.4975, -0.1572266, 2.4975, -0.8637695, 2.4975, 0.1967773, 0.0960577, -0.0048676, 2.4975, 0.3295898, 2.4975, -0.8085938, 2.4975, -0.2783203, 0.0960577, -0.0082246, 2.4975, 0.2734375, 2.4975, -0.875, 2.4975, 0.015625, 0.0960577, 0.01561, 2.4975, -0.1699219, 2.4975, -0.862793, 2.4975, 0.1953125, , , , , , , , , , , , , , , , , , , , , , 
0.0965769, 0.0226596, 2.511, -0.1811523, 2.511, -0.8540039, 2.511, 0.1977539, 0.0965769, -0.005539, 2.511, 0.3305664, 2.511, -0.7949219, 2.511, -0.2773438, 0.0965769, -0.0075532, 2.511, 0.246582, 2.511, -0.8847656, 2.511, 0.03125, 0.0965769, 0.0146029, 2.511, -0.1879883, 2.511, -0.8608398, 2.511, 0.1884766, , , , , , , , , , , , , , , , , , , , , , 
0.0970962, 0.0246738, 2.5245, -0.199707, 2.5245, -0.8706055, 2.5245, 0.1894531, 0.0970962, -0.0065461, 2.5245, 0.3349609, 2.5245, -0.8041992, 2.5245, -0.2709961, 0.0970962, -0.0082246, 2.5245, 0.2226562, 2.5245, -0.8974609, 2.5245, 0.0341797, 0.0970962, 0.0172885, 2.5245, -0.21875, 2.5245, -0.8618164, 2.5245, 0.1806641, , , , , , , , , , , , , , , , , , , , , , 
0.0976154, 0.0209812, 2.538, -0.2026367, 2.538, -0.8896484, 2.538, 0.1958008, 0.0976154, -0.0068818, 2.538, 0.3295898, 2.538, -0.8310547, 2.538, -0.2729492, 0.0976154, -0.008896, 2.538, 0.2158203, 2.538, -0.9023438, 2.538, 0.0332031, 0.0976154, 0.0193027, 2.538, -0.2241211, 2.538, -0.8876953, 2.538, 0.1728516, , , , , , , , , , , , , , , , , , , , , , 
0.0981346, 0.0182956, 2.5515, -0.2060547, 2.5515, -0.9047852, 2.5515, 0.199707, 0.0981346, -0.0062104, 2.5515, 0.3237305, 2.5515, -0.847168, 2.5515, -0.2739258, 0.0981346, -0.0072175, 2.5515, 0.2197266, 2.5515, -0.9301758, 2.5515, 0.0371094, 0.0981346, 0.0186313, 2.5515, -0.2197266, 2.5515, -0.9057617, 2.5515, 0.1723633, , , , , , , , , , , , , , , , , , , , , , 
0.0986538, 0.0199741, 2.565, -0.2192383, 2.565, -0.9345703, 2.565, 0.1958008, 0.0986538, -0.0072175, 2.565, 0.331543, 2.565, -0.8803711, 2.565, -0.2792969, 0.0986538, -0.0060426, 2.565, 0.2260742, 2.565, -0.9628906, 2.565, 0.0385742, 0.0986538, 0.0166171, 2.565, -0.2119141, 2.565, -0.9316406, 2.565, 0.1723633, , , , , , , , , , , , , , , , , , , , , , 
0.0991731, 0.0226596, 2.5785, -0.2270508, 2.5785, -0.9599609, 2.5785, 0.1972656, 0.0991731, -0.0072175, 2.5785, 0.3461914, 2.5785, -0.909668, 2.5785, -0.2749023, 0.0991731, -0.0062104, 2.5785, 0.2387695, 2.5785, -0.984375, 2.5785, 0.0361328, 0.0991731, 0.0159457, 2.5785, -0.2080078, 2.5785, -0.9550781, 2.5785, 0.1738281, , , , , , , , , , , , , , , , , , , , , , 
0.0996923, 0.0223239, 2.592, -0.2202148, 2.592, -0.9770508, 2.592, 0.1982422, 0.0996923, -0.0062104, 2.592, 0.355957, 2.592, -0.9345703, 2.592, -0.2675781, 0.0996923, -0.0065461, 2.592, 0.2651367, 2.592, -1, 2.592, 0.0385742, 0.0996923, 0.0129244, 2.592, -0.2070312, 2.592, -0.972168, 2.592, 0.1875, , , , , , , , , , , , , , , , , , , , , , 
0.1002115, 0.0206455, 2.6055, -0.2080078, 2.6055, -0.996582, 2.6055, 0.2026367, 0.1002115, -0.0075532, 2.6055, 0.3671875, 2.6055, -0.9521484, 2.6055, -0.2753906, 0.1002115, -0.008896, 2.6055, 0.2866211, 2.6055, -1.0170898, 2.6055, 0.0292969, 0.1002115, 0.0104067, 2.6055, -0.2050781, 2.6055, -0.9936523, 2.6055, 0.2011719, , , , , , , , , , , , , , , , , , , , , , 
0.1007308, 0.0213169, 2.619, -0.2026367, 2.619, -1.0258789, 2.619, 0.2036133, 0.1007308, -0.008896, 2.619, 0.3720703, 2.619, -0.9775391, 2.619, -0.2783203, 0.1007308, -0.0082246, 2.619, 0.2929688, 2.619, -1.0332031, 2.619, 0.015625, 0.1007308, 0.0115816, 2.619, -0.1943359, 2.619, -1.0185547, 2.619, 0.203125, , , , , , , , , , , , , , , , , , , , , , 
0.10125, 0.0223239, 2.6325, -0.2089844, 2.6325, -1.046875, 2.6325, 0.1987305, 0.10125, -0.008896, 2.6325, 0.3735352, 2.6325, -0.9912109, 2.6325, -0.2749023, 0.10125, -0.0070497, 2.6325, 0.2783203, 2.6325, -1.0458984, 2.6325, -0.0097656, 0.10125, 0.0099031, 2.6325, -0.1772461, 2.6325, -1.0361328, 2.6325, 0.1953125, , , , , , , , , , , , , , , , , , , , , , 
0.1017692, 0.0226596, 2.646, -0.2231445, 2.646, -1.0620117, 2.646, 0.1801758, 0.1017692, -0.008896, 2.646, 0.3623047, 2.646, -1.0029297, 2.646, -0.2753906, 0.1017692, -0.0058747, 2.646, 0.2485352, 2.646, -1.0639648, 2.646, -0.0415039, 0.1017692, 0.0075532, 2.646, -0.1430664, 2.646, -1.0371094, 2.646, 0.1762695, , , , , , , , , , , , , , , , , , , , , , 
0.1022885, 0.0260166, 2.6595, -0.2270508, 2.6595, -1.074707, 2.6595, 0.171875, 0.1022885, -0.0095674, 2.6595, 0.3510742, 2.6595, -1.0146484, 2.6595, -0.2768555, 0.1022885, -0.0048676, 2.6595, 0.2314453, 2.6595, -1.0786133, 2.6595, -0.0576172, 0.1022885, 0.0075532, 2.6595, -0.1142578, 2.6595, -1.043457, 2.6595, 0.1665039, , , , , , , , , , , , , , , , , , , , , , 
0.1028077, 0.0253452, 2.673, -0.2089844, 2.673, -1.0898438, 2.673, 0.1674805, 0.1028077, -0.008896, 2.673, 0.34375, 2.673, -1.0234375, 2.673, -0.2797852, 0.1028077, -0.005539, 2.673, 0.2353516, 2.673, -1.0864258, 2.673, -0.0610352, 0.1028077, 0.0078889, 2.673, -0.1074219, 2.673, -1.0688477, 2.673, 0.1660156, , , , , , , , , , , , , , , , , , , , , , 
0.1033269, 0.0243381, 2.6865, -0.1972656, 2.6865, -1.1274414, 2.6865, 0.1704102, 0.1033269, -0.008896, 2.6865, 0.3388672, 2.6865, -1.0493164, 2.6865, -0.2915039, 0.1033269, -0.0068818, 2.6865, 0.2636719, 2.6865, -1.1054688, 2.6865, -0.0610352, 0.1033269, 0.0065461, 2.6865, -0.1181641, 2.6865, -1.1123047, 2.6865, 0.1630859, , , , , , , , , , , , , , , , , , , , , , 
0.1038462, 0.0246738, 2.7, -0.2148438, 2.7, -1.1791992, 2.7, 0.1660156, 0.1038462, -0.0078889, 2.7, 0.3500977, 2.7, -1.09375, 2.7, -0.2944336, 0.1038462, -0.008896, 2.7, 0.2988281, 2.7, -1.1464844, 2.7, -0.0522461, 0.1038462, 0.0058747, 2.7, -0.1269531, 2.7, -1.1411133, 2.7, 0.159668, , , , , , , , , , , , , , , , , , , , , , 
0.1043654, 0.023331, 2.7135, -0.2421875, 2.7135, -1.2226562, 2.7135, 0.1586914, 0.1043654, -0.0058747, 2.7135, 0.3710938, 2.7135, -1.1474609, 2.7135, -0.2758789, 0.1043654, -0.0095674, 2.7135, 0.3051758, 2.7135, -1.1958008, 2.7135, -0.0361328, 0.1043654, 0.0075532, 2.7135, -0.1308594, 2.7135, -1.1845703, 2.7135, 0.1455078, , , , , , , , , , , , , , , , , , , , , , 
0.1048846, 0.0229953, 2.727, -0.2558594, 2.727, -1.2407227, 2.727, 0.159668, 0.1048846, -0.0041962, 2.727, 0.3916016, 2.727, -1.1938477, 2.727, -0.2617188, 0.1048846, -0.0095674, 2.727, 0.2817383, 2.727, -1.2539062, 2.727, -0.0449219, 0.1048846, 0.0105745, 2.727, -0.1401367, 2.727, -1.2387695, 2.727, 0.1245117, , , , , , , , , , , , , , , , , , , , , , 
0.1054038, 0.0216526, 2.7405, -0.2958984, 2.7405, -1.2973633, 2.7405, 0.1704102, 0.1054038, -0.005539, 2.7405, 0.4125977, 2.7405, -1.253418, 2.7405, -0.2641602, 0.1054038, -0.0102388, 2.7405, 0.2475586, 2.7405, -1.34375, 2.7405, -0.0649414, 0.1054038, 0.0112459, 2.7405, -0.1445312, 2.7405, -1.3149414, 2.7405, 0.1044922, , , , , , , , , , , , , , , , , , , , , , 
0.1059231, 0.01561, 2.754, -0.3554688, 2.754, -1.3598633, 2.754, 0.1660156, 0.1059231, -0.0078889, 2.754, 0.4394531, 2.754, -1.3139648, 2.754, -0.2387695, 0.1059231, -0.0117494, 2.754, 0.2041016, 2.754, -1.3969727, 2.754, -0.0673828, 0.1059231, 0.0109102, 2.754, -0.1132812, 2.754, -1.3564453, 2.754, 0.0854492, , , , , , , , , , , , , , , , , , , , , , 
0.1064423, 0.0109102, 2.7675, -0.359375, 2.7675, -1.3491211, 2.7675, 0.1479492, 0.1064423, -0.0078889, 2.7675, 0.4453125, 2.7675, -1.296875, 2.7675, -0.2094727, 0.1064423, -0.0117494, 2.7675, 0.1655273, 2.7675, -1.3378906, 2.7675, -0.081543, 0.1064423, 0.0117494, 2.7675, -0.0878906, 2.7675, -1.2954102, 2.7675, 0.0522461, , , , , , , , , , , , , , , , , , , , , , 
0.1069615, 0.0092317, 2.781, -0.2675781, 2.781, -1.2402344, 2.781, 0.1479492, 0.1069615, -0.0082246, 2.781, 0.3955078, 2.781, -1.1547852, 2.781, -0.2299805, 0.1069615, -0.0104067, 2.781, 0.1357422, 2.781, -1.1694336, 2.781, -0.1245117, 0.1069615, 0.0119173, 2.781, -0.0864258, 2.781, -1.1679688, 2.781, 0.0639648, , , , , , , , , , , , , , , , , , , , , , 
0.1074808, 0.008896, 2.7945, -0.1508789, 2.7945, -1.0869141, 2.7945, 0.1430664, 0.1074808, -0.0092317, 2.7945, 0.355957, 2.7945, -1.0610352, 2.7945, -0.2573242, 0.1074808, -0.0105745, 2.7945, 0.1376953, 2.7945, -0.9667969, 2.7945, -0.1577148, 0.1074808, 0.0114137, 2.7945, -0.121582, 2.7945, -1.0117188, 2.7945, 0.0708008, , , , , , , , , , , , , , , , , , , , , , 
0.108, 0.0065461, 2.808, -0.0932617, 2.808, -0.9384766, 2.808, 0.1303711, 0.108, -0.008896, 2.808, 0.2509766, 2.808, -0.8837891, 2.808, -0.3188477, 0.108, -0.0090639, 2.808, 0.1391602, 2.808, -0.8857422, 2.808, -0.1645508, 0.108, 0.0115816, 2.808, -0.1391602, 2.808, -0.9008789, 2.808, 0.0869141, , , , , , , , , , , , , , , , , , , , , , 
0.1085192, 0.002182, 2.8215, -0.1459961, 2.8215, -0.8525391, 2.8215, 0.1220703, 0.1085192, -0.0102388, 2.8215, 0.140625, 2.8215, -0.7592773, 2.8215, -0.3583984, 0.1085192, -0.0068818, 2.8215, 0.125, 2.8215, -0.784668, 2.8215, -0.1743164, 0.1085192, 0.0125887, 2.8215, -0.1430664, 2.8215, -0.8666992, 2.8215, 0.1020508, , , , , , , , , , , , , , , , , , , , , , 
0.1090385, 0.0005035, 2.835, -0.277832, 2.835, -0.8574219, 2.835, 0.1103516, 0.1090385, -0.0092317, 2.835, 0.0664062, 2.835, -0.753418, 2.835, -0.3540039, 0.1090385, -0.0068818, 2.835, 0.0874023, 2.835, -0.8061523, 2.835, -0.15625, 0.1090385, 0.0137636, 2.835, -0.1479492, 2.835, -0.8930664, 2.835, 0.0830078, , , , , , , , , , , , , , , , , , , , , , 
0.1095577, -0.0041962, 2.8485, -0.3911133, 2.8485, -0.9042969, 2.8485, 0.0830078, 0.1095577, -0.0048676, 2.8485, 0.0727539, 2.8485, -0.8320312, 2.8485, -0.2792969, 0.1095577, -0.0065461, 2.8485, 0.0375977, 2.8485, -0.9165039, 2.8485, -0.1166992, 0.1095577, 0.0146029, 2.8485, -0.1391602, 2.8485, -0.9472656, 2.8485, 0.0546875, , , , , , , , , , , , , , , , , , , , , , 
0.1100769, -0.0095674, 2.862, -0.4189453, 2.862, -0.9682617, 2.862, 0.0664062, 0.1100769, -0.0028534, 2.862, 0.1601562, 2.862, -0.9116211, 2.862, -0.1899414, 0.1100769, -0.0058747, 2.862, 0.0146484, 2.862, -1.0302734, 2.862, -0.1030273, 0.1100769, 0.0172885, 2.862, -0.1303711, 2.862, -0.9780273, 2.862, 0.0439453, , , , , , , , , , , , , , , , , , , , , , 
0.1105962, -0.0115816, 2.8755, -0.3876953, 2.8755, -1.0493164, 2.8755, 0.078125, 0.1105962, -0.0045319, 2.8755, 0.2963867, 2.8755, -0.9765625, 2.8755, -0.1489258, 0.1105962, -0.0035248, 2.8755, 0.0585938, 2.8755, -1.1166992, 2.8755, -0.1376953, 0.1105962, 0.0193027, 2.8755, -0.0966797, 2.8755, -1.0405273, 2.8755, 0.019043, , , , , , , , , , , , , , , , , , , , , , 
0.1111154, -0.0152743, 2.889, -0.3671875, 2.889, -1.1010742, 2.889, 0.0849609, 0.1111154, -0.0062104, 2.889, 0.4243164, 2.889, -1.0683594, 2.889, -0.1303711, 0.1111154, -0.002182, 2.889, 0.1508789, 2.889, -1.203125, 2.889, -0.1567383, 0.1111154, 0.0236667, 2.889, -0.0400391, 2.889, -1.1254883, 2.889, 0.0053711, , , , , , , , , , , , , , , , , , , , , , 
0.1116346, -0.0117494, 2.9025, -0.3017578, 2.9025, -1.2036133, 2.9025, 0.0776367, 0.1116346, -0.0072175, 2.9025, 0.5112305, 2.9025, -1.1591797, 2.9025, -0.1171875, 0.1116346, -0.002182, 2.9025, 0.2109375, 2.9025, -1.2475586, 2.9025, -0.1611328, 0.1116346, 0.0270237, 2.9025, 0.0322266, 2.9025, -1.1679688, 2.9025, 0.0073242, , , , , , , , , , , , , , , , , , , , , , 
0.1121538, -0.0015106, 2.916, -0.1660156, 2.916, -1.2529297, 2.916, 0.0639648, 0.1121538, -0.0065461, 2.916, 0.5029297, 2.916, -1.1865234, 2.916, -0.1342773, 0.1121538, -0.0035248, 2.916, 0.2475586, 2.916, -1.1992188, 2.916, -0.1738281, 0.1121538, 0.0250095, 2.916, 0.0913086, 2.916, -1.1513672, 2.916, 0.0092773, , , , , , , , , , , , , , , , , , , , , , 
0.1126731, 0.0023499, 2.9295, -0.0307617, 2.9295, -1.2207031, 2.9295, 0.0820312, 0.1126731, -0.0065461, 2.9295, 0.456543, 2.9295, -1.1704102, 2.9295, -0.1572266, 0.1126731, -0.0038605, 2.9295, 0.3051758, 2.9295, -1.0986328, 2.9295, -0.1723633, 0.1126731, 0.0203098, 2.9295, 0.1171875, 2.9295, -1.1157227, 2.9295, 0.0390625, , , , , , , , , , , , , , , , , , , , , , 
0.1131923, 0.0023499, 2.943, -0.0063477, 2.943, -1.1293945, 2.943, 0.0839844, 0.1131923, -0.0068818, 2.943, 0.3261719, 2.943, -1.0805664, 2.943, -0.2280273, 0.1131923, -0.0041962, 2.943, 0.3334961, 2.943, -1.043457, 2.943, -0.1679688, 0.1131923, 0.0151064, 2.943, 0.0771484, 2.943, -1.0566406, 2.943, 0.0864258, , , , , , , , , , , , , , , , , , , , , , 
0.1137115, 0.0052033, 2.9565, -0.0654297, 2.9565, -1.0327148, 2.9565, 0.0805664, 0.1137115, -0.0075532, 2.9565, 0.203125, 2.9565, -0.9780273, 2.9565, -0.3110352, 0.1137115, -0.0068818, 2.9565, 0.3388672, 2.9565, -0.9423828, 2.9565, -0.1479492, 0.1137115, 0.0132601, 2.9565, 0.0024414, 2.9565, -0.9746094, 2.9565, 0.1118164, , , , , , , , , , , , , , , , , , , , , , 
0.1142308, 0.0102388, 2.97, -0.1274414, 2.97, -0.9516602, 2.97, 0.0742188, 0.1142308, -0.0072175, 2.97, 0.1171875, 2.97, -0.8852539, 2.97, -0.328125, 0.1142308, -0.0082246, 2.97, 0.2753906, 2.97, -0.8691406, 2.97, -0.1445312, 0.1142308, 0.0115816, 2.97, -0.0454102, 2.97, -0.8964844, 2.97, 0.1186523, , , , , , , , , , , , , , , , , , , , , , 
0.11475, 0.0132601, 2.9835, -0.1674805, 2.9835, -0.8852539, 2.9835, 0.0698242, 0.11475, -0.0087282, 2.9835, 0.0986328, 2.9835, -0.8115234, 2.9835, -0.2944336, 0.11475, -0.0072175, 2.9835, 0.1708984, 2.9835, -0.8242188, 2.9835, -0.140625, 0.11475, 0.0078889, 2.9835, -0.0649414, 2.9835, -0.8422852, 2.9835, 0.1088867, , , , , , , , , , , , , , , , , , , , , , 
0.1152692, 0.0169528, 2.997, -0.1655273, 2.997, -0.8481445, 2.997, 0.0712891, 0.1152692, -0.0099031, 2.997, 0.1547852, 2.997, -0.7763672, 2.997, -0.2426758, 0.1152692, -0.0068818, 2.997, 0.1098633, 2.997, -0.8056641, 2.997, -0.1298828, 0.1152692, 0.0065461, 2.997, -0.081543, 2.997, -0.8242188, 2.997, 0.0756836, , , , , , , , , , , , , , , , , , , , , , 
0.1157885, 0.0209812, 3.0105, -0.140625, 3.0105, -0.84375, 3.0105, 0.0678711, 0.1157885, -0.0104067, 3.0105, 0.2485352, 3.0105, -0.7700195, 3.0105, -0.1899414, 0.1157885, -0.0082246, 3.0105, 0.0888672, 3.0105, -0.8046875, 3.0105, -0.1083984, 0.1157885, 0.0057069, 3.0105, -0.0839844, 3.0105, -0.8271484, 3.0105, 0.0517578, , , , , , , , , , , , , , , , , , , , , , 
0.1163077, 0.0171206, 3.024, -0.1308594, 3.024, -0.8618164, 3.024, 0.0678711, 0.1163077, -0.0102388, 3.024, 0.3237305, 3.024, -0.7861328, 3.024, -0.1601562, 0.1163077, -0.0077211, 3.024, 0.1000977, 3.024, -0.8139648, 3.024, -0.0703125, 0.1163077, 0.0048676, 3.024, -0.078125, 3.024, -0.8388672, 3.024, 0.0058594, , , , , , , , , , , , , , , , , , , , , , 
0.1168269, 0.012253, 3.0375, -0.1572266, 3.0375, -0.8779297, 3.0375, 0.0732422, 0.1168269, -0.0090639, 3.0375, 0.3427734, 3.0375, -0.8037109, 3.0375, -0.1582031, 0.1168269, -0.0058747, 3.0375, 0.1103516, 3.0375, -0.8378906, 3.0375, -0.0371094, 0.1168269, 0.0048676, 3.0375, -0.0698242, 3.0375, -0.8476562, 3.0375, -0.0307617, , , , , , , , , , , , , , , , , , , , , , 
0.1173462, 0.0102388, 3.051, -0.1689453, 3.051, -0.8793945, 3.051, 0.0751953, 0.1173462, -0.0090639, 3.051, 0.3305664, 3.051, -0.8164062, 3.051, -0.1586914, 0.1173462, -0.0046998, 3.051, 0.1254883, 3.051, -0.8706055, 3.051, -0.0102539, 0.1173462, 0.0048676, 3.051, -0.0913086, 3.051, -0.8637695, 3.051, -0.0419922, , , , , , , , , , , , , , , , , , , , , , 
0.1178654, 0.0102388, 3.0645, -0.203125, 3.0645, -0.8798828, 3.0645, 0.0854492, 0.1178654, -0.0095674, 3.0645, 0.3037109, 3.0645, -0.8369141, 3.0645, -0.1723633, 0.1178654, -0.0068818, 3.0645, 0.1274414, 3.0645, -0.8911133, 3.0645, 0.0004883, 0.1178654, 0.0035248, 3.0645, -0.1323242, 3.0645, -0.8886719, 3.0645, -0.0327148, , , , , , , , , , , , , , , , , , , , , , 
0.1183846, 0.012253, 3.078, -0.2446289, 3.078, -0.8813477, 3.078, 0.1015625, 0.1183846, -0.0082246, 3.078, 0.2949219, 3.078, -0.8422852, 3.078, -0.1855469, 0.1183846, -0.0078889, 3.078, 0.1279297, 3.078, -0.9213867, 3.078, 0.0244141, 0.1183846, 0.0030213, 3.078, -0.1801758, 3.078, -0.9018555, 3.078, -0.0136719, , , , , , , , , , , , , , , , , , , , , , 
0.1189038, 0.0159457, 3.0915, -0.2729492, 3.0915, -0.8754883, 3.0915, 0.1132812, 0.1189038, -0.0072175, 3.0915, 0.2939453, 3.0915, -0.8378906, 3.0915, -0.1904297, 0.1189038, -0.0065461, 3.0915, 0.1162109, 3.0915, -0.9272461, 3.0915, 0.0551758, 0.1189038, 0.0048676, 3.0915, -0.237793, 3.0915, -0.8984375, 3.0915, 0.019043, , , , , , , , , , , , , , , , , , , , , , 
0.1194231, 0.0213169, 3.105, -0.2832031, 3.105, -0.8540039, 3.105, 0.1240234, 0.1194231, -0.0072175, 3.105, 0.2929688, 3.105, -0.8330078, 3.105, -0.1875, 0.1194231, -0.0041962, 3.105, 0.1005859, 3.105, -0.9165039, 3.105, 0.0625, 0.1194231, 0.0052033, 3.105, -0.2685547, 3.105, -0.890625, 3.105, 0.0449219, , , , , , , , , , , , , , , , , , , , , , 
0.1199423, 0.023331, 3.1185, -0.2944336, 3.1185, -0.8354492, 3.1185, 0.1347656, 0.1199423, -0.0078889, 3.1185, 0.2905273, 3.1185, -0.8183594, 3.1185, -0.1826172, 0.1199423, -0.0041962, 3.1185, 0.097168, 3.1185, -0.9038086, 3.1185, 0.0571289, 0.1199423, 0.0063783, 3.1185, -0.2851562, 3.1185, -0.8881836, 3.1185, 0.0683594, , , , , , , , , , , , , , , , , , , , , , 
0.1204615, 0.0213169, 3.132, -0.3051758, 3.132, -0.8217773, 3.132, 0.1416016, 0.1204615, -0.0072175, 3.132, 0.3022461, 3.132, -0.8037109, 3.132, -0.1801758, 0.1204615, -0.0058747, 3.132, 0.0996094, 3.132, -0.8989258, 3.132, 0.0576172, 0.1204615, 0.0090639, 3.132, -0.2958984, 3.132, -0.8842773, 3.132, 0.0805664, , , , , , , , , , , , , , , , , , , , , , 
0.1209808, 0.0213169, 3.1455, -0.3139648, 3.1455, -0.8183594, 3.1455, 0.1416016, 0.1209808, -0.0068818, 3.1455, 0.3164062, 3.1455, -0.7958984, 3.1455, -0.1762695, 0.1209808, -0.0075532, 3.1455, 0.1074219, 3.1455, -0.8959961, 3.1455, 0.0629883, 0.1209808, 0.0085603, 3.1455, -0.3022461, 3.1455, -0.8818359, 3.1455, 0.0869141, , , , , , , , , , , , , , , , , , , , , , 
0.1215, 0.0223239, 3.159, -0.3105469, 3.159, -0.8286133, 3.159, 0.1347656, 0.1215, -0.0065461, 3.159, 0.3261719, 3.159, -0.8041992, 3.159, -0.1723633, 0.1215, -0.0065461, 3.159, 0.1064453, 3.159, -0.9003906, 3.159, 0.0678711, 0.1215, 0.005539, 3.159, -0.3022461, 3.159, -0.8833008, 3.159, 0.0844727, , , , , , , , , , , , , , , , , , , , , , 
0.1220192, 0.0260166, 3.1725, -0.2905273, 3.1725, -0.8398438, 3.1725, 0.1298828, 0.1220192, -0.0062104, 3.1725, 0.3291016, 3.1725, -0.8095703, 3.1725, -0.1689453, 0.1220192, -0.0075532, 3.1725, 0.0986328, 3.1725, -0.9047852, 3.1725, 0.0654297, 0.1220192, 0.0025177, 3.1725, -0.296875, 3.1725, -0.8916016, 3.1725, 0.0791016, , , , , , , , , , , , , , , , , , , , , , 
0.1225385, 0.0307164, 3.186, -0.28125, 3.186, -0.8505859, 3.186, 0.1289062, 0.1225385, -0.0065461, 3.186, 0.331543, 3.186, -0.824707, 3.186, -0.1621094, 0.1225385, -0.0092317, 3.186, 0.1064453, 3.186, -0.9052734, 3.186, 0.0727539, 0.1225385, 0.0025177, 3.186, -0.2807617, 3.186, -0.8969727, 3.186, 0.065918, , , , , , , , , , , , , , , , , , , , , , 
0.1230577, 0.0307164, 3.1995, -0.2851562, 3.1995, -0.8544922, 3.1995, 0.1220703, 0.1230577, -0.0052033, 3.1995, 0.3330078, 3.1995, -0.8320312, 3.1995, -0.1533203, 0.1230577, -0.0109102, 3.1995, 0.1171875, 3.1995, -0.9091797, 3.1995, 0.078125, 0.1230577, 0.0035248, 3.1995, -0.2661133, 3.1995, -0.9038086, 3.1995, 0.0478516, , , , , , , , , , , , , , , , , , , , , , 
0.1235769, 0.0287022, 3.213, -0.2983398, 3.213, -0.8710938, 3.213, 0.121582, 0.1235769, -0.0035248, 3.213, 0.3432617, 3.213, -0.8378906, 3.213, -0.1508789, 0.1235769, -0.0124208, 3.213, 0.1381836, 3.213, -0.9179688, 3.213, 0.0776367, 0.1235769, 0.0025177, 3.213, -0.2548828, 3.213, -0.918457, 3.213, 0.0375977, , , , , , , , , , , , , , , , , , , , , , 
0.1240962, 0.0283665, 3.2265, -0.3022461, 3.2265, -0.8867188, 3.2265, 0.1201172, 0.1240962, -0.0045319, 3.2265, 0.3486328, 3.2265, -0.8623047, 3.2265, -0.1523438, 0.1240962, -0.0115816, 3.2265, 0.1533203, 3.2265, -0.9404297, 3.2265, 0.0708008, 0.1240962, 0.002182, 3.2265, -0.2451172, 3.2265, -0.9516602, 3.2265, 0.0371094, , , , , , , , , , , , , , , , , , , , , , 
0.1246154, 0.0290379, 3.24, -0.315918, 3.24, -0.9204102, 3.24, 0.1259766, 0.1246154, -0.0068818, 3.24, 0.3525391, 3.24, -0.9057617, 3.24, -0.1577148, 0.1246154, -0.0099031, 3.24, 0.1611328, 3.24, -0.9799805, 3.24, 0.0532227, 0.1246154, 0.0038605, 3.24, -0.2329102, 3.24, -0.9892578, 3.24, 0.0371094, , , , , , , , , , , , , , , , , , , , , , 
0.1251346, 0.0260166, 3.2535, -0.3344727, 3.2535, -0.9609375, 3.2535, 0.1347656, 0.1251346, -0.0072175, 3.2535, 0.3632812, 3.2535, -0.9462891, 3.2535, -0.15625, 0.1251346, -0.0082246, 3.2535, 0.159668, 3.2535, -1.0351562, 3.2535, 0.0419922, 0.1251346, 0.0058747, 3.2535, -0.222168, 3.2535, -1.0224609, 3.2535, 0.0390625, , , , , , , , , , , , , , , , , , , , , , 
0.1256538, 0.0193027, 3.267, -0.3505859, 3.267, -1, 3.267, 0.1323242, 0.1256538, -0.0073854, 3.267, 0.3911133, 3.267, -0.9873047, 3.267, -0.1503906, 0.1256538, -0.0072175, 3.267, 0.1538086, 3.267, -1.0888672, 3.267, 0.0322266, 0.1256538, 0.0065461, 3.267, -0.203125, 3.267, -1.0600586, 3.267, 0.0478516, , , , , , , , , , , , , , , , , , , , , , 
0.1261731, 0.0162814, 3.2805, -0.3447266, 3.2805, -1.0473633, 3.2805, 0.1269531, 0.1261731, -0.0075532, 3.2805, 0.4174805, 3.2805, -1.0292969, 3.2805, -0.1479492, 0.1261731, -0.0082246, 3.2805, 0.1625977, 3.2805, -1.1308594, 3.2805, 0.0195312, 0.1261731, 0.0065461, 3.2805, -0.1767578, 3.2805, -1.0947266, 3.2805, 0.0620117, , , , , , , , , , , , , , , , , , , , , , 
0.1266923, 0.01561, 3.294, -0.3168945, 3.294, -1.0825195, 3.294, 0.1293945, 0.1266923, -0.0085603, 3.294, 0.4262695, 3.294, -1.0488281, 3.294, -0.1489258, 0.1266923, -0.0082246, 3.294, 0.2055664, 3.294, -1.1391602, 3.294, 0.0151367, 0.1266923, 0.0072175, 3.294, -0.1655273, 3.294, -1.121582, 3.294, 0.0629883, , , , , , , , , , , , , , , , , , , , , , 
0.1272115, 0.0130922, 3.3075, -0.2924805, 3.3075, -1.1000977, 3.3075, 0.1401367, 0.1272115, -0.0078889, 3.3075, 0.4267578, 3.3075, -1.0810547, 3.3075, -0.1606445, 0.1272115, -0.006714, 3.3075, 0.2426758, 3.3075, -1.128418, 3.3075, 0.0253906, 0.1272115, 0.0092317, 3.3075, -0.1704102, 3.3075, -1.1269531, 3.3075, 0.0703125, , , , , , , , , , , , , , , , , , , , , , 
0.1277308, 0.008896, 3.321, -0.265625, 3.321, -1.1000977, 3.321, 0.1416016, 0.1277308, -0.0062104, 3.321, 0.4082031, 3.321, -1.0922852, 3.321, -0.1884766, 0.1277308, -0.0057069, 3.321, 0.2412109, 3.321, -1.0913086, 3.321, 0.0463867, 0.1277308, 0.0119173, 3.321, -0.2148438, 3.321, -1.121582, 3.321, 0.0952148, , , , , , , , , , , , , , , , , , , , , , 
0.12825, 0.0023499, 3.3345, -0.2416992, 3.3345, -1.0913086, 3.3345, 0.15625, 0.12825, -0.005539, 3.3345, 0.3681641, 3.3345, -1.0776367, 3.3345, -0.2260742, 0.12825, -0.0075532, 3.3345, 0.230957, 3.3345, -1.0786133, 3.3345, 0.0541992, 0.12825, 0.0152743, 3.3345, -0.2827148, 3.3345, -1.1293945, 3.3345, 0.1137695, , , , , , , , , , , , , , , , , , , , , , 
0.1287692, -0.0036927, 3.348, -0.2636719, 3.348, -1.0927734, 3.348, 0.1728516, 0.1287692, -0.0052033, 3.348, 0.3212891, 3.348, -1.0585938, 3.348, -0.2583008, 0.1287692, -0.0099031, 3.348, 0.2133789, 3.348, -1.0786133, 3.348, 0.0556641, 0.1287692, 0.0176242, 3.348, -0.3325195, 3.348, -1.1425781, 3.348, 0.1333008, , , , , , , , , , , , , , , , , , , , , , 
0.1292885, -0.0041962, 3.3615, -0.3349609, 3.3615, -1.1108398, 3.3615, 0.1591797, 0.1292885, -0.0048676, 3.3615, 0.3115234, 3.3615, -1.0625, 3.3615, -0.2617188, 0.1292885, -0.0102388, 3.3615, 0.1679688, 3.3615, -1.1108398, 3.3615, 0.0224609, 0.1292885, 0.0206455, 3.3615, -0.355957, 3.3615, -1.1357422, 3.3615, 0.1206055, , , , , , , , , , , , , , , , , , , , , , 
0.1298077, -0.0028534, 3.375, -0.4013672, 3.375, -1.140625, 3.375, 0.140625, 0.1298077, -0.0045319, 3.375, 0.3334961, 3.375, -1.0874023, 3.375, -0.2338867, 0.1298077, -0.008896, 3.375, 0.0991211, 3.375, -1.1796875, 3.375, -0.0263672, 0.1298077, 0.0236667, 3.375, -0.3144531, 3.375, -1.140625, 3.375, 0.0952148, , , , , , , , , , , , , , , , , , , , , , 
0.1303269, -0.0005035, 3.3885, -0.418457, 3.3885, -1.1591797, 3.3885, 0.1328125, 0.1303269, -0.0072175, 3.3885, 0.375, 3.3885, -1.1347656, 3.3885, -0.1918945, 0.1303269, -0.005539, 3.3885, 0.0566406, 3.3885, -1.2685547, 3.3885, -0.0664062, 0.1303269, 0.0238346, 3.3885, -0.1884766, 3.3885, -1.2060547, 3.3885, 0.0839844, , , , , , , , , , , , , , , , , , , , , , 
0.1308462, 0.0015106, 3.402, -0.409668, 3.402, -1.2084961, 3.402, 0.1323242, 0.1308462, -0.0097353, 3.402, 0.4233398, 3.402, -1.1992188, 3.402, -0.1831055, 0.1308462, -0.002182, 3.402, 0.1274414, 3.402, -1.3637695, 3.402, -0.0854492, 0.1308462, 0.024506, 3.402, -0.0639648, 3.402, -1.3081055, 3.402, 0.0947266, , , , , , , , , , , , , , , , , , , , , , 
0.1313654, 0.0025177, 3.4155, -0.3886719, 3.4155, -1.3017578, 3.4155, 0.1425781, 0.1313654, -0.008896, 3.4155, 0.4492188, 3.4155, -1.2524414, 3.4155, -0.1948242, 0.1313654, -0.0015106, 3.4155, 0.2792969, 3.4155, -1.4643555, 3.4155, -0.0800781, 0.1313654, 0.0226596, 3.4155, -0.0175781, 3.4155, -1.3867188, 3.4155, 0.1162109, , , , , , , , , , , , , , , , , , , , , , 
0.1318846, 0.0082246, 3.429, -0.3740234, 3.429, -1.4072266, 3.429, 0.1391602, 0.1318846, -0.0073854, 3.429, 0.4887695, 3.429, -1.3754883, 3.429, -0.2021484, 0.1318846, -0.0015106, 3.429, 0.4331055, 3.429, -1.4604492, 3.429, -0.0200195, 0.1318846, 0.0218204, 3.429, -0.0146484, 3.429, -1.3544922, 3.429, 0.1635742, , , , , , , , , , , , , , , , , , , , , , 
0.1324038, 0.0146029, 3.4425, -0.2641602, 3.4425, -1.378418, 3.4425, 0.1342773, 0.1324038, -0.0065461, 3.4425, 0.4985352, 3.4425, -1.4101562, 3.4425, -0.184082, 0.1324038, -0.0015106, 3.4425, 0.5078125, 3.4425, -1.2436523, 3.4425, 0.0053711, 0.1324038, 0.0213169, 3.4425, -0.0322266, 3.4425, -1.1816406, 3.4425, 0.1987305, , , , , , , , , , , , , , , , , , , , , , 
0.1329231, 0.0172885, 3.456, -0.0068359, 3.456, -1.190918, 3.456, 0.1508789, 0.1329231, -0.0062104, 3.456, 0.4501953, 3.456, -1.1914062, 3.456, -0.2197266, 0.1329231, -0.002182, 3.456, 0.5058594, 3.456, -1.0878906, 3.456, -0.0356445, 0.1329231, 0.018967, 3.456, -0.0229492, 3.456, -0.965332, 3.456, 0.2333984, , , , , , , , , , , , , , , , , , , , , , 
0.1334423, 0.0186313, 3.4695, 0.2163086, 3.4695, -0.96875, 3.4695, 0.1845703, 0.1334423, -0.0057069, 3.4695, 0.340332, 3.4695, -0.8725586, 3.4695, -0.3427734, 0.1334423, -0.0028534, 3.4695, 0.4584961, 3.4695, -0.7822266, 3.4695, -0.1723633, 0.1334423, 0.0179599, 3.4695, 0.0102539, 3.4695, -0.8789062, 3.4695, 0.2519531, , , , , , , , , , , , , , , , , , , , , , 
0.1339615, 0.0179599, 3.483, 0.234375, 3.483, -0.7832031, 3.483, 0.1953125, 0.1339615, -0.0062104, 3.483, 0.2026367, 3.483, -0.6367188, 3.483, -0.4589844, 0.1339615, -0.0048676, 3.483, 0.4072266, 3.483, -0.5917969, 3.483, -0.3041992, 0.1339615, 0.0149386, 3.483, 0.1152344, 3.483, -0.769043, 3.483, 0.2949219, , , , , , , , , , , , , , , , , , , , , , 
0.1344808, 0.0169528, 3.4965, 0.0561523, 3.4965, -0.6938477, 3.4965, 0.1625977, 0.1344808, -0.0072175, 3.4965, 0.0600586, 3.4965, -0.5317383, 3.4965, -0.5322266, 0.1344808, -0.0068818, 3.4965, 0.3432617, 3.4965, -0.5532227, 3.4965, -0.3598633, 0.1344808, 0.0085603, 3.4965, 0.1708984, 3.4965, -0.7016602, 3.4965, 0.2905273, , , , , , , , , , , , , , , , , , , , , , 
0.135, 0.0196384, 3.51, -0.152832, 3.51, -0.7207031, 3.51, 0.1137695, 0.135, -0.0068818, 3.51, -0.0561523, 3.51, -0.5844727, 3.51, -0.5083008, 0.135, -0.0082246, 3.51, 0.2861328, 3.51, -0.6289062, 3.51, -0.3198242, 0.135, 0.0052033, 3.51, 0.1625977, 3.51, -0.6826172, 3.51, 0.2426758, , , , , , , , , , , , , , , , , , , , , , 
0.1355192, 0.0199741, 3.5235, -0.2402344, 3.5235, -0.824707, 3.5235, 0.0766602, 0.1355192, -0.0058747, 3.5235, -0.0654297, 3.5235, -0.7275391, 3.5235, -0.3930664, 0.1355192, -0.0099031, 3.5235, 0.2333984, 3.5235, -0.7719727, 3.5235, -0.2324219, 0.1355192, 0.0072175, 3.5235, 0.1000977, 3.5235, -0.746582, 3.5235, 0.1582031, , , , , , , , , , , , , , , , , , , , , , 
0.1360385, 0.0179599, 3.537, -0.2070312, 3.537, -0.9443359, 3.537, 0.0786133, 0.1360385, -0.0073854, 3.537, -0.0126953, 3.537, -0.8046875, 3.537, -0.331543, 0.1360385, -0.0105745, 3.537, 0.1928711, 3.537, -0.909668, 3.537, -0.1835938, 0.1360385, 0.0109102, 3.537, 0.0488281, 3.537, -0.8823242, 3.537, 0.0810547, , , , , , , , , , , , , , , , , , , , , , 
0.1365577, 0.0166171, 3.5505, -0.1552734, 3.5505, -1.0424805, 3.5505, 0.0888672, 0.1365577, -0.0112459, 3.5505, 0.1650391, 3.5505, -0.9360352, 3.5505, -0.2382812, 0.1365577, -0.0109102, 3.5505, 0.222168, 3.5505, -1.0092773, 3.5505, -0.1586914, 0.1365577, 0.0125887, 3.5505, 0.0317383, 3.5505, -1.0141602, 3.5505, 0.0517578, , , , , , , , , , , , , , , , , , , , , , 
0.1370769, 0.0191348, 3.564, -0.140625, 3.564, -1.0922852, 3.564, 0.09375, 0.1370769, -0.0135958, 3.564, 0.3330078, 3.564, -1.0283203, 3.564, -0.2026367, 0.1370769, -0.0115816, 3.564, 0.2612305, 3.564, -1.0942383, 3.564, -0.1337891, 0.1370769, 0.0132601, 3.564, 0.043457, 3.564, -1.0688477, 3.564, 0.0615234, , , , , , , , , , , , , , , , , , , , , , 
0.1375962, 0.0199741, 3.5775, -0.1210938, 3.5775, -1.1645508, 3.5775, 0.1010742, 0.1375962, -0.0132601, 3.5775, 0.4536133, 3.5775, -1.0874023, 3.5775, -0.1860352, 0.1375962, -0.0102388, 3.5775, 0.253418, 3.5775, -1.137207, 3.5775, -0.1313477, 0.1375962, 0.0130922, 3.5775, 0.0258789, 3.5775, -1.0708008, 3.5775, 0.0756836, , , , , , , , , , , , , , , , , , , , , , 
0.1381154, 0.0203098, 3.591, -0.0820312, 3.591, -1.1518555, 3.591, 0.1171875, 0.1381154, -0.012253, 3.591, 0.4946289, 3.591, -1.0722656, 3.591, -0.1708984, 0.1381154, -0.0115816, 3.591, 0.2397461, 3.591, -1.1235352, 3.591, -0.1337891, 0.1381154, 0.014435, 3.591, 0.0102539, 3.591, -1.0195312, 3.591, 0.0976562, , , , , , , , , , , , , , , , , , , , , , 
0.1386346, 0.0226596, 3.6045, -0.0356445, 3.6045, -1.0507812, 3.6045, 0.1391602, 0.1386346, -0.0112459, 3.6045, 0.4560547, 3.6045, -0.9648438, 3.6045, -0.2006836, 0.1386346, -0.0139315, 3.6045, 0.2299805, 3.6045, -1.0263672, 3.6045, -0.128418, 0.1386346, 0.0152743, 3.6045, -0.0043945, 3.6045, -0.9443359, 3.6045, 0.1113281, , , , , , , , , , , , , , , , , , , , , , 
0.1391538, 0.0238346, 3.618, -0.0249023, 3.618, -0.9316406, 3.618, 0.1572266, 0.1391538, -0.011078, 3.618, 0.3759766, 3.618, -0.8349609, 3.618, -0.2744141, 0.1391538, -0.0135958, 3.618, 0.2578125, 3.618, -0.9116211, 3.618, -0.0908203, 0.1391538, 0.0166171, 3.618, -0.0161133, 3.618, -0.90625, 3.618, 0.1186523, , , , , , , , , , , , , , , , , , , , , , 
0.1396731, 0.0226596, 3.6315, -0.0522461, 3.6315, -0.831543, 3.6315, 0.1679688, 0.1396731, -0.0099031, 3.6315, 0.2773438, 3.6315, -0.7373047, 3.6315, -0.3393555, 0.1396731, -0.0112459, 3.6315, 0.3066406, 3.6315, -0.8110352, 3.6315, -0.0385742, 0.1396731, 0.0172885, 3.6315, -0.0585938, 3.6315, -0.8388672, 3.6315, 0.1538086, , , , , , , , , , , , , , , , , , , , , , 
0.1401923, 0.0213169, 3.645, -0.1000977, 3.645, -0.7587891, 3.645, 0.1733398, 0.1401923, -0.0092317, 3.645, 0.1835938, 3.645, -0.6748047, 3.645, -0.3793945, 0.1401923, -0.0095674, 3.645, 0.3266602, 3.645, -0.7480469, 3.645, 0.0068359, 0.1401923, 0.0162814, 3.645, -0.1230469, 3.645, -0.7802734, 3.645, 0.1933594, , , , , , , , , , , , , , , , , , , , , , 
0.1407115, 0.0218204, 3.6585, -0.1586914, 3.6585, -0.7177734, 3.6585, 0.1889648, 0.1407115, -0.0099031, 3.6585, 0.1484375, 3.6585, -0.6538086, 3.6585, -0.3935547, 0.1407115, -0.0092317, 3.6585, 0.3017578, 3.6585, -0.7216797, 3.6585, 0.0400391, 0.1407115, 0.017792, 3.6585, -0.1977539, 3.6585, -0.7392578, 3.6585, 0.2143555, , , , , , , , , , , , , , , , , , , , , , 
0.1412308, 0.023331, 3.672, -0.1992188, 3.672, -0.7021484, 3.672, 0.203125, 0.1412308, -0.0097353, 3.672, 0.1235352, 3.672, -0.6411133, 3.672, -0.3847656, 0.1412308, -0.0109102, 3.672, 0.2543945, 3.672, -0.7265625, 3.672, 0.059082, 0.1412308, 0.0182956, 3.672, -0.2470703, 3.672, -0.7197266, 3.672, 0.2250977, , , , , , , , , , , , , , , , , , , , , , 
0.14175, 0.0261845, 3.6855, -0.2167969, 3.6855, -0.7036133, 3.6855, 0.215332, 0.14175, -0.0077211, 3.6855, 0.1723633, 3.6855, -0.65625, 3.6855, -0.3369141, 0.14175, -0.0112459, 3.6855, 0.2099609, 3.6855, -0.7441406, 3.6855, 0.0615234, 0.14175, 0.0146029, 3.6855, -0.2670898, 3.6855, -0.7255859, 3.6855, 0.2290039, , , , , , , , , , , , , , , , , , , , , , 
0.1422692, 0.0332341, 3.699, -0.2143555, 3.699, -0.7338867, 3.699, 0.2304688, 0.1422692, -0.0082246, 3.699, 0.2675781, 3.699, -0.6831055, 3.699, -0.3022461, 0.1422692, -0.0115816, 3.699, 0.1972656, 3.699, -0.7788086, 3.699, 0.0595703, 0.1422692, 0.0112459, 3.699, -0.2700195, 3.699, -0.7495117, 3.699, 0.2255859, , , , , , , , , , , , , , , , , , , , , , 
0.1427885, 0.0357519, 3.7125, -0.2021484, 3.7125, -0.7832031, 3.7125, 0.246582, 0.1427885, -0.010071, 3.7125, 0.3554688, 3.7125, -0.71875, 3.7125, -0.284668, 0.1427885, -0.0125887, 3.7125, 0.2124023, 3.7125, -0.828125, 3.7125, 0.0678711, 0.1427885, 0.0075532, 3.7125, -0.2685547, 3.7125, -0.7875977, 3.7125, 0.2241211, , , , , , , , , , , , , , , , , , , , , , 
0.1433077, 0.0273594, 3.726, -0.1918945, 3.726, -0.8085938, 3.726, 0.2519531, 0.1433077, -0.0102388, 3.726, 0.402832, 3.726, -0.7661133, 3.726, -0.2832031, 0.1433077, -0.0129244, 3.726, 0.2236328, 3.726, -0.8486328, 3.726, 0.0712891, 0.1433077, 0.005539, 3.726, -0.2631836, 3.726, -0.8295898, 3.726, 0.2314453, , , , , , , , , , , , , , , , , , , , , , 
0.1438269, 0.0198062, 3.7395, -0.1791992, 3.7395, -0.8486328, 3.7395, 0.262207, 0.1438269, -0.0095674, 3.7395, 0.4116211, 3.7395, -0.809082, 3.7395, -0.2929688, 0.1438269, -0.0129244, 3.7395, 0.2626953, 3.7395, -0.8891602, 3.7395, 0.0756836, 0.1438269, 0.0041962, 3.7395, -0.2441406, 3.7395, -0.8725586, 3.7395, 0.237793, , , , , , , , , , , , , , , , , , , , , , 
0.1443462, 0.0193027, 3.753, -0.1772461, 3.753, -0.8837891, 3.753, 0.2700195, 0.1443462, -0.0095674, 3.753, 0.4033203, 3.753, -0.8398438, 3.753, -0.3095703, 0.1443462, -0.0135958, 3.753, 0.3046875, 3.753, -0.9169922, 3.753, 0.0761719, 0.1443462, 0.005539, 3.753, -0.2260742, 3.753, -0.8969727, 3.753, 0.2392578, , , , , , , , , , , , , , , , , , , , , , 
0.1448654, 0.0213169, 3.7665, -0.1933594, 3.7665, -0.9101562, 3.7665, 0.2695312, 0.1448654, -0.0097353, 3.7665, 0.3964844, 3.7665, -0.8608398, 3.7665, -0.3203125, 0.1448654, -0.0142672, 3.7665, 0.3378906, 3.7665, -0.9335938, 3.7665, 0.0737305, 0.1448654, 0.0070497, 3.7665, -0.222168, 3.7665, -0.9038086, 3.7665, 0.2416992, , , , , , , , , , , , , , , , , , , , , , 
0.1453846, 0.0176242, 3.78, -0.199707, 3.78, -0.9194336, 3.78, 0.2700195, 0.1453846, -0.008896, 3.78, 0.3837891, 3.78, -0.8666992, 3.78, -0.3237305, 0.1453846, -0.014435, 3.78, 0.3383789, 3.78, -0.9375, 3.78, 0.0649414, 0.1453846, 0.0077211, 3.78, -0.2158203, 3.78, -0.9111328, 3.78, 0.2514648, , , , , , , , , , , , , , , , , , , , , , 
0.1459038, 0.0112459, 3.7935, -0.190918, 3.7935, -0.9125977, 3.7935, 0.2749023, 0.1459038, -0.0083925, 3.7935, 0.3764648, 3.7935, -0.8642578, 3.7935, -0.3251953, 0.1459038, -0.0132601, 3.7935, 0.3256836, 3.7935, -0.9287109, 3.7935, 0.059082, 0.1459038, 0.0078889, 3.7935, -0.2055664, 3.7935, -0.9072266, 3.7935, 0.2563477, , , , , , , , , , , , , , , , , , , , , , 
0.1464231, 0.0058747, 3.807, -0.1708984, 3.807, -0.8959961, 3.807, 0.2744141, 0.1464231, -0.0092317, 3.807, 0.3696289, 3.807, -0.8413086, 3.807, -0.3354492, 0.1464231, -0.012253, 3.807, 0.3242188, 3.807, -0.9052734, 3.807, 0.0483398, 0.1464231, 0.0085603, 3.807, -0.1953125, 3.807, -0.890625, 3.807, 0.2563477, , , , , , , , , , , , , , , , , , , , , , 
0.1469423, -0.0001678, 3.8205, -0.1557617, 3.8205, -0.8867188, 3.8205, 0.2768555, 0.1469423, -0.0082246, 3.8205, 0.3764648, 3.8205, -0.8178711, 3.8205, -0.3422852, 0.1469423, -0.0132601, 3.8205, 0.324707, 3.8205, -0.8823242, 3.8205, 0.0400391, 0.1469423, 0.0092317, 3.8205, -0.1914062, 3.8205, -0.8774414, 3.8205, 0.2583008, , , , , , , , , , , , , , , , , , , , , , 
0.1474615, -0.0025177, 3.834, -0.1611328, 3.834, -0.8803711, 3.834, 0.2783203, 0.1474615, -0.0068818, 3.834, 0.3808594, 3.834, -0.8115234, 3.834, -0.3442383, 0.1474615, -0.0135958, 3.834, 0.3203125, 3.834, -0.8798828, 3.834, 0.0415039, 0.1474615, 0.0124208, 3.834, -0.1948242, 3.834, -0.8725586, 3.834, 0.2524414, , , , , , , , , , , , , , , , , , , , , , 
0.1479808, -0.0041962, 3.8475, -0.1811523, 3.8475, -0.8798828, 3.8475, 0.2714844, 0.1479808, -0.0078889, 3.8475, 0.371582, 3.8475, -0.8188477, 3.8475, -0.3349609, 0.1479808, -0.0125887, 3.8475, 0.3173828, 3.8475, -0.8803711, 3.8475, 0.0532227, 0.1479808, 0.0152743, 3.8475, -0.2060547, 3.8475, -0.8696289, 3.8475, 0.2490234, , , , , , , , , , , , , , , , , , , , , , 
0.1485, -0.0072175, 3.861, -0.199707, 3.861, -0.875, 3.861, 0.2695312, 0.1485, -0.008896, 3.861, 0.3613281, 3.861, -0.8183594, 3.861, -0.3286133, 0.1485, -0.0095674, 3.861, 0.3129883, 3.861, -0.8803711, 3.861, 0.0571289, 0.1485, 0.0182956, 3.861, -0.2133789, 3.861, -0.8676758, 3.861, 0.246582, , , , , , , , , , , , , , , , , , , , , , 
0.1490192, -0.0135958, 3.8745, -0.2089844, 3.8745, -0.8725586, 3.8745, 0.2705078, 0.1490192, -0.0090639, 3.8745, 0.3613281, 3.8745, -0.8129883, 3.8745, -0.3208008, 0.1490192, -0.0060426, 3.8745, 0.3056641, 3.8745, -0.8828125, 3.8745, 0.0610352, 0.1490192, 0.0194705, 3.8745, -0.2109375, 3.8745, -0.8706055, 3.8745, 0.2368164, , , , , , , , , , , , , , , , , , , , , , 
0.1495385, -0.014435, 3.888, -0.2265625, 3.888, -0.8852539, 3.888, 0.2763672, 0.1495385, -0.0109102, 3.888, 0.3730469, 3.888, -0.8217773, 3.888, -0.3232422, 0.1495385, -0.0035248, 3.888, 0.3056641, 3.888, -0.9042969, 3.888, 0.0537109, 0.1495385, 0.0213169, 3.888, -0.2138672, 3.888, -0.894043, 3.888, 0.2211914, , , , , , , , , , , , , , , , , , , , , , 
0.1500577, -0.0068818, 3.9015, -0.2407227, 3.9015, -0.9067383, 3.9015, 0.2753906, 0.1500577, -0.0105745, 3.9015, 0.3945312, 3.9015, -0.8618164, 3.9015, -0.3198242, 0.1500577, -0.002182, 3.9015, 0.2973633, 3.9015, -0.9550781, 3.9015, 0.0405273, 0.1500577, 0.0246738, 3.9015, -0.2163086, 3.9015, -0.9375, 3.9015, 0.215332, , , , , , , , , , , , , , , , , , , , , , 
0.1505769, 0.002182, 3.915, -0.2636719, 3.915, -0.9628906, 3.915, 0.2631836, 0.1505769, -0.0090639, 3.915, 0.409668, 3.915, -0.890625, 3.915, -0.3095703, 0.1505769, -0.0038605, 3.915, 0.2817383, 3.915, -1.0205078, 3.915, 0.0317383, 0.1505769, 0.0263523, 3.915, -0.2036133, 3.915, -0.996582, 3.915, 0.1972656, , , , , , , , , , , , , , , , , , , , , , 
0.1510962, 0.0058747, 3.9285, -0.2705078, 3.9285, -1.0249023, 3.9285, 0.246582, 0.1510962, -0.0072175, 3.9285, 0.4433594, 3.9285, -0.9541016, 3.9285, -0.2749023, 0.1510962, -0.0041962, 3.9285, 0.2636719, 3.9285, -1.0771484, 3.9285, 0.0151367, 0.1510962, 0.0276951, 3.9285, -0.1875, 3.9285, -1.0258789, 3.9285, 0.1831055, , , , , , , , , , , , , , , , , , , , , , 
0.1516154, 0.0075532, 3.942, -0.2651367, 3.942, -1.0844727, 3.942, 0.2270508, 0.1516154, -0.0065461, 3.942, 0.4643555, 3.942, -1.012207, 3.942, -0.2446289, 0.1516154, -0.002182, 3.942, 0.2548828, 3.942, -1.1142578, 3.942, -0.0239258, 0.1516154, 0.0283665, 3.942, -0.1396484, 3.942, -1.0761719, 3.942, 0.1572266, , , , , , , , , , , , , , , , , , , , , , 
0.1521346, 0.0085603, 3.9555, -0.2416992, 3.9555, -1.1245117, 3.9555, 0.215332, 0.1521346, -0.0075532, 3.9555, 0.4624023, 3.9555, -1.0566406, 3.9555, -0.2421875, 0.1521346, -0.0015106, 3.9555, 0.25, 3.9555, -1.1342773, 3.9555, -0.0688477, 0.1521346, 0.0263523, 3.9555, -0.081543, 3.9555, -1.090332, 3.9555, 0.1430664, , , , , , , , , , , , , , , , , , , , , , 
0.1526538, 0.0075532, 3.969, -0.2143555, 3.969, -1.1401367, 3.969, 0.2158203, 0.1526538, -0.008896, 3.969, 0.4399414, 3.969, -1.0732422, 3.969, -0.2709961, 0.1526538, -0.0048676, 3.969, 0.2695312, 3.969, -1.1425781, 3.969, -0.0776367, 0.1526538, 0.0216526, 3.969, -0.0410156, 3.969, -1.0922852, 3.969, 0.1381836, , , , , , , , , , , , , , , , , , , , , , 
0.1531731, 0.0119173, 3.9825, -0.1948242, 3.9825, -1.1337891, 3.9825, 0.2138672, 0.1531731, -0.0085603, 3.9825, 0.4121094, 3.9825, -1.0703125, 3.9825, -0.2958984, 0.1531731, -0.0068818, 3.9825, 0.293457, 3.9825, -1.1430664, 3.9825, -0.0639648, 0.1531731, 0.0181277, 3.9825, -0.046875, 3.9825, -1.1010742, 3.9825, 0.1503906, , , , , , , , , , , , , , , , , , , , , , 
0.1536923, 0.0186313, 3.996, -0.2001953, 3.996, -1.137207, 3.996, 0.2182617, 0.1536923, -0.0075532, 3.996, 0.3930664, 3.996, -1.074707, 3.996, -0.3168945, 0.1536923, -0.0068818, 3.996, 0.3613281, 3.996, -1.1503906, 3.996, -0.0288086, 0.1536923, 0.0159457, 3.996, -0.1113281, 3.996, -1.1357422, 3.996, 0.171875, , , , , , , , , , , , , , , , , , , , , , 
0.1542115, 0.0209812, 4.0095, -0.2587891, 4.0095, -1.1787109, 4.0095, 0.2236328, 0.1542115, -0.0065461, 4.0095, 0.3876953, 4.0095, -1.1206055, 4.0095, -0.3149414, 0.1542115, -0.0062104, 4.0095, 0.3857422, 4.0095, -1.1845703, 4.0095, 0.0009766, 0.1542115, 0.0172885, 4.0095, -0.1894531, 4.0095, -1.1870117, 4.0095, 0.184082, , , , , , , , , , , , , , , , , , , , , , 
0.1547308, 0.0209812, 4.023, -0.3286133, 4.023, -1.2250977, 4.023, 0.2148438, 0.1547308, -0.005539, 4.023, 0.4111328, 4.023, -1.1845703, 4.023, -0.2822266, 0.1547308, -0.0062104, 4.023, 0.3461914, 4.023, -1.2255859, 4.023, 0.0244141, 0.1547308, 0.0196384, 4.023, -0.2407227, 4.023, -1.2456055, 4.023, 0.1728516, , , , , , , , , , , , , , , , , , , , , , 
0.15525, 0.0213169, 4.0365, -0.3823242, 4.0365, -1.2788086, 4.0365, 0.2172852, 0.15525, -0.0048676, 4.0365, 0.4282227, 4.0365, -1.2163086, 4.0365, -0.269043, 0.15525, -0.0083925, 4.0365, 0.2661133, 4.0365, -1.3110352, 4.0365, 0.0263672, 0.15525, 0.0193027, 4.0365, -0.2705078, 4.0365, -1.3393555, 4.0365, 0.1318359, , , , , , , , , , , , , , , , , , , , , , 
0.1557692, 0.0213169, 4.05, -0.4389648, 4.05, -1.3588867, 4.05, 0.2246094, 0.1557692, -0.0048676, 4.05, 0.4609375, 4.05, -1.2895508, 4.05, -0.2568359, 0.1557692, -0.0083925, 4.05, 0.1782227, 4.05, -1.4135742, 4.05, 0.0029297, 0.1557692, 0.0172885, 4.05, -0.2529297, 4.05, -1.3950195, 4.05, 0.0849609, , , , , , , , , , , , , , , , , , , , , , 
0.1562885, 0.0243381, 4.0635, -0.4609375, 4.0635, -1.3798828, 4.0635, 0.2138672, 0.1562885, -0.0048676, 4.0635, 0.4970703, 4.0635, -1.3476562, 4.0635, -0.2250977, 0.1562885, -0.0077211, 4.0635, 0.0791016, 4.0635, -1.4199219, 4.0635, -0.0073242, 0.1562885, 0.0159457, 4.0635, -0.2143555, 4.0635, -1.3212891, 4.0635, 0.0498047, , , , , , , , , , , , , , , , , , , , , , 
0.1568077, 0.0234989, 4.077, -0.4125977, 4.077, -1.3193359, 4.077, 0.1782227, 0.1568077, -0.0048676, 4.077, 0.4970703, 4.077, -1.2719727, 4.077, -0.1826172, 0.1568077, -0.0072175, 4.077, 0.0288086, 4.077, -1.2387695, 4.077, -0.027832, 0.1568077, 0.0146029, 4.077, -0.1928711, 4.077, -1.2402344, 4.077, 0.0419922, , , , , , , , , , , , , , , , , , , , , , 
0.1573269, 0.0203098, 4.0905, -0.2314453, 4.0905, -1.125, 4.0905, 0.1723633, 0.1573269, -0.0041962, 4.0905, 0.4243164, 4.0905, -1.0498047, 4.0905, -0.2143555, 0.1573269, -0.0099031, 4.0905, 0.0683594, 4.0905, -0.9956055, 4.0905, -0.0703125, 0.1573269, 0.0146029, 4.0905, -0.1835938, 4.0905, -1.050293, 4.0905, 0.0332031, , , , , , , , , , , , , , , , , , , , , , 
0.1578462, 0.0193027, 4.104, -0.0776367, 4.104, -0.925293, 4.104, 0.190918, 0.1578462, -0.0036927, 4.104, 0.293457, 4.104, -0.8208008, 4.104, -0.3056641, 0.1578462, -0.012253, 4.104, 0.1430664, 4.104, -0.7939453, 4.104, -0.0844727, 0.1578462, 0.0130922, 4.104, -0.2080078, 4.104, -0.9038086, 4.104, 0.0507812, , , , , , , , , , , , , , , , , , , , , , 
0.1583654, 0.0224918, 4.1175, -0.1054688, 4.1175, -0.7890625, 4.1175, 0.1845703, 0.1583654, -0.0058747, 4.1175, 0.1772461, 4.1175, -0.6860352, 4.1175, -0.3740234, 0.1583654, -0.0135958, 4.1175, 0.1621094, 4.1175, -0.7329102, 4.1175, -0.0766602, 0.1583654, 0.0135958, 4.1175, -0.2597656, 4.1175, -0.8354492, 4.1175, 0.081543, , , , , , , , , , , , , , , , , , , , , , 
0.1588846, 0.0246738, 4.131, -0.2910156, 4.131, -0.7666016, 4.131, 0.1503906, 0.1588846, -0.0075532, 4.131, 0.1044922, 4.131, -0.6923828, 4.131, -0.3574219, 0.1588846, -0.0137636, 4.131, 0.1240234, 4.131, -0.7270508, 4.131, -0.0405273, 0.1588846, 0.0159457, 4.131, -0.3076172, 4.131, -0.8374023, 4.131, 0.0883789, , , , , , , , , , , , , , , , , , , , , , 
0.1594038, 0.0209812, 4.1445, -0.4785156, 4.1445, -0.8378906, 4.1445, 0.1152344, 0.1594038, -0.0078889, 4.1445, 0.1040039, 4.1445, -0.8120117, 4.1445, -0.2524414, 0.1594038, -0.0129244, 4.1445, 0.0351562, 4.1445, -0.878418, 4.1445, 0.0024414, 0.1594038, 0.0159457, 4.1445, -0.3344727, 4.1445, -0.9072266, 4.1445, 0.0537109, , , , , , , , , , , , , , , , , , , , , , 
0.1599231, 0.0171206, 4.158, -0.5625, 4.158, -0.9423828, 4.158, 0.0927734, 0.1599231, -0.0082246, 4.158, 0.1455078, 4.158, -0.8818359, 4.158, -0.1870117, 0.1599231, -0.0095674, 4.158, -0.0424805, 4.158, -1.0698242, 4.158, 0.0185547, 0.1599231, 0.0135958, 4.158, -0.3178711, 4.158, -1.0283203, 4.158, 0.0073242, , , , , , , , , , , , , , , , , , , , , , 
0.1604423, 0.0181277, 4.1715, -0.5737305, 4.1715, -1.0620117, 4.1715, 0.0839844, 0.1604423, -0.008896, 4.1715, 0.2905273, 4.1715, -1.0043945, 4.1715, -0.1025391, 0.1604423, -0.0075532, 4.1715, -0.0537109, 4.1715, -1.2143555, 4.1715, -0.0288086, 0.1604423, 0.0115816, 4.1715, -0.2250977, 4.1715, -1.159668, 4.1715, -0.0336914, , , , , , , , , , , , , , , , , , , , , , 
0.1609615, 0.0186313, 4.185, -0.527832, 4.185, -1.1826172, 4.185, 0.0805664, 0.1609615, -0.0082246, 4.185, 0.4731445, 4.185, -1.1166992, 4.185, -0.0664062, 0.1609615, -0.0062104, 4.185, 0.012207, 4.185, -1.2978516, 4.185, -0.090332, 0.1609615, 0.0112459, 4.185, -0.0932617, 4.185, -1.2211914, 4.185, -0.0556641, , , , , , , , , , , , , , , , , , , , , , 
0.1614808, 0.018967, 4.1985, -0.3803711, 4.1985, -1.2265625, 4.1985, 0.0864258, 0.1614808, -0.0082246, 4.1985, 0.6083984, 4.1985, -1.1860352, 4.1985, -0.0463867, 0.1614808, -0.0057069, 4.1985, 0.105957, 4.1985, -1.2783203, 4.1985, -0.1206055, 0.1614808, 0.0075532, 4.1985, 0.0234375, 4.1985, -1.1801758, 4.1985, -0.0644531, , , , , , , , , , , , , , , , , , , , , , 
0.162, 0.0204776, 4.212, -0.1777344, 4.212, -1.1699219, 4.212, 0.1005859, 0.162, -0.0082246, 4.212, 0.6235352, 4.212, -1.152832, 4.212, -0.0566406, 0.162, -0.0048676, 4.212, 0.2104492, 4.212, -1.1806641, 4.212, -0.1079102, 0.162, 0.0041962, 4.212, 0.0673828, 4.212, -1.1040039, 4.212, -0.046875, , , , , , , , , , , , , , , , , , , , , , 
0.1625192, 0.0226596, 4.2255, -0.0688477, 4.2255, -1.0737305, 4.2255, 0.1132812, 0.1625192, -0.0082246, 4.2255, 0.5175781, 4.2255, -1.046875, 4.2255, -0.1098633, 0.1625192, -0.0041962, 4.2255, 0.3193359, 4.2255, -1.0532227, 4.2255, -0.0751953, 0.1625192, 0.0028534, 4.2255, 0.059082, 4.2255, -1.0644531, 4.2255, -0.0268555, , , , , , , , , , , , , , , , , , , , , , 
0.1630385, 0.0221561, 4.239, -0.0703125, 4.239, -1.0288086, 4.239, 0.1049805, 0.1630385, -0.0075532, 4.239, 0.3642578, 4.239, -0.9487305, 4.239, -0.1816406, 0.1630385, -0.0065461, 4.239, 0.3598633, 4.239, -0.9257812, 4.239, -0.0366211, 0.1630385, 0.0025177, 4.239, -0.0058594, 4.239, -0.9936523, 4.239, 0.0170898, , , , , , , , , , , , , , , , , , , , , , 
0.1635577, 0.0246738, 4.2525, -0.140625, 4.2525, -0.956543, 4.2525, 0.090332, 0.1635577, -0.0075532, 4.2525, 0.2329102, 4.2525, -0.8852539, 4.2525, -0.2407227, 0.1635577, -0.0085603, 4.2525, 0.3427734, 4.2525, -0.8754883, 4.2525, -0.0268555, 0.1635577, 0.0015106, 4.2525, -0.0947266, 4.2525, -0.9272461, 4.2525, 0.0478516, , , , , , , , , , , , , , , , , , , , , , 
0.1640769, 0.0293736, 4.266, -0.2211914, 4.266, -0.8984375, 4.266, 0.0864258, 0.1640769, -0.0077211, 4.266, 0.1503906, 4.266, -0.8266602, 4.266, -0.253418, 0.1640769, -0.0095674, 4.266, 0.2250977, 4.266, -0.8139648, 4.266, -0.0405273, 0.1640769, 0.0011749, 4.266, -0.1694336, 4.266, -0.875, 4.266, 0.0683594, , , , , , , , , , , , , , , , , , , , , , 
0.1645962, 0.0293736, 4.2795, -0.2783203, 4.2795, -0.8491211, 4.2795, 0.0830078, 0.1645962, -0.0099031, 4.2795, 0.1362305, 4.2795, -0.8012695, 4.2795, -0.2475586, 0.1645962, -0.0092317, 4.2795, 0.0673828, 4.2795, -0.8017578, 4.2795, -0.0717773, 0.1645962, 0.0008392, 4.2795, -0.2016602, 4.2795, -0.8339844, 4.2795, 0.074707, , , , , , , , , , , , , , , , , , , , , , 
0.1651154, 0.0250095, 4.293, -0.3007812, 4.293, -0.8217773, 4.293, 0.0859375, 0.1651154, -0.0117494, 4.293, 0.1586914, 4.293, -0.7626953, 4.293, -0.2182617, 0.1651154, -0.0062104, 4.293, -0.0400391, 4.293, -0.8203125, 4.293, -0.0888672, 0.1651154, 0.0005035, 4.293, -0.1948242, 4.293, -0.8212891, 4.293, 0.0620117, , , , , , , , , , , , , , , , , , , , , , 
0.1656346, 0.0179599, 4.3065, -0.309082, 4.3065, -0.815918, 4.3065, 0.0825195, 0.1656346, -0.0102388, 4.3065, 0.2314453, 4.3065, -0.7636719, 4.3065, -0.1689453, 0.1656346, -0.0062104, 4.3065, -0.0424805, 4.3065, -0.8393555, 4.3065, -0.0908203, 0.1656346, 0.0038605, 4.3065, -0.1723633, 4.3065, -0.8398438, 4.3065, 0.0322266, , , , , , , , , , , , , , , , , , , , , , 
0.1661538, 0.0124208, 4.32, -0.3198242, 4.32, -0.8310547, 4.32, 0.0805664, 0.1661538, -0.005539, 4.32, 0.3046875, 4.32, -0.7832031, 4.32, -0.1230469, 0.1661538, -0.0085603, 4.32, 0.0229492, 4.32, -0.8647461, 4.32, -0.0786133, 0.1661538, 0.0075532, 4.32, -0.1464844, 4.32, -0.8779297, 4.32, -0.0058594, , , , , , , , , , , , , , , , , , , , , , 
0.1666731, 0.0102388, 4.3335, -0.3364258, 4.3335, -0.8569336, 4.3335, 0.0756836, 0.1666731, -0.0031891, 4.3335, 0.3486328, 4.3335, -0.8115234, 4.3335, -0.097168, 0.1666731, -0.0099031, 4.3335, 0.0888672, 4.3335, -0.8950195, 4.3335, -0.0478516, 0.1666731, 0.0095674, 4.3335, -0.1313477, 4.3335, -0.9057617, 4.3335, -0.0307617, , , , , , , , , , , , , , , , , , , , , , 
0.1671923, 0.0092317, 4.347, -0.3393555, 4.347, -0.8833008, 4.347, 0.0737305, 0.1671923, -0.0041962, 4.347, 0.3720703, 4.347, -0.8374023, 4.347, -0.0874023, 0.1671923, -0.008896, 4.347, 0.121582, 4.347, -0.9267578, 4.347, -0.0039062, 0.1671923, 0.0095674, 4.347, -0.1259766, 4.347, -0.9223633, 4.347, -0.043457, , , , , , , , , , , , , , , , , , , , , , 
0.1677115, 0.005539, 4.3605, -0.3120117, 4.3605, -0.8974609, 4.3605, 0.078125, 0.1677115, -0.0062104, 4.3605, 0.3886719, 4.3605, -0.8554688, 4.3605, -0.0854492, 0.1677115, -0.0078889, 4.3605, 0.1352539, 4.3605, -0.949707, 4.3605, 0.0268555, 0.1677115, 0.0119173, 4.3605, -0.1308594, 4.3605, -0.9321289, 4.3605, -0.0463867, , , , , , , , , , , , , , , , , , , , , , 
0.1682308, -0.0003357, 4.374, -0.2827148, 4.374, -0.9052734, 4.374, 0.0908203, 0.1682308, -0.0062104, 4.374, 0.4023438, 4.374, -0.8642578, 4.374, -0.0874023, 0.1682308, -0.0058747, 4.374, 0.1435547, 4.374, -0.9545898, 4.374, 0.0327148, 0.1682308, 0.0146029, 4.374, -0.1391602, 4.374, -0.9350586, 4.374, -0.0473633, , , , , , , , , , , , , , , , , , , , , , 
0.16875, -0.0035248, 4.3875, -0.2739258, 4.3875, -0.9023438, 4.3875, 0.097168, 0.16875, -0.0078889, 4.3875, 0.4091797, 4.3875, -0.8637695, 4.3875, -0.0932617, 0.16875, -0.005539, 4.3875, 0.1308594, 4.3875, -0.9609375, 4.3875, 0.0419922, 0.16875, 0.0172885, 4.3875, -0.1499023, 4.3875, -0.9287109, 4.3875, -0.0454102, , , , , , , , , , , , , , , , , , , , , , 
0.1692692, -0.0035248, 4.401, -0.2788086, 4.401, -0.8964844, 4.401, 0.1005859, 0.1692692, -0.0092317, 4.401, 0.4042969, 4.401, -0.859375, 4.401, -0.0952148, 0.1692692, -0.0057069, 4.401, 0.109375, 4.401, -0.9482422, 4.401, 0.0400391, 0.1692692, 0.0199741, 4.401, -0.1669922, 4.401, -0.9135742, 4.401, -0.0390625, , , , , , , , , , , , , , , , , , , , , , 
0.1697885, -0.0035248, 4.4145, -0.300293, 4.4145, -0.8701172, 4.4145, 0.1054688, 0.1697885, -0.0077211, 4.4145, 0.3945312, 4.4145, -0.8349609, 4.4145, -0.1005859, 0.1697885, -0.005539, 4.4145, 0.1064453, 4.4145, -0.9243164, 4.4145, 0.0351562, 0.1697885, 0.0219883, 4.4145, -0.1816406, 4.4145, -0.8969727, 4.4145, -0.03125, , , , , , , , , , , , , , , , , , , , , , 
0.1703077, -0.0078889, 4.428, -0.3222656, 4.428, -0.8452148, 4.428, 0.1069336, 0.1703077, -0.0072175, 4.428, 0.3745117, 4.428, -0.8076172, 4.428, -0.1064453, 0.1703077, -0.0052033, 4.428, 0.1054688, 4.428, -0.9082031, 4.428, 0.0390625, 0.1703077, 0.0229953, 4.428, -0.1879883, 4.428, -0.8945312, 4.428, -0.0239258, , , , , , , , , , , , , , , , , , , , , , 
