Timestamps,channel_1,channel_2,channel_3,channel_4,channel_5,channel_6,channel_7,channel_8,ACC_X,ACC_Y,ACC_Z,GYR_X,GYR_Y,GYR_Z
16_11_11_654,0.0,0.0,0.0,0.0,0.0,0.0,0.0,0.0,0.0,0.0,0.0,0.0,0.0,0.0
16_11_11_654,0.0,0.0,0.0,0.0,0.0,0.0,0.0,0.0,0.0,0.0,0.0,0.0,0.0,0.0
16_11_11_654,0.0,0.0,0.0,0.0,0.0,0.0,0.0,0.0,0.0,0.0,0.0,0.0,0.0,0.0
16_11_11_654,0.0,0.0,0.0,0.0,0.0,0.0,0.0,0.0,0.0,0.0,0.0,0.0,0.0,0.0
16_11_11_654,0.0,0.0,0.0,0.0,0.0,0.0,0.0,0.0,0.0,0.0,0.0,0.0,0.0,0.0
16_11_11_654,0.0,0.0,0.0,0.0,0.0,0.0,0.0,0.0,0.0,0.0,0.0,0.0,0.0,0.0
16_11_11_654,0.0,0.0,0.0,0.0,0.0,0.0,0.0,0.0,0.0,0.0,0.0,0.0,0.0,0.0
16_11_11_654,0.0,0.0,0.0,0.0,0.0,0.0,0.0,0.0,0.0,0.0,0.0,0.0,0.0,0.0
16_11_11_654,0.0,0.0,0.0,0.0,0.0,0.0,0.0,0.0,0.0,0.0,0.0,0.0,0.0,0.0
16_11_11_654,0.0,0.0,0.0,0.0,0.0,0.0,0.0,0.0,0.0,0.0,0.0,0.0,0.0,0.0
16_11_15_591,1.0,0.0,3.0,-1.0,2.0,3.0,-2.0,0.0,0.96240234375,0.09375,0.1435546875,0.3658536585365854,-1.0365853658536586,0.1829268292682927
16_11_15_591,0.0,-1.0,1.0,1.0,-1.0,-2.0,-4.0,-2.0,0.0,0.0,0.0,0.0,0.0,0.0
16_11_15_591,-3.0,0.0,0.0,-2.0,1.0,-1.0,2.0,-3.0,0.0,0.0,0.0,0.0,0.0,0.0
16_11_15_591,-1.0,0.0,3.0,0.0,1.0,-1.0,1.0,-1.0,0.0,0.0,0.0,0.0,0.0,0.0
16_11_15_591,0.0,0.0,0.0,0.0,0.0,0.0,0.0,0.0,0.0,0.0,0.0,0.0,0.0,0.0
16_11_15_591,0.0,0.0,0.0,0.0,0.0,0.0,0.0,0.0,0.0,0.0,0.0,0.0,0.0,0.0
16_11_15_591,0.0,0.0,0.0,0.0,0.0,0.0,0.0,0.0,0.0,0.0,0.0,0.0,0.0,0.0
16_11_15_591,0.0,0.0,0.0,0.0,0.0,0.0,0.0,0.0,0.0,0.0,0.0,0.0,0.0,0.0
16_11_15_591,0.0,0.0,0.0,0.0,0.0,0.0,0.0,0.0,0.0,0.0,0.0,0.0,0.0,0.0
16_11_15_591,0.0,0.0,0.0,0.0,0.0,0.0,0.0,0.0,0.0,0.0,0.0,0.0,0.0,0.0
16_11_15_627,3.0,2.0,-2.0,-2.0,3.0,5.0,-2.0,0.0,0.9638671875,0.10107421875,0.14697265625,0.12195121951219513,-1.0365853658536586,0.5487804878048781
16_11_15_627,0.0,-4.0,-4.0,-1.0,-3.0,0.0,1.0,-1.0,0.96630859375,0.09716796875,0.150390625,0.6707317073170732,-1.0975609756097562,0.3658536585365854
16_11_15_627,1.0,-1.0,-1.0,0.0,0.0,-2.0,-3.0,0.0,0.96240234375,0.09375,0.1435546875,0.3658536585365854,-1.0365853658536586,0.1829268292682927
16_11_15_627,0.0,-4.0,-4.0,-1.0,-3.0,0.0,1.0,-1.0,0.0,0.0,0.0,0.0,0.0,0.0
16_11_15_627,1.0,-1.0,-1.0,0.0,0.0,-2.0,-3.0,0.0,0.0,0.0,0.0,0.0,0.0,0.0
16_11_15_627,1.0,-1.0,-1.0,-1.0,1.0,0.0,1.0,-2.0,0.0,0.0,0.0,0.0,0.0,0.0
16_11_15_627,-3.0,-2.0,1.0,-4.0,3.0,-1.0,-1.0,0.0,0.0,0.0,0.0,0.0,0.0,0.0
16_11_15_627,-2.0,0.0,-6.0,0.0,0.0,1.0,-1.0,-2.0,0.0,0.0,0.0,0.0,0.0,0.0
16_11_15_627,-1.0,-3.0,-1.0,2.0,1.0,0.0,-1.0,0.0,0.0,0.0,0.0,0.0,0.0,0.0
16_11_15_676,0.0,0.0,1.0,0.0,1.0,2.0,-6.0,-1.0,0.9638671875,0.10107421875,0.14697265625,0.12195121951219513,-1.0365853658536586,0.5487804878048781
16_11_15_676,-1.0,-3.0,-5.0,-3.0,1.0,1.0,-5.0,1.0,0.96630859375,0.09716796875,0.150390625,0.6707317073170732,-1.0975609756097562,0.3658536585365854
16_11_15_676,-2.0,0.0,-1.0,0.0,4.0,6.0,0.0,-1.0,0.96240234375,0.09375,0.1435546875,0.3658536585365854,-1.0365853658536586,0.1829268292682927
16_11_15_676,-1.0,1.0,0.0,-1.0,-1.0,-3.0,-6.0,3.0,0.0,0.0,0.0,0.0,0.0,0.0
16_11_15_676,3.0,2.0,-2.0,-2.0,3.0,5.0,-2.0,0.0,0.0,0.0,0.0,0.0,0.0,0.0
16_11_15_676,0.0,-4.0,-4.0,-1.0,-3.0,0.0,1.0,-1.0,0.0,0.0,0.0,0.0,0.0,0.0
16_11_15_676,1.0,-1.0,-1.0,0.0,0.0,-2.0,-3.0,0.0,0.0,0.0,0.0,0.0,0.0,0.0
16_11_15_738,1.0,4.0,1.0,0.0,0.0,-3.0,3.0,-1.0,0.96630859375,0.0947265625,0.15087890625,-0.6707317073170732,-1.1585365853658538,0.7926829268292683
16_11_15_738,-1.0,-3.0,0.0,1.0,1.0,7.0,-2.0,2.0,0.9638671875,0.10107421875,0.14697265625,0.12195121951219513,-1.0365853658536586,0.5487804878048781
16_11_15_738,2.0,8.0,4.0,2.0,4.0,0.0,2.0,0.0,0.96630859375,0.09716796875,0.150390625,0.6707317073170732,-1.0975609756097562,0.3658536585365854
16_11_15_738,1.0,-2.0,-3.0,1.0,1.0,6.0,-4.0,-2.0,0.96240234375,0.09375,0.1435546875,0.3658536585365854,-1.0365853658536586,0.1829268292682927
16_11_15_738,0.0,-3.0,-2.0,-2.0,1.0,7.0,5.0,4.0,0.0,0.0,0.0,0.0,0.0,0.0
16_11_15_738,0.0,0.0,1.0,0.0,1.0,2.0,-6.0,-1.0,0.0,0.0,0.0,0.0,0.0,0.0
16_11_15_738,-1.0,-3.0,-5.0,-3.0,1.0,1.0,-5.0,1.0,0.0,0.0,0.0,0.0,0.0,0.0
16_11_15_738,-2.0,0.0,-1.0,0.0,4.0,6.0,0.0,-1.0,0.0,0.0,0.0,0.0,0.0,0.0
16_11_15_778,1.0,-3.0,-3.0,3.0,-7.0,-8.0,0.0,-2.0,1.138671875,0.1484375,-0.11474609375,-2.378048780487805,0.12195121951219513,1.2804878048780488
16_11_15_778,-2.0,1.0,-1.0,-1.0,2.0,2.0,-2.0,-1.0,1.3486328125,0.3330078125,0.93408203125,-3.4756097560975614,-0.30487804878048785,0.6097560975609757
16_11_15_778,0.0,1.0,-1.0,-3.0,-4.0,-6.0,2.0,-5.0,1.1845703125,0.17138671875,-0.0537109375,-3.048780487804878,-0.48780487804878053,2.3170731707317076
16_11_15_778,-1.0,-2.0,-1.0,0.0,1.0,2.0,-4.0,4.0,1.26708984375,0.2607421875,0.8388671875,-0.6707317073170732,-1.0365853658536586,0.06097560975609757
16_11_15_778,2.0,1.0,-2.0,-4.0,-4.0,-3.0,0.0,-1.0,1.24560546875,0.26171875,-0.130859375,0.9146341463414634,-1.2804878048780488,-0.1829268292682927
16_11_15_778,1.0,1.0,-1.0,-2.0,3.0,5.0,-3.0,-1.0,0.78759765625,0.06787109375,0.060546875,2.9268292682926833,-2.25609756097561,-0.48780487804878053
16_11_15_778,-2.0,-4.0,0.0,3.0,-2.0,-4.0,1.0,0.0,0.96630859375,0.0947265625,0.15087890625,-0.6707317073170732,-1.1585365853658538,0.7926829268292683
16_11_15_778,-2.0,-5.0,-2.0,1.0,2.0,5.0,-3.0,4.0,0.9638671875,0.10107421875,0.14697265625,0.12195121951219513,-1.0365853658536586,0.5487804878048781
16_11_15_778,-3.0,-1.0,2.0,0.0,0.0,-8.0,0.0,-4.0,0.96630859375,0.09716796875,0.150390625,0.6707317073170732,-1.0975609756097562,0.3658536585365854
16_11_15_778,-4.0,-3.0,1.0,-2.0,5.0,2.0,-1.0,2.0,0.96240234375,0.09375,0.1435546875,0.3658536585365854,-1.0365853658536586,0.1829268292682927
16_11_15_846,-1.0,1.0,-4.0,-5.0,-2.0,-6.0,2.0,-5.0,1.138671875,0.1484375,-0.11474609375,-2.378048780487805,0.12195121951219513,1.2804878048780488
16_11_15_846,1.0,-1.0,-1.0,0.0,-3.0,4.0,-1.0,0.0,1.3486328125,0.3330078125,0.93408203125,-3.4756097560975614,-0.30487804878048785,0.6097560975609757
16_11_15_846,1.0,-1.0,-2.0,-6.0,-1.0,-4.0,1.0,-2.0,1.1845703125,0.17138671875,-0.0537109375,-3.048780487804878,-0.48780487804878053,2.3170731707317076
16_11_15_846,-1.0,-1.0,-1.0,0.0,-1.0,3.0,-2.0,1.0,1.26708984375,0.2607421875,0.8388671875,-0.6707317073170732,-1.0365853658536586,0.06097560975609757
16_11_15_846,1.0,-3.0,-3.0,3.0,-7.0,-8.0,0.0,-2.0,1.24560546875,0.26171875,-0.130859375,0.9146341463414634,-1.2804878048780488,-0.1829268292682927
16_11_15_846,-2.0,1.0,-1.0,-1.0,2.0,2.0,-2.0,-1.0,0.78759765625,0.06787109375,0.060546875,2.9268292682926833,-2.25609756097561,-0.48780487804878053
16_11_15_846,0.0,1.0,-1.0,-3.0,-4.0,-6.0,2.0,-5.0,0.96630859375,0.0947265625,0.15087890625,-0.6707317073170732,-1.1585365853658538,0.7926829268292683
16_11_15_846,-1.0,-2.0,-1.0,0.0,1.0,2.0,-4.0,4.0,0.9638671875,0.10107421875,0.14697265625,0.12195121951219513,-1.0365853658536586,0.5487804878048781
16_11_15_846,2.0,1.0,-2.0,-4.0,-4.0,-3.0,0.0,-1.0,0.96630859375,0.09716796875,0.150390625,0.6707317073170732,-1.0975609756097562,0.3658536585365854
16_11_15_846,1.0,1.0,-1.0,-2.0,3.0,5.0,-3.0,-1.0,0.96240234375,0.09375,0.1435546875,0.3658536585365854,-1.0365853658536586,0.1829268292682927
16_11_15_886,0.0,-3.0,-2.0,-6.0,-6.0,-4.0,0.0,-6.0,1.541015625,0.390625,0.61279296875,-5.060975609756098,1.0975609756097562,1.4634146341463417
16_11_15_886,-3.0,-1.0,-3.0,-5.0,4.0,2.0,0.0,-1.0,0.76513671875,-0.0419921875,-0.498046875,-0.853658536585366,0.30487804878048785,0.426829268292683
16_11_15_886,-1.0,-1.0,-1.0,1.0,-1.0,-5.0,2.0,-4.0,1.5224609375,0.4013671875,0.95654296875,-6.036585365853659,0.12195121951219513,1.3414634146341464
16_11_15_886,3.0,-1.0,1.0,-1.0,4.0,1.0,-1.0,1.0,0.4091796875,-0.185546875,-0.3037109375,5.365853658536586,-0.6097560975609757,-0.9146341463414634
16_11_15_886,0.0,-1.0,1.0,5.0,-9.0,-4.0,-2.0,1.0,1.138671875,0.1484375,-0.11474609375,-2.378048780487805,0.12195121951219513,1.2804878048780488
16_11_15_886,-3.0,-2.0,2.0,-1.0,1.0,-1.0,-1.0,-3.0,1.3486328125,0.3330078125,0.93408203125,-3.4756097560975614,-0.30487804878048785,0.6097560975609757
16_11_15_886,-4.0,-2.0,-2.0,-2.0,-7.0,-6.0,0.0,-2.0,1.1845703125,0.17138671875,-0.0537109375,-3.048780487804878,-0.48780487804878053,2.3170731707317076
16_11_15_886,0.0,0.0,0.0,3.0,1.0,3.0,-1.0,1.0,1.26708984375,0.2607421875,0.8388671875,-0.6707317073170732,-1.0365853658536586,0.06097560975609757
16_11_15_886,1.0,0.0,-2.0,-2.0,-4.0,-5.0,-2.0,-2.0,1.24560546875,0.26171875,-0.130859375,0.9146341463414634,-1.2804878048780488,-0.1829268292682927
16_11_15_886,-1.0,0.0,-2.0,-3.0,2.0,2.0,-3.0,-1.0,0.78759765625,0.06787109375,0.060546875,2.9268292682926833,-2.25609756097561,-0.48780487804878053
16_11_15_929,-2.0,0.0,-4.0,2.0,-1.0,-2.0,-1.0,0.0,1.05615234375,0.1005859375,-0.2041015625,-3.048780487804878,0.6707317073170732,1.524390243902439
16_11_15_929,-1.0,0.0,-3.0,-2.0,-1.0,-3.0,-2.0,1.0,1.287109375,0.28857421875,0.8828125,-2.987804878048781,0.12195121951219513,0.3658536585365854
16_11_15_929,-3.0,0.0,-1.0,-3.0,-1.0,2.0,1.0,1.0,0.3916015625,-0.22216796875,-0.6552734375,4.634146341463415,-0.3658536585365854,-0.6097560975609757
16_11_15_929,1.0,-2.0,-6.0,1.0,3.0,-2.0,-1.0,1.0,1.541015625,0.390625,0.61279296875,-5.060975609756098,1.0975609756097562,1.4634146341463417
16_11_15_929,-3.0,-3.0,0.0,3.0,-5.0,0.0,-3.0,-4.0,0.76513671875,-0.0419921875,-0.498046875,-0.853658536585366,0.30487804878048785,0.426829268292683
16_11_15_929,-1.0,-2.0,3.0,1.0,-3.0,1.0,-4.0,-1.0,1.5224609375,0.4013671875,0.95654296875,-6.036585365853659,0.12195121951219513,1.3414634146341464
16_11_15_929,-4.0,-6.0,-6.0,-1.0,-1.0,-1.0,-1.0,-3.0,0.4091796875,-0.185546875,-0.3037109375,5.365853658536586,-0.6097560975609757,-0.9146341463414634
16_11_15_929,-4.0,1.0,0.0,-5.0,-1.0,-1.0,-3.0,-1.0,1.138671875,0.1484375,-0.11474609375,-2.378048780487805,0.12195121951219513,1.2804878048780488
16_11_15_929,-4.0,-3.0,-6.0,-1.0,-4.0,-2.0,-1.0,-3.0,1.3486328125,0.3330078125,0.93408203125,-3.4756097560975614,-0.30487804878048785,0.6097560975609757
16_11_15_929,0.0,-3.0,0.0,-4.0,1.0,1.0,0.0,0.0,1.1845703125,0.17138671875,-0.0537109375,-3.048780487804878,-0.48780487804878053,2.3170731707317076
16_11_15_991,1.0,-4.0,-1.0,-2.0,1.0,3.0,-4.0,-2.0,1.05615234375,0.1005859375,-0.2041015625,-3.048780487804878,0.6707317073170732,1.524390243902439
16_11_15_991,-2.0,0.0,-4.0,2.0,-1.0,-2.0,-1.0,0.0,1.287109375,0.28857421875,0.8828125,-2.987804878048781,0.12195121951219513,0.3658536585365854
16_11_15_991,-1.0,0.0,-3.0,-2.0,-1.0,-3.0,-2.0,1.0,0.3916015625,-0.22216796875,-0.6552734375,4.634146341463415,-0.3658536585365854,-0.6097560975609757
16_11_15_991,-3.0,0.0,-1.0,-3.0,-1.0,2.0,1.0,1.0,1.541015625,0.390625,0.61279296875,-5.060975609756098,1.0975609756097562,1.4634146341463417
16_11_15_991,1.0,-2.0,-6.0,1.0,3.0,-2.0,-1.0,1.0,0.76513671875,-0.0419921875,-0.498046875,-0.853658536585366,0.30487804878048785,0.426829268292683
16_11_15_991,-3.0,-3.0,0.0,3.0,-5.0,0.0,-3.0,-4.0,1.5224609375,0.4013671875,0.95654296875,-6.036585365853659,0.12195121951219513,1.3414634146341464
16_11_15_991,-1.0,-2.0,3.0,1.0,-3.0,1.0,-4.0,-1.0,0.4091796875,-0.185546875,-0.3037109375,5.365853658536586,-0.6097560975609757,-0.9146341463414634
16_11_15_991,-4.0,-6.0,-6.0,-1.0,-1.0,-1.0,-1.0,-3.0,1.138671875,0.1484375,-0.11474609375,-2.378048780487805,0.12195121951219513,1.2804878048780488
16_11_15_991,-4.0,1.0,0.0,-5.0,-1.0,-1.0,-3.0,-1.0,1.3486328125,0.3330078125,0.93408203125,-3.4756097560975614,-0.30487804878048785,0.6097560975609757
16_11_16_041,-3.0,-2.0,1.0,0.0,2.0,1.0,0.0,-1.0,0.517578125,-0.1259765625,-0.03076171875,4.451219512195122,0.0,-0.7926829268292683
16_11_16_041,2.0,-1.0,-2.0,-5.0,1.0,-3.0,-2.0,0.0,1.05615234375,0.1005859375,-0.2041015625,-3.048780487804878,0.6707317073170732,1.524390243902439
16_11_16_041,-3.0,-3.0,-1.0,-1.0,-1.0,2.0,-4.0,2.0,1.287109375,0.28857421875,0.8828125,-2.987804878048781,0.12195121951219513,0.3658536585365854
16_11_16_041,3.0,-1.0,0.0,0.0,2.0,3.0,1.0,-3.0,0.3916015625,-0.22216796875,-0.6552734375,4.634146341463415,-0.3658536585365854,-0.6097560975609757
16_11_16_041,-1.0,1.0,2.0,3.0,1.0,3.0,-4.0,-1.0,1.541015625,0.390625,0.61279296875,-5.060975609756098,1.0975609756097562,1.4634146341463417
16_11_16_041,1.0,-4.0,-1.0,-2.0,1.0,3.0,-4.0,-2.0,0.76513671875,-0.0419921875,-0.498046875,-0.853658536585366,0.30487804878048785,0.426829268292683
16_11_16_041,-2.0,0.0,-4.0,2.0,-1.0,-2.0,-1.0,0.0,1.5224609375,0.4013671875,0.95654296875,-6.036585365853659,0.12195121951219513,1.3414634146341464
16_11_16_041,-1.0,0.0,-3.0,-2.0,-1.0,-3.0,-2.0,1.0,0.4091796875,-0.185546875,-0.3037109375,5.365853658536586,-0.6097560975609757,-0.9146341463414634
16_11_16_082,-3.0,-3.0,0.0,-5.0,4.0,4.0,-3.0,0.0,1.12353515625,0.13232421875,-0.125,-3.5975609756097566,-0.48780487804878053,1.6463414634146343
16_11_16_082,0.0,-1.0,-4.0,-4.0,4.0,1.0,3.0,1.0,0.439453125,-0.19775390625,-0.669921875,2.9268292682926833,-0.6097560975609757,-0.1829268292682927
16_11_16_082,-2.0,-1.0,-1.0,-1.0,2.0,5.0,-3.0,3.0,1.5830078125,0.4140625,0.78271484375,-5.670731707317073,0.6097560975609757,0.9756097560975611
16_11_16_082,1.0,0.0,-4.0,3.0,3.0,-2.0,0.0,-2.0,0.517578125,-0.1259765625,-0.03076171875,4.451219512195122,0.0,-0.7926829268292683
16_11_16_082,-1.0,-3.0,-1.0,-1.0,-1.0,5.0,-4.0,-2.0,1.05615234375,0.1005859375,-0.2041015625,-3.048780487804878,0.6707317073170732,1.524390243902439
16_11_16_082,0.0,1.0,0.0,-5.0,2.0,0.0,-3.0,-2.0,1.287109375,0.28857421875,0.8828125,-2.987804878048781,0.12195121951219513,0.3658536585365854
16_11_16_082,0.0,0.0,0.0,0.0,1.0,4.0,-2.0,2.0,0.3916015625,-0.22216796875,-0.6552734375,4.634146341463415,-0.3658536585365854,-0.6097560975609757
16_11_16_082,1.0,2.0,-2.0,2.0,-1.0,-3.0,1.0,-1.0,1.541015625,0.390625,0.61279296875,-5.060975609756098,1.0975609756097562,1.4634146341463417
16_11_16_082,-1.0,-4.0,-3.0,0.0,0.0,4.0,-4.0,0.0,0.76513671875,-0.0419921875,-0.498046875,-0.853658536585366,0.30487804878048785,0.426829268292683
16_11_16_082,-3.0,1.0,0.0,1.0,-1.0,-2.0,-2.0,0.0,1.5224609375,0.4013671875,0.95654296875,-6.036585365853659,0.12195121951219513,1.3414634146341464
16_11_16_147,-3.0,-1.0,1.0,4.0,3.0,-1.0,-2.0,3.0,0.404296875,-0.21435546875,-0.6611328125,2.0121951219512195,-0.426829268292683,0.6707317073170732
16_11_16_147,2.0,0.0,0.0,-1.0,0.0,-4.0,0.0,-4.0,1.57861328125,0.41650390625,0.74365234375,-6.219512195121951,-0.12195121951219513,1.2804878048780488
16_11_16_147,-1.0,-3.0,-1.0,3.0,3.0,1.0,-2.0,1.0,1.12353515625,0.13232421875,-0.125,-3.5975609756097566,-0.48780487804878053,1.6463414634146343
16_11_16_147,-3.0,3.0,-3.0,-7.0,1.0,-5.0,1.0,-1.0,0.439453125,-0.19775390625,-0.669921875,2.9268292682926833,-0.6097560975609757,-0.1829268292682927
16_11_16_147,0.0,-2.0,-2.0,-4.0,2.0,3.0,-3.0,-3.0,1.5830078125,0.4140625,0.78271484375,-5.670731707317073,0.6097560975609757,0.9756097560975611
16_11_16_147,1.0,1.0,-1.0,-3.0,-1.0,-3.0,1.0,1.0,0.517578125,-0.1259765625,-0.03076171875,4.451219512195122,0.0,-0.7926829268292683
16_11_16_147,0.0,-1.0,0.0,2.0,3.0,2.0,-4.0,-4.0,1.05615234375,0.1005859375,-0.2041015625,-3.048780487804878,0.6707317073170732,1.524390243902439
16_11_16_147,5.0,6.0,2.0,2.0,-3.0,-1.0,0.0,-5.0,1.287109375,0.28857421875,0.8828125,-2.987804878048781,0.12195121951219513,0.3658536585365854
16_11_16_147,1.0,-4.0,-2.0,2.0,0.0,2.0,-2.0,0.0,0.3916015625,-0.22216796875,-0.6552734375,4.634146341463415,-0.3658536585365854,-0.6097560975609757
16_11_16_147,3.0,4.0,4.0,0.0,2.0,4.0,0.0,-2.0,1.541015625,0.390625,0.61279296875,-5.060975609756098,1.0975609756097562,1.4634146341463417
16_11_16_186,2.0,0.0,-1.0,1.0,0.0,3.0,2.0,2.0,1.46533203125,0.353515625,0.43798828125,-6.585365853658537,-0.3658536585365854,1.5853658536585367
16_11_16_186,-1.0,-2.0,-3.0,1.0,-5.0,-4.0,0.0,-2.0,0.71240234375,-0.00830078125,0.2822265625,3.1097560975609757,-1.0975609756097562,-0.9756097560975611
16_11_16_186,-3.0,-1.0,0.0,0.0,2.0,1.0,-1.0,2.0,0.404296875,-0.21435546875,-0.6611328125,2.0121951219512195,-0.426829268292683,0.6707317073170732
16_11_16_186,-2.0,0.0,-5.0,-5.0,0.0,-7.0,0.0,-1.0,1.57861328125,0.41650390625,0.74365234375,-6.219512195121951,-0.12195121951219513,1.2804878048780488
16_11_16_186,-1.0,-3.0,-2.0,-3.0,5.0,4.0,0.0,0.0,1.12353515625,0.13232421875,-0.125,-3.5975609756097566,-0.48780487804878053,1.6463414634146343
16_11_16_186,3.0,1.0,-4.0,-3.0,-2.0,-6.0,1.0,-3.0,0.439453125,-0.19775390625,-0.669921875,2.9268292682926833,-0.6097560975609757,-0.1829268292682927
16_11_16_186,-1.0,2.0,1.0,0.0,0.0,1.0,-4.0,2.0,1.5830078125,0.4140625,0.78271484375,-5.670731707317073,0.6097560975609757,0.9756097560975611
16_11_16_186,1.0,-2.0,-3.0,1.0,-4.0,-6.0,3.0,-4.0,0.517578125,-0.1259765625,-0.03076171875,4.451219512195122,0.0,-0.7926829268292683
16_11_16_186,-1.0,0.0,1.0,1.0,3.0,0.0,-3.0,-1.0,1.05615234375,0.1005859375,-0.2041015625,-3.048780487804878,0.6707317073170732,1.524390243902439
16_11_16_186,-1.0,2.0,-5.0,-1.0,1.0,-5.0,3.0,-2.0,1.287109375,0.28857421875,0.8828125,-2.987804878048781,0.12195121951219513,0.3658536585365854
16_11_16_234,-4.0,1.0,-1.0,2.0,3.0,3.0,-3.0,-1.0,1.5517578125,0.40576171875,0.939453125,-6.341463414634147,-0.3658536585365854,0.6097560975609757
16_11_16_234,-1.0,3.0,-2.0,0.0,-1.0,-7.0,2.0,-2.0,0.357421875,-0.22412109375,-0.4736328125,2.6219512195121952,-1.0365853658536586,-0.9756097560975611
16_11_16_234,0.0,-1.0,1.0,-3.0,0.0,-1.0,-1.0,2.0,1.46533203125,0.353515625,0.43798828125,-6.585365853658537,-0.3658536585365854,1.5853658536585367
16_11_16_234,2.0,-3.0,-1.0,-5.0,-7.0,-5.0,1.0,-3.0,0.71240234375,-0.00830078125,0.2822265625,3.1097560975609757,-1.0975609756097562,-0.9756097560975611
16_11_16_234,-2.0,-1.0,-1.0,0.0,2.0,2.0,-3.0,-3.0,0.404296875,-0.21435546875,-0.6611328125,2.0121951219512195,-0.426829268292683,0.6707317073170732
16_11_16_234,-2.0,-2.0,0.0,1.0,-1.0,-5.0,4.0,-4.0,1.57861328125,0.41650390625,0.74365234375,-6.219512195121951,-0.12195121951219513,1.2804878048780488
16_11_16_234,2.0,0.0,-1.0,1.0,0.0,3.0,2.0,2.0,1.12353515625,0.13232421875,-0.125,-3.5975609756097566,-0.48780487804878053,1.6463414634146343
16_11_16_234,-1.0,-2.0,-3.0,1.0,-5.0,-4.0,0.0,-2.0,0.439453125,-0.19775390625,-0.669921875,2.9268292682926833,-0.6097560975609757,-0.1829268292682927
16_11_16_234,-3.0,-1.0,0.0,0.0,2.0,1.0,-1.0,2.0,1.5830078125,0.4140625,0.78271484375,-5.670731707317073,0.6097560975609757,0.9756097560975611
16_11_16_234,-2.0,0.0,-5.0,-5.0,0.0,-7.0,0.0,-1.0,0.517578125,-0.1259765625,-0.03076171875,4.451219512195122,0.0,-0.7926829268292683
16_11_16_292,-1.0,-3.0,-3.0,1.0,4.0,1.0,-2.0,-2.0,1.5517578125,0.40576171875,0.939453125,-6.341463414634147,-0.3658536585365854,0.6097560975609757
16_11_16_292,-1.0,-1.0,-1.0,4.0,-5.0,-6.0,4.0,-4.0,0.357421875,-0.22412109375,-0.4736328125,2.6219512195121952,-1.0365853658536586,-0.9756097560975611
16_11_16_292,-4.0,1.0,-1.0,2.0,3.0,3.0,-3.0,-1.0,1.46533203125,0.353515625,0.43798828125,-6.585365853658537,-0.3658536585365854,1.5853658536585367
16_11_16_292,-1.0,3.0,-2.0,0.0,-1.0,-7.0,2.0,-2.0,0.71240234375,-0.00830078125,0.2822265625,3.1097560975609757,-1.0975609756097562,-0.9756097560975611
16_11_16_292,0.0,-1.0,1.0,-3.0,0.0,-1.0,-1.0,2.0,0.404296875,-0.21435546875,-0.6611328125,2.0121951219512195,-0.426829268292683,0.6707317073170732
16_11_16_292,2.0,-3.0,-1.0,-5.0,-7.0,-5.0,1.0,-3.0,1.57861328125,0.41650390625,0.74365234375,-6.219512195121951,-0.12195121951219513,1.2804878048780488
16_11_16_292,-2.0,-1.0,-1.0,0.0,2.0,2.0,-3.0,-3.0,1.12353515625,0.13232421875,-0.125,-3.5975609756097566,-0.48780487804878053,1.6463414634146343
16_11_16_292,-2.0,-2.0,0.0,1.0,-1.0,-5.0,4.0,-4.0,0.439453125,-0.19775390625,-0.669921875,2.9268292682926833,-0.6097560975609757,-0.1829268292682927
16_11_16_292,2.0,0.0,-1.0,1.0,0.0,3.0,2.0,2.0,1.5830078125,0.4140625,0.78271484375,-5.670731707317073,0.6097560975609757,0.9756097560975611
16_11_16_292,-1.0,-2.0,-3.0,1.0,-5.0,-4.0,0.0,-2.0,0.517578125,-0.1259765625,-0.03076171875,4.451219512195122,0.0,-0.7926829268292683
16_11_16_332,2.0,0.0,1.0,-4.0,1.0,4.0,-3.0,-2.0,0.35888671875,-0.23193359375,-0.615234375,4.939024390243903,-1.2804878048780488,-0.24390243902439027
16_11_16_332,-1.0,-1.0,-2.0,-2.0,0.0,3.0,-1.0,-1.0,1.1416015625,0.2119140625,0.7666015625,-1.0365853658536586,-0.9756097560975611,-0.5487804878048781
16_11_16_332,-1.0,-2.0,-2.0,2.0,-1.0,0.0,1.0,-1.0,0.556640625,-0.1435546875,-0.630859375,1.7682926829268295,-0.9756097560975611,-0.853658536585366
16_11_16_332,-2.0,-1.0,-5.0,1.0,-1.0,2.0,-5.0,-2.0,1.5517578125,0.40576171875,0.939453125,-6.341463414634147,-0.3658536585365854,0.6097560975609757
16_11_16_332,-2.0,2.0,0.0,-1.0,1.0,0.0,-2.0,1.0,0.357421875,-0.22412109375,-0.4736328125,2.6219512195121952,-1.0365853658536586,-0.9756097560975611
16_11_16_332,-3.0,-1.0,-1.0,-1.0,-1.0,1.0,-4.0,1.0,1.46533203125,0.353515625,0.43798828125,-6.585365853658537,-0.3658536585365854,1.5853658536585367
16_11_16_332,1.0,-3.0,0.0,-2.0,1.0,-3.0,-2.0,1.0,0.71240234375,-0.00830078125,0.2822265625,3.1097560975609757,-1.0975609756097562,-0.9756097560975611
16_11_16_332,-2.0,-3.0,-3.0,1.0,-9.0,-7.0,-5.0,-2.0,0.404296875,-0.21435546875,-0.6611328125,2.0121951219512195,-0.426829268292683,0.6707317073170732
16_11_16_332,-1.0,-3.0,0.0,0.0,2.0,3.0,0.0,0.0,1.57861328125,0.41650390625,0.74365234375,-6.219512195121951,-0.12195121951219513,1.2804878048780488
16_11_16_332,-1.0,1.0,-1.0,1.0,-7.0,-2.0,-1.0,-7.0,1.12353515625,0.13232421875,-0.125,-3.5975609756097566,-0.48780487804878053,1.6463414634146343
16_11_16_401,0.0,-1.0,0.0,-1.0,-2.0,-2.0,-6.0,-6.0,0.66162109375,-0.08837890625,-0.5634765625,0.06097560975609757,-1.3414634146341464,0.6707317073170732
16_11_16_401,1.0,-1.0,2.0,-2.0,-1.0,1.0,-3.0,1.0,1.4755859375,0.37060546875,0.958984375,-4.2682926829268295,-0.6097560975609757,0.426829268292683
16_11_16_401,-1.0,-1.0,2.0,-4.0,1.0,-1.0,0.0,1.0,0.35888671875,-0.23193359375,-0.615234375,4.939024390243903,-1.2804878048780488,-0.24390243902439027
16_11_16_401,-2.0,-3.0,-2.0,-3.0,3.0,3.0,-3.0,1.0,1.1416015625,0.2119140625,0.7666015625,-1.0365853658536586,-0.9756097560975611,-0.5487804878048781
16_11_16_401,0.0,0.0,2.0,0.0,1.0,-1.0,-3.0,-2.0,0.556640625,-0.1435546875,-0.630859375,1.7682926829268295,-0.9756097560975611,-0.853658536585366
16_11_16_401,-1.0,2.0,0.0,-2.0,0.0,6.0,-5.0,0.0,1.5517578125,0.40576171875,0.939453125,-6.341463414634147,-0.3658536585365854,0.6097560975609757
16_11_16_401,-2.0,1.0,-4.0,2.0,-1.0,-2.0,1.0,1.0,0.357421875,-0.22412109375,-0.4736328125,2.6219512195121952,-1.0365853658536586,-0.9756097560975611
16_11_16_401,-2.0,-2.0,-1.0,2.0,0.0,2.0,-3.0,-1.0,1.46533203125,0.353515625,0.43798828125,-6.585365853658537,-0.3658536585365854,1.5853658536585367
16_11_16_401,0.0,-1.0,-3.0,-2.0,0.0,-1.0,-1.0,-1.0,0.71240234375,-0.00830078125,0.2822265625,3.1097560975609757,-1.0975609756097562,-0.9756097560975611
16_11_16_401,2.0,0.0,1.0,-2.0,5.0,1.0,-1.0,2.0,0.404296875,-0.21435546875,-0.6611328125,2.0121951219512195,-0.426829268292683,0.6707317073170732
16_11_16_450,0.0,0.0,3.0,1.0,1.0,-5.0,0.0,-2.0,1.58056640625,0.41748046875,0.802734375,-5.975609756097562,-0.3658536585365854,1.7682926829268295
16_11_16_450,-5.0,2.0,-1.0,3.0,2.0,4.0,-4.0,1.0,0.451171875,-0.1630859375,-0.1923828125,4.634146341463415,-0.9146341463414634,-1.2804878048780488
16_11_16_450,1.0,2.0,-1.0,-6.0,-2.0,-8.0,2.0,-3.0,1.26416015625,0.23388671875,0.09765625,-4.329268292682928,-0.9756097560975611,1.8902439024390245
16_11_16_450,0.0,1.0,0.0,-5.0,0.0,1.0,-2.0,2.0,0.97509765625,0.1162109375,0.61279296875,0.1829268292682927,-1.5853658536585367,-0.3658536585365854
16_11_16_450,1.0,2.0,2.0,-3.0,-2.0,-7.0,1.0,-3.0,0.66162109375,-0.08837890625,-0.5634765625,0.06097560975609757,-1.3414634146341464,0.6707317073170732
16_11_16_450,0.0,-3.0,0.0,-1.0,3.0,3.0,-2.0,-1.0,1.4755859375,0.37060546875,0.958984375,-4.2682926829268295,-0.6097560975609757,0.426829268292683
16_11_16_450,3.0,1.0,1.0,2.0,-4.0,-3.0,2.0,0.0,0.35888671875,-0.23193359375,-0.615234375,4.939024390243903,-1.2804878048780488,-0.24390243902439027
16_11_16_450,-2.0,-3.0,2.0,3.0,3.0,6.0,1.0,2.0,1.1416015625,0.2119140625,0.7666015625,-1.0365853658536586,-0.9756097560975611,-0.5487804878048781
16_11_16_450,3.0,5.0,4.0,1.0,4.0,1.0,1.0,3.0,0.556640625,-0.1435546875,-0.630859375,1.7682926829268295,-0.9756097560975611,-0.853658536585366
16_11_16_450,1.0,1.0,-3.0,0.0,0.0,5.0,-3.0,3.0,1.5517578125,0.40576171875,0.939453125,-6.341463414634147,-0.3658536585365854,0.6097560975609757
16_11_16_502,-1.0,0.0,2.0,0.0,-4.0,-4.0,0.0,-5.0,1.58056640625,0.41748046875,0.802734375,-5.975609756097562,-0.3658536585365854,1.7682926829268295
16_11_16_502,-4.0,-4.0,-1.0,4.0,-2.0,4.0,-3.0,-2.0,0.451171875,-0.1630859375,-0.1923828125,4.634146341463415,-0.9146341463414634,-1.2804878048780488
16_11_16_502,0.0,0.0,3.0,1.0,1.0,-5.0,0.0,-2.0,1.26416015625,0.23388671875,0.09765625,-4.329268292682928,-0.9756097560975611,1.8902439024390245
16_11_16_502,-5.0,2.0,-1.0,3.0,2.0,4.0,-4.0,1.0,0.97509765625,0.1162109375,0.61279296875,0.1829268292682927,-1.5853658536585367,-0.3658536585365854
16_11_16_502,1.0,2.0,-1.0,-6.0,-2.0,-8.0,2.0,-3.0,0.66162109375,-0.08837890625,-0.5634765625,0.06097560975609757,-1.3414634146341464,0.6707317073170732
16_11_16_502,0.0,1.0,0.0,-5.0,0.0,1.0,-2.0,2.0,1.4755859375,0.37060546875,0.958984375,-4.2682926829268295,-0.6097560975609757,0.426829268292683
16_11_16_502,1.0,2.0,2.0,-3.0,-2.0,-7.0,1.0,-3.0,0.35888671875,-0.23193359375,-0.615234375,4.939024390243903,-1.2804878048780488,-0.24390243902439027
16_11_16_502,0.0,-3.0,0.0,-1.0,3.0,3.0,-2.0,-1.0,1.1416015625,0.2119140625,0.7666015625,-1.0365853658536586,-0.9756097560975611,-0.5487804878048781
16_11_16_502,3.0,1.0,1.0,2.0,-4.0,-3.0,2.0,0.0,0.556640625,-0.1435546875,-0.630859375,1.7682926829268295,-0.9756097560975611,-0.853658536585366
16_11_16_502,-2.0,-3.0,2.0,3.0,3.0,6.0,1.0,2.0,1.5517578125,0.40576171875,0.939453125,-6.341463414634147,-0.3658536585365854,0.6097560975609757
16_11_16_556,1.0,0.0,1.0,-4.0,-6.0,-7.0,0.0,-4.0,0.80712890625,-0.0048828125,-0.44677734375,0.0,-0.853658536585366,1.2804878048780488
16_11_16_556,0.0,-1.0,-1.0,-1.0,1.0,6.0,-2.0,0.0,1.38671875,0.3359375,0.93701171875,-2.25609756097561,-0.6097560975609757,0.5487804878048781
16_11_16_556,0.0,-3.0,2.0,-2.0,-4.0,-5.0,0.0,-3.0,0.38916015625,-0.22265625,-0.64404296875,4.634146341463415,-1.2195121951219514,0.6707317073170732
16_11_16_556,-4.0,-1.0,-3.0,-1.0,-1.0,1.0,2.0,2.0,1.58056640625,0.41748046875,0.802734375,-5.975609756097562,-0.3658536585365854,1.7682926829268295
16_11_16_556,-1.0,0.0,-4.0,4.0,-3.0,-3.0,4.0,-2.0,0.451171875,-0.1630859375,-0.1923828125,4.634146341463415,-0.9146341463414634,-1.2804878048780488
16_11_16_556,3.0,1.0,0.0,-3.0,-2.0,0.0,-3.0,1.0,1.26416015625,0.23388671875,0.09765625,-4.329268292682928,-0.9756097560975611,1.8902439024390245
16_11_16_556,-3.0,2.0,-1.0,-5.0,-4.0,-9.0,-2.0,-2.0,0.97509765625,0.1162109375,0.61279296875,0.1829268292682927,-1.5853658536585367,-0.3658536585365854
16_11_16_556,-2.0,-2.0,-2.0,-2.0,-2.0,4.0,-3.0,-2.0,0.66162109375,-0.08837890625,-0.5634765625,0.06097560975609757,-1.3414634146341464,0.6707317073170732
16_11_16_556,-1.0,2.0,-1.0,-5.0,-5.0,-7.0,1.0,-1.0,1.4755859375,0.37060546875,0.958984375,-4.2682926829268295,-0.6097560975609757,0.426829268292683
16_11_16_556,-1.0,-6.0,-1.0,-1.0,6.0,2.0,-2.0,3.0,0.35888671875,-0.23193359375,-0.615234375,4.939024390243903,-1.2804878048780488,-0.24390243902439027
16_11_16_591,-2.0,-1.0,-2.0,4.0,0.0,-2.0,0.0,-2.0,0.4150390625,-0.19091796875,-0.29443359375,5.853658536585367,-0.6097560975609757,-1.1585365853658538
16_11_16_591,-3.0,0.0,2.0,1.0,0.0,3.0,3.0,1.0,1.34716796875,0.27734375,0.2177734375,-3.8414634146341466,0.0,1.7682926829268295
16_11_16_591,-1.0,-3.0,2.0,0.0,-6.0,-6.0,2.0,-4.0,0.80712890625,-0.0048828125,-0.44677734375,0.0,-0.853658536585366,1.2804878048780488
16_11_16_591,-3.0,0.0,-4.0,-4.0,0.0,-2.0,-3.0,2.0,1.38671875,0.3359375,0.93701171875,-2.25609756097561,-0.6097560975609757,0.5487804878048781
16_11_16_591,1.0,0.0,1.0,-4.0,-6.0,-7.0,0.0,-4.0,0.38916015625,-0.22265625,-0.64404296875,4.634146341463415,-1.2195121951219514,0.6707317073170732
16_11_16_591,0.0,-1.0,-1.0,-1.0,1.0,6.0,-2.0,0.0,1.58056640625,0.41748046875,0.802734375,-5.975609756097562,-0.3658536585365854,1.7682926829268295
16_11_16_591,0.0,-3.0,2.0,-2.0,-4.0,-5.0,0.0,-3.0,0.451171875,-0.1630859375,-0.1923828125,4.634146341463415,-0.9146341463414634,-1.2804878048780488
16_11_16_591,-4.0,-1.0,-3.0,-1.0,-1.0,1.0,2.0,2.0,1.26416015625,0.23388671875,0.09765625,-4.329268292682928,-0.9756097560975611,1.8902439024390245
16_11_16_591,-1.0,0.0,-4.0,4.0,-3.0,-3.0,4.0,-2.0,0.97509765625,0.1162109375,0.61279296875,0.1829268292682927,-1.5853658536585367,-0.3658536585365854
16_11_16_591,3.0,1.0,0.0,-3.0,-2.0,0.0,-3.0,1.0,0.66162109375,-0.08837890625,-0.5634765625,0.06097560975609757,-1.3414634146341464,0.6707317073170732
16_11_16_655,-3.0,1.0,-3.0,0.0,-5.0,-4.0,2.0,-5.0,0.4150390625,-0.19091796875,-0.29443359375,5.853658536585367,-0.6097560975609757,-1.1585365853658538
16_11_16_655,0.0,-3.0,-1.0,-4.0,2.0,2.0,0.0,2.0,1.34716796875,0.27734375,0.2177734375,-3.8414634146341466,0.0,1.7682926829268295
16_11_16_655,-1.0,2.0,-4.0,-3.0,-4.0,-4.0,3.0,-5.0,0.80712890625,-0.0048828125,-0.44677734375,0.0,-0.853658536585366,1.2804878048780488
16_11_16_655,1.0,1.0,-2.0,-3.0,-2.0,2.0,-1.0,0.0,1.38671875,0.3359375,0.93701171875,-2.25609756097561,-0.6097560975609757,0.5487804878048781
16_11_16_655,-2.0,-1.0,-2.0,4.0,0.0,-2.0,0.0,-2.0,0.38916015625,-0.22265625,-0.64404296875,4.634146341463415,-1.2195121951219514,0.6707317073170732
16_11_16_655,-3.0,0.0,2.0,1.0,0.0,3.0,3.0,1.0,1.58056640625,0.41748046875,0.802734375,-5.975609756097562,-0.3658536585365854,1.7682926829268295
16_11_16_655,-1.0,-3.0,2.0,0.0,-6.0,-6.0,2.0,-4.0,0.451171875,-0.1630859375,-0.1923828125,4.634146341463415,-0.9146341463414634,-1.2804878048780488
16_11_16_655,-3.0,0.0,-4.0,-4.0,0.0,-2.0,-3.0,2.0,1.26416015625,0.23388671875,0.09765625,-4.329268292682928,-0.9756097560975611,1.8902439024390245
16_11_16_655,1.0,0.0,1.0,-4.0,-6.0,-7.0,0.0,-4.0,0.97509765625,0.1162109375,0.61279296875,0.1829268292682927,-1.5853658536585367,-0.3658536585365854
16_11_16_655,0.0,-1.0,-1.0,-1.0,1.0,6.0,-2.0,0.0,0.66162109375,-0.08837890625,-0.5634765625,0.06097560975609757,-1.3414634146341464,0.6707317073170732
16_11_16_690,2.0,0.0,2.0,-1.0,3.0,3.0,-6.0,1.0,0.4306640625,-0.1787109375,-0.24560546875,5.487804878048781,-0.5487804878048781,-0.1829268292682927
16_11_16_690,1.0,-2.0,-2.0,2.0,-2.0,-2.0,-3.0,0.0,1.33447265625,0.27490234375,0.20166015625,-3.9024390243902443,0.24390243902439027,1.5853658536585367
16_11_16_690,-1.0,-4.0,-2.0,3.0,1.0,4.0,-3.0,-1.0,0.837890625,0.0458984375,0.43798828125,3.414634146341464,0.1829268292682927,-1.402439024390244
16_11_16_690,-3.0,0.0,-2.0,-1.0,-3.0,-2.0,0.0,-3.0,0.4267578125,-0.1953125,-0.6708984375,4.329268292682928,-0.24390243902439027,0.24390243902439027
16_11_16_690,-1.0,0.0,-2.0,-3.0,-1.0,2.0,1.0,1.0,1.58642578125,0.42724609375,0.86181640625,-4.573170731707317,0.06097560975609757,1.5853658536585367
16_11_16_690,0.0,-4.0,-2.0,2.0,-1.0,-2.0,-2.0,1.0,0.4150390625,-0.19091796875,-0.29443359375,5.853658536585367,-0.6097560975609757,-1.1585365853658538
16_11_16_690,-2.0,-1.0,0.0,4.0,-1.0,-5.0,-3.0,-4.0,1.34716796875,0.27734375,0.2177734375,-3.8414634146341466,0.0,1.7682926829268295
16_11_16_690,-1.0,-5.0,1.0,2.0,3.0,4.0,-1.0,-1.0,0.80712890625,-0.0048828125,-0.44677734375,0.0,-0.853658536585366,1.2804878048780488
16_11_16_690,0.0,6.0,-5.0,-3.0,-5.0,-3.0,-2.0,-3.0,1.38671875,0.3359375,0.93701171875,-2.25609756097561,-0.6097560975609757,0.5487804878048781
16_11_16_690,-2.0,0.0,3.0,-4.0,4.0,2.0,-2.0,1.0,0.38916015625,-0.22265625,-0.64404296875,4.634146341463415,-1.2195121951219514,0.6707317073170732
16_11_16_746,0.0,3.0,-4.0,3.0,-1.0,2.0,-5.0,-2.0,1.58544921875,0.4189453125,0.80615234375,-4.329268292682928,0.426829268292683,0.853658536585366
16_11_16_746,0.0,0.0,0.0,-6.0,-2.0,-1.0,1.0,-2.0,0.4306640625,-0.1787109375,-0.24560546875,5.487804878048781,-0.5487804878048781,-0.1829268292682927
16_11_16_746,-4.0,-1.0,-2.0,-1.0,-2.0,5.0,-3.0,1.0,1.33447265625,0.27490234375,0.20166015625,-3.9024390243902443,0.24390243902439027,1.5853658536585367
16_11_16_746,-2.0,-5.0,0.0,0.0,-2.0,-1.0,-3.0,-2.0,0.837890625,0.0458984375,0.43798828125,3.414634146341464,0.1829268292682927,-1.402439024390244
16_11_16_746,2.0,0.0,2.0,-1.0,3.0,3.0,-6.0,1.0,0.4267578125,-0.1953125,-0.6708984375,4.329268292682928,-0.24390243902439027,0.24390243902439027
16_11_16_746,1.0,-2.0,-2.0,2.0,-2.0,-2.0,-3.0,0.0,1.58642578125,0.42724609375,0.86181640625,-4.573170731707317,0.06097560975609757,1.5853658536585367
16_11_16_746,-1.0,-4.0,-2.0,3.0,1.0,4.0,-3.0,-1.0,0.4150390625,-0.19091796875,-0.29443359375,5.853658536585367,-0.6097560975609757,-1.1585365853658538
16_11_16_746,-3.0,0.0,-2.0,-1.0,-3.0,-2.0,0.0,-3.0,1.34716796875,0.27734375,0.2177734375,-3.8414634146341466,0.0,1.7682926829268295
16_11_16_746,-1.0,0.0,-2.0,-3.0,-1.0,2.0,1.0,1.0,0.80712890625,-0.0048828125,-0.44677734375,0.0,-0.853658536585366,1.2804878048780488
16_11_16_746,0.0,-4.0,-2.0,2.0,-1.0,-2.0,-2.0,1.0,1.38671875,0.3359375,0.93701171875,-2.25609756097561,-0.6097560975609757,0.5487804878048781
16_11_16_824,-4.0,-1.0,-2.0,-1.0,-2.0,5.0,-3.0,1.0,0.4267578125,-0.1953125,-0.6708984375,4.329268292682928,-0.24390243902439027,0.24390243902439027
16_11_16_824,-2.0,-5.0,0.0,0.0,-2.0,-1.0,-3.0,-2.0,1.58642578125,0.42724609375,0.86181640625,-4.573170731707317,0.06097560975609757,1.5853658536585367
16_11_16_824,2.0,0.0,2.0,-1.0,3.0,3.0,-6.0,1.0,0.4150390625,-0.19091796875,-0.29443359375,5.853658536585367,-0.6097560975609757,-1.1585365853658538
16_11_16_824,1.0,-2.0,-2.0,2.0,-2.0,-2.0,-3.0,0.0,1.34716796875,0.27734375,0.2177734375,-3.8414634146341466,0.0,1.7682926829268295
16_11_16_824,-1.0,-4.0,-2.0,3.0,1.0,4.0,-3.0,-1.0,0.80712890625,-0.0048828125,-0.44677734375,0.0,-0.853658536585366,1.2804878048780488
16_11_16_824,-3.0,0.0,-2.0,-1.0,-3.0,-2.0,0.0,-3.0,1.38671875,0.3359375,0.93701171875,-2.25609756097561,-0.6097560975609757,0.5487804878048781
16_11_16_864,0.0,0.0,-2.0,-3.0,1.0,-3.0,-3.0,-2.0,0.4248046875,-0.18017578125,-0.2578125,5.670731707317073,-0.3658536585365854,-1.5853658536585367
16_11_16_864,1.0,1.0,0.0,0.0,1.0,-1.0,2.0,-2.0,1.43359375,0.36474609375,0.94482421875,-1.829268292682927,0.06097560975609757,-0.426829268292683
16_11_16_864,0.0,0.0,-2.0,-5.0,-3.0,-6.0,-2.0,-1.0,0.37646484375,-0.22265625,-0.65966796875,5.853658536585367,-0.30487804878048785,-1.3414634146341464
16_11_16_864,-2.0,0.0,0.0,-1.0,1.0,0.0,-2.0,2.0,1.58544921875,0.4189453125,0.80615234375,-4.329268292682928,0.426829268292683,0.853658536585366
16_11_16_864,1.0,-1.0,0.0,0.0,-1.0,-7.0,3.0,-4.0,0.4306640625,-0.1787109375,-0.24560546875,5.487804878048781,-0.5487804878048781,-0.1829268292682927
16_11_16_864,2.0,-3.0,-1.0,6.0,1.0,4.0,-1.0,2.0,1.33447265625,0.27490234375,0.20166015625,-3.9024390243902443,0.24390243902439027,1.5853658536585367
16_11_16_864,1.0,1.0,-4.0,0.0,-5.0,-4.0,-1.0,-4.0,0.837890625,0.0458984375,0.43798828125,3.414634146341464,0.1829268292682927,-1.402439024390244
16_11_16_864,-2.0,1.0,-2.0,-1.0,3.0,4.0,1.0,-3.0,0.4267578125,-0.1953125,-0.6708984375,4.329268292682928,-0.24390243902439027,0.24390243902439027
16_11_16_864,0.0,1.0,-3.0,1.0,-1.0,0.0,0.0,-1.0,1.58642578125,0.42724609375,0.86181640625,-4.573170731707317,0.06097560975609757,1.5853658536585367
16_11_16_918,-2.0,0.0,-1.0,2.0,-3.0,-1.0,-1.0,0.0,0.89208984375,0.10693359375,0.083984375,6.52439024390244,-0.7926829268292683,-1.2804878048780488
16_11_16_918,-2.0,-3.0,-3.0,2.0,-2.0,0.0,3.0,-5.0,1.3779296875,0.36181640625,0.31298828125,-1.707317073170732,-0.24390243902439027,-1.1585365853658538
16_11_16_918,0.0,-1.0,-3.0,-1.0,0.0,1.0,1.0,-1.0,0.4248046875,-0.18017578125,-0.2578125,5.670731707317073,-0.3658536585365854,-1.5853658536585367
16_11_16_918,1.0,-2.0,1.0,1.0,0.0,-2.0,-3.0,-1.0,1.43359375,0.36474609375,0.94482421875,-1.829268292682927,0.06097560975609757,-0.426829268292683
16_11_16_918,-1.0,-4.0,0.0,0.0,-3.0,0.0,-3.0,1.0,0.37646484375,-0.22265625,-0.65966796875,5.853658536585367,-0.30487804878048785,-1.3414634146341464
16_11_16_918,0.0,0.0,-2.0,-3.0,1.0,-3.0,-3.0,-2.0,1.58544921875,0.4189453125,0.80615234375,-4.329268292682928,0.426829268292683,0.853658536585366
16_11_16_918,1.0,1.0,0.0,0.0,1.0,-1.0,2.0,-2.0,0.4306640625,-0.1787109375,-0.24560546875,5.487804878048781,-0.5487804878048781,-0.1829268292682927
16_11_16_918,0.0,0.0,-2.0,-5.0,-3.0,-6.0,-2.0,-1.0,1.33447265625,0.27490234375,0.20166015625,-3.9024390243902443,0.24390243902439027,1.5853658536585367
16_11_16_918,-2.0,0.0,0.0,-1.0,1.0,0.0,-2.0,2.0,0.837890625,0.0458984375,0.43798828125,3.414634146341464,0.1829268292682927,-1.402439024390244
16_11_16_918,1.0,-1.0,0.0,0.0,-1.0,-7.0,3.0,-4.0,0.4267578125,-0.1953125,-0.6708984375,4.329268292682928,-0.24390243902439027,0.24390243902439027
16_11_16_976,-1.0,-1.0,0.0,2.0,-4.0,-2.0,-3.0,2.0,0.96240234375,0.1064453125,0.1533203125,-0.5487804878048781,0.48780487804878053,-1.1585365853658538
16_11_16_976,-1.0,1.0,-2.0,-1.0,-2.0,2.0,2.0,-2.0,0.9638671875,0.1044921875,0.15087890625,0.426829268292683,0.6097560975609757,-1.402439024390244
16_11_16_976,-2.0,-1.0,0.0,-1.0,0.0,-1.0,-1.0,0.0,0.99462890625,0.103515625,0.16162109375,-0.3658536585365854,2.1341463414634148,-1.8902439024390245
16_11_16_976,-2.0,-2.0,0.0,0.0,2.0,-2.0,0.0,-4.0,0.89208984375,0.10693359375,0.083984375,6.52439024390244,-0.7926829268292683,-1.2804878048780488
16_11_16_976,-2.0,1.0,-1.0,2.0,1.0,-4.0,3.0,-1.0,1.3779296875,0.36181640625,0.31298828125,-1.707317073170732,-0.24390243902439027,-1.1585365853658538
16_11_16_976,-4.0,0.0,-2.0,1.0,1.0,-4.0,-1.0,-1.0,0.4248046875,-0.18017578125,-0.2578125,5.670731707317073,-0.3658536585365854,-1.5853658536585367
16_11_16_976,-1.0,-3.0,0.0,0.0,1.0,-5.0,-3.0,2.0,1.43359375,0.36474609375,0.94482421875,-1.829268292682927,0.06097560975609757,-0.426829268292683
16_11_16_976,-3.0,1.0,-3.0,1.0,-1.0,-1.0,-1.0,-2.0,0.37646484375,-0.22265625,-0.65966796875,5.853658536585367,-0.30487804878048785,-1.3414634146341464
16_11_16_976,1.0,-2.0,-2.0,2.0,1.0,1.0,0.0,-5.0,1.58544921875,0.4189453125,0.80615234375,-4.329268292682928,0.426829268292683,0.853658536585366
16_11_16_976,0.0,-2.0,1.0,-2.0,-2.0,-1.0,1.0,0.0,0.4306640625,-0.1787109375,-0.24560546875,5.487804878048781,-0.5487804878048781,-0.1829268292682927
16_11_17_017,-1.0,-2.0,0.0,-4.0,-6.0,-3.0,-3.0,0.0,0.96923828125,0.09814453125,0.15478515625,0.24390243902439027,-0.12195121951219513,-1.2195121951219514
16_11_17_017,-3.0,-2.0,-3.0,-2.0,1.0,-1.0,1.0,1.0,0.97412109375,0.095703125,0.15185546875,-0.1829268292682927,0.12195121951219513,-1.2195121951219514
16_11_17_017,-4.0,-4.0,0.0,2.0,-3.0,2.0,-2.0,0.0,0.97119140625,0.10546875,0.14990234375,-0.6707317073170732,0.3658536585365854,-1.2195121951219514
16_11_17_017,-2.0,0.0,0.0,-4.0,1.0,0.0,-1.0,-3.0,0.96240234375,0.1064453125,0.1533203125,-0.5487804878048781,0.48780487804878053,-1.1585365853658538
16_11_17_017,-4.0,1.0,1.0,2.0,1.0,-1.0,1.0,-2.0,0.9638671875,0.1044921875,0.15087890625,0.426829268292683,0.6097560975609757,-1.402439024390244
16_11_17_017,-2.0,0.0,-1.0,1.0,1.0,-1.0,-1.0,0.0,0.99462890625,0.103515625,0.16162109375,-0.3658536585365854,2.1341463414634148,-1.8902439024390245
16_11_17_017,-2.0,-4.0,-1.0,-1.0,1.0,3.0,-3.0,1.0,0.89208984375,0.10693359375,0.083984375,6.52439024390244,-0.7926829268292683,-1.2804878048780488
16_11_17_017,0.0,0.0,-4.0,-1.0,-3.0,-1.0,0.0,-1.0,1.3779296875,0.36181640625,0.31298828125,-1.707317073170732,-0.24390243902439027,-1.1585365853658538
16_11_17_017,2.0,-2.0,-3.0,-1.0,-5.0,-2.0,0.0,-3.0,0.4248046875,-0.18017578125,-0.2578125,5.670731707317073,-0.3658536585365854,-1.5853658536585367
16_11_17_017,0.0,1.0,-2.0,0.0,1.0,-1.0,0.0,-1.0,1.43359375,0.36474609375,0.94482421875,-1.829268292682927,0.06097560975609757,-0.426829268292683
16_11_17_082,-2.0,1.0,0.0,1.0,-1.0,-3.0,-5.0,1.0,0.96923828125,0.09814453125,0.15478515625,0.24390243902439027,-0.12195121951219513,-1.2195121951219514
16_11_17_082,0.0,-2.0,0.0,1.0,-1.0,-2.0,-2.0,-1.0,0.97412109375,0.095703125,0.15185546875,-0.1829268292682927,0.12195121951219513,-1.2195121951219514
16_11_17_082,-1.0,-3.0,-1.0,-2.0,-4.0,1.0,2.0,-1.0,0.97119140625,0.10546875,0.14990234375,-0.6707317073170732,0.3658536585365854,-1.2195121951219514
16_11_17_082,-1.0,-3.0,-1.0,0.0,1.0,-1.0,-2.0,0.0,0.96240234375,0.1064453125,0.1533203125,-0.5487804878048781,0.48780487804878053,-1.1585365853658538
16_11_17_082,-1.0,1.0,0.0,-3.0,0.0,-5.0,-1.0,-1.0,0.9638671875,0.1044921875,0.15087890625,0.426829268292683,0.6097560975609757,-1.402439024390244
16_11_17_082,-1.0,-2.0,0.0,-4.0,-6.0,-3.0,-3.0,0.0,0.99462890625,0.103515625,0.16162109375,-0.3658536585365854,2.1341463414634148,-1.8902439024390245
16_11_17_082,-3.0,-2.0,-3.0,-2.0,1.0,-1.0,1.0,1.0,0.89208984375,0.10693359375,0.083984375,6.52439024390244,-0.7926829268292683,-1.2804878048780488
16_11_17_082,-4.0,-4.0,0.0,2.0,-3.0,2.0,-2.0,0.0,1.3779296875,0.36181640625,0.31298828125,-1.707317073170732,-0.24390243902439027,-1.1585365853658538
16_11_17_082,-2.0,0.0,0.0,-4.0,1.0,0.0,-1.0,-3.0,0.4248046875,-0.18017578125,-0.2578125,5.670731707317073,-0.3658536585365854,-1.5853658536585367
16_11_17_133,-2.0,-1.0,3.0,-1.0,-1.0,-2.0,0.0,-1.0,0.96142578125,0.10546875,0.14990234375,-0.7926829268292683,0.30487804878048785,-1.0365853658536586
16_11_17_133,1.0,-1.0,-1.0,0.0,1.0,2.0,-2.0,-1.0,0.9638671875,0.10693359375,0.14892578125,-0.12195121951219513,0.06097560975609757,-1.1585365853658538
16_11_17_133,2.0,1.0,-2.0,-2.0,0.0,2.0,0.0,-3.0,0.96923828125,0.09814453125,0.15478515625,0.24390243902439027,-0.12195121951219513,-1.2195121951219514
16_11_17_133,-2.0,1.0,0.0,1.0,-1.0,-3.0,-5.0,1.0,0.97412109375,0.095703125,0.15185546875,-0.1829268292682927,0.12195121951219513,-1.2195121951219514
16_11_17_133,0.0,-2.0,0.0,1.0,-1.0,-2.0,-2.0,-1.0,0.97119140625,0.10546875,0.14990234375,-0.6707317073170732,0.3658536585365854,-1.2195121951219514
16_11_17_133,-1.0,-3.0,-1.0,-2.0,-4.0,1.0,2.0,-1.0,0.96240234375,0.1064453125,0.1533203125,-0.5487804878048781,0.48780487804878053,-1.1585365853658538
16_11_17_133,-1.0,-3.0,-1.0,0.0,1.0,-1.0,-2.0,0.0,0.9638671875,0.1044921875,0.15087890625,0.426829268292683,0.6097560975609757,-1.402439024390244
16_11_17_133,-1.0,1.0,0.0,-3.0,0.0,-5.0,-1.0,-1.0,0.99462890625,0.103515625,0.16162109375,-0.3658536585365854,2.1341463414634148,-1.8902439024390245
16_11_17_133,-1.0,-2.0,0.0,-4.0,-6.0,-3.0,-3.0,0.0,0.89208984375,0.10693359375,0.083984375,6.52439024390244,-0.7926829268292683,-1.2804878048780488
16_11_17_133,-3.0,-2.0,-3.0,-2.0,1.0,-1.0,1.0,1.0,1.3779296875,0.36181640625,0.31298828125,-1.707317073170732,-0.24390243902439027,-1.1585365853658538
16_11_17_174,1.0,1.0,0.0,1.0,-6.0,-4.0,1.0,-1.0,0.95654296875,0.10400390625,0.1533203125,-0.1829268292682927,0.48780487804878053,-1.2195121951219514
16_11_17_174,-1.0,-6.0,-2.0,-3.0,-2.0,-4.0,-2.0,-2.0,0.96142578125,0.10546875,0.14990234375,-0.7926829268292683,0.30487804878048785,-1.0365853658536586
16_11_17_174,-1.0,1.0,-1.0,0.0,-2.0,-3.0,-4.0,0.0,0.9638671875,0.10693359375,0.14892578125,-0.12195121951219513,0.06097560975609757,-1.1585365853658538
16_11_17_174,-4.0,-3.0,-3.0,-1.0,-1.0,0.0,-1.0,-1.0,0.96923828125,0.09814453125,0.15478515625,0.24390243902439027,-0.12195121951219513,-1.2195121951219514
16_11_17_174,-2.0,-1.0,3.0,-1.0,-1.0,-2.0,0.0,-1.0,0.97412109375,0.095703125,0.15185546875,-0.1829268292682927,0.12195121951219513,-1.2195121951219514
16_11_17_174,1.0,-1.0,-1.0,0.0,1.0,2.0,-2.0,-1.0,0.97119140625,0.10546875,0.14990234375,-0.6707317073170732,0.3658536585365854,-1.2195121951219514
16_11_17_174,2.0,1.0,-2.0,-2.0,0.0,2.0,0.0,-3.0,0.96240234375,0.1064453125,0.1533203125,-0.5487804878048781,0.48780487804878053,-1.1585365853658538
16_11_17_174,-2.0,1.0,0.0,1.0,-1.0,-3.0,-5.0,1.0,0.9638671875,0.1044921875,0.15087890625,0.426829268292683,0.6097560975609757,-1.402439024390244
16_11_17_174,0.0,-2.0,0.0,1.0,-1.0,-2.0,-2.0,-1.0,0.99462890625,0.103515625,0.16162109375,-0.3658536585365854,2.1341463414634148,-1.8902439024390245
16_11_17_174,-1.0,-3.0,-1.0,-2.0,-4.0,1.0,2.0,-1.0,0.89208984375,0.10693359375,0.083984375,6.52439024390244,-0.7926829268292683,-1.2804878048780488
16_11_17_227,-1.0,1.0,-1.0,-1.0,-1.0,-1.0,0.0,1.0,0.9638671875,0.10107421875,0.14697265625,0.24390243902439027,0.48780487804878053,-1.4634146341463417
16_11_17_227,1.0,1.0,0.0,1.0,-6.0,-4.0,1.0,-1.0,0.95654296875,0.10400390625,0.1533203125,-0.1829268292682927,0.48780487804878053,-1.2195121951219514
16_11_17_227,-1.0,-6.0,-2.0,-3.0,-2.0,-4.0,-2.0,-2.0,0.96142578125,0.10546875,0.14990234375,-0.7926829268292683,0.30487804878048785,-1.0365853658536586
16_11_17_227,-1.0,1.0,-1.0,0.0,-2.0,-3.0,-4.0,0.0,0.9638671875,0.10693359375,0.14892578125,-0.12195121951219513,0.06097560975609757,-1.1585365853658538
16_11_17_227,-4.0,-3.0,-3.0,-1.0,-1.0,0.0,-1.0,-1.0,0.96923828125,0.09814453125,0.15478515625,0.24390243902439027,-0.12195121951219513,-1.2195121951219514
16_11_17_227,-2.0,-1.0,3.0,-1.0,-1.0,-2.0,0.0,-1.0,0.97412109375,0.095703125,0.15185546875,-0.1829268292682927,0.12195121951219513,-1.2195121951219514
16_11_17_227,1.0,-1.0,-1.0,0.0,1.0,2.0,-2.0,-1.0,0.97119140625,0.10546875,0.14990234375,-0.6707317073170732,0.3658536585365854,-1.2195121951219514
16_11_17_227,2.0,1.0,-2.0,-2.0,0.0,2.0,0.0,-3.0,0.96240234375,0.1064453125,0.1533203125,-0.5487804878048781,0.48780487804878053,-1.1585365853658538
16_11_17_227,-2.0,1.0,0.0,1.0,-1.0,-3.0,-5.0,1.0,0.9638671875,0.1044921875,0.15087890625,0.426829268292683,0.6097560975609757,-1.402439024390244
16_11_17_281,1.0,2.0,-2.0,-3.0,0.0,-4.0,0.0,-2.0,0.96630859375,0.12060546875,0.16552734375,-4.75609756097561,0.24390243902439027,-1.707317073170732
16_11_17_281,-3.0,-3.0,-2.0,7.0,1.0,2.0,1.0,0.0,0.97216796875,0.10791015625,0.1591796875,-1.5853658536585367,-0.12195121951219513,-2.0121951219512195
16_11_17_281,-1.0,-2.0,-5.0,-6.0,-3.0,-1.0,-3.0,-3.0,0.9638671875,0.10107421875,0.14697265625,0.24390243902439027,0.48780487804878053,-1.4634146341463417
16_11_17_281,-1.0,0.0,-1.0,-1.0,-3.0,0.0,1.0,-2.0,0.95654296875,0.10400390625,0.1533203125,-0.1829268292682927,0.48780487804878053,-1.2195121951219514
16_11_17_281,-2.0,-3.0,-6.0,-4.0,-1.0,-1.0,0.0,-1.0,0.96142578125,0.10546875,0.14990234375,-0.7926829268292683,0.30487804878048785,-1.0365853658536586
16_11_17_281,-2.0,0.0,1.0,-4.0,-4.0,0.0,0.0,-2.0,0.9638671875,0.10693359375,0.14892578125,-0.12195121951219513,0.06097560975609757,-1.1585365853658538
16_11_17_281,-1.0,-2.0,1.0,1.0,2.0,-3.0,0.0,-2.0,0.96923828125,0.09814453125,0.15478515625,0.24390243902439027,-0.12195121951219513,-1.2195121951219514
16_11_17_281,-1.0,1.0,-4.0,-2.0,0.0,1.0,-1.0,-2.0,0.97412109375,0.095703125,0.15185546875,-0.1829268292682927,0.12195121951219513,-1.2195121951219514
16_11_17_328,0.0,1.0,0.0,1.0,0.0,0.0,-2.0,-3.0,0.96728515625,0.12548828125,0.21142578125,-6.463414634146342,7.317073170731708,-1.2195121951219514
16_11_17_328,1.0,-2.0,1.0,2.0,0.0,-5.0,0.0,-3.0,0.96240234375,0.138671875,0.19970703125,-5.060975609756098,4.573170731707317,0.6707317073170732
16_11_17_328,0.0,3.0,0.0,-2.0,-2.0,-1.0,-4.0,1.0,0.96630859375,0.12060546875,0.16552734375,-4.75609756097561,0.24390243902439027,-1.707317073170732
16_11_17_328,1.0,2.0,-2.0,-3.0,0.0,-4.0,0.0,-2.0,0.97216796875,0.10791015625,0.1591796875,-1.5853658536585367,-0.12195121951219513,-2.0121951219512195
16_11_17_328,-3.0,-3.0,-2.0,7.0,1.0,2.0,1.0,0.0,0.9638671875,0.10107421875,0.14697265625,0.24390243902439027,0.48780487804878053,-1.4634146341463417
16_11_17_328,-1.0,-2.0,-5.0,-6.0,-3.0,-1.0,-3.0,-3.0,0.95654296875,0.10400390625,0.1533203125,-0.1829268292682927,0.48780487804878053,-1.2195121951219514
16_11_17_328,-1.0,0.0,-1.0,-1.0,-3.0,0.0,1.0,-2.0,0.96142578125,0.10546875,0.14990234375,-0.7926829268292683,0.30487804878048785,-1.0365853658536586
16_11_17_328,-2.0,-3.0,-6.0,-4.0,-1.0,-1.0,0.0,-1.0,0.9638671875,0.10693359375,0.14892578125,-0.12195121951219513,0.06097560975609757,-1.1585365853658538
16_11_17_328,-2.0,0.0,1.0,-4.0,-4.0,0.0,0.0,-2.0,0.96923828125,0.09814453125,0.15478515625,0.24390243902439027,-0.12195121951219513,-1.2195121951219514
16_11_17_380,-2.0,0.0,2.0,1.0,3.0,-2.0,-4.0,-2.0,0.96826171875,0.095703125,0.21826171875,-5.2439024390243905,8.475609756097562,-3.9024390243902443
16_11_17_380,0.0,-2.0,-2.0,-1.0,-2.0,2.0,1.0,-3.0,0.96728515625,0.12548828125,0.21142578125,-6.463414634146342,7.317073170731708,-1.2195121951219514
16_11_17_380,0.0,3.0,-3.0,-2.0,0.0,-1.0,-1.0,-1.0,0.96240234375,0.138671875,0.19970703125,-5.060975609756098,4.573170731707317,0.6707317073170732
16_11_17_380,0.0,-1.0,-2.0,-1.0,-3.0,-1.0,-4.0,-2.0,0.96630859375,0.12060546875,0.16552734375,-4.75609756097561,0.24390243902439027,-1.707317073170732
16_11_17_380,0.0,1.0,0.0,-1.0,-4.0,-3.0,-1.0,0.0,0.97216796875,0.10791015625,0.1591796875,-1.5853658536585367,-0.12195121951219513,-2.0121951219512195
16_11_17_380,-2.0,-2.0,0.0,-2.0,0.0,0.0,-2.0,-1.0,0.9638671875,0.10107421875,0.14697265625,0.24390243902439027,0.48780487804878053,-1.4634146341463417
16_11_17_380,0.0,1.0,0.0,1.0,0.0,0.0,-2.0,-3.0,0.95654296875,0.10400390625,0.1533203125,-0.1829268292682927,0.48780487804878053,-1.2195121951219514
16_11_17_380,1.0,-2.0,1.0,2.0,0.0,-5.0,0.0,-3.0,0.96142578125,0.10546875,0.14990234375,-0.7926829268292683,0.30487804878048785,-1.0365853658536586
16_11_17_380,0.0,3.0,0.0,-2.0,-2.0,-1.0,-4.0,1.0,0.9638671875,0.10693359375,0.14892578125,-0.12195121951219513,0.06097560975609757,-1.1585365853658538
16_11_17_438,2.0,-3.0,-5.0,-3.0,3.0,-2.0,-1.0,-1.0,0.94970703125,0.11279296875,0.24853515625,-11.097560975609756,13.963414634146343,-10.24390243902439
16_11_17_438,0.0,-1.0,-3.0,-5.0,-1.0,1.0,-3.0,0.0,0.96630859375,0.12109375,0.23291015625,-5.731707317073171,11.097560975609756,-8.292682926829269
16_11_17_438,0.0,-1.0,4.0,-1.0,0.0,-1.0,-2.0,0.0,0.97216796875,0.1005859375,0.22802734375,-3.7195121951219514,9.02439024390244,-6.52439024390244
16_11_17_438,0.0,1.0,-1.0,-1.0,1.0,1.0,-1.0,-1.0,0.96826171875,0.095703125,0.21826171875,-5.2439024390243905,8.475609756097562,-3.9024390243902443
16_11_17_438,0.0,-4.0,1.0,0.0,0.0,-1.0,0.0,0.0,0.96728515625,0.12548828125,0.21142578125,-6.463414634146342,7.317073170731708,-1.2195121951219514
16_11_17_438,-1.0,-2.0,-1.0,-3.0,-1.0,-1.0,-1.0,-2.0,0.96240234375,0.138671875,0.19970703125,-5.060975609756098,4.573170731707317,0.6707317073170732
16_11_17_438,1.0,-4.0,0.0,1.0,0.0,-1.0,-3.0,-1.0,0.96630859375,0.12060546875,0.16552734375,-4.75609756097561,0.24390243902439027,-1.707317073170732
16_11_17_438,-2.0,0.0,-4.0,-1.0,0.0,1.0,0.0,-1.0,0.97216796875,0.10791015625,0.1591796875,-1.5853658536585367,-0.12195121951219513,-2.0121951219512195
16_11_17_438,-1.0,1.0,0.0,1.0,-3.0,-3.0,0.0,-3.0,0.9638671875,0.10107421875,0.14697265625,0.24390243902439027,0.48780487804878053,-1.4634146341463417
16_11_17_438,-2.0,0.0,2.0,1.0,3.0,-2.0,-4.0,-2.0,0.95654296875,0.10400390625,0.1533203125,-0.1829268292682927,0.48780487804878053,-1.2195121951219514
16_11_17_475,-1.0,-1.0,15.0,4.0,-4.0,1.0,-1.0,-2.0,0.94970703125,0.11279296875,0.24853515625,-11.097560975609756,13.963414634146343,-10.24390243902439
16_11_17_475,-1.0,0.0,2.0,2.0,-1.0,2.0,-2.0,2.0,0.96630859375,0.12109375,0.23291015625,-5.731707317073171,11.097560975609756,-8.292682926829269
16_11_17_475,2.0,-3.0,-5.0,-3.0,3.0,-2.0,-1.0,-1.0,0.97216796875,0.1005859375,0.22802734375,-3.7195121951219514,9.02439024390244,-6.52439024390244
16_11_17_475,0.0,-1.0,-3.0,-5.0,-1.0,1.0,-3.0,0.0,0.96826171875,0.095703125,0.21826171875,-5.2439024390243905,8.475609756097562,-3.9024390243902443
16_11_17_475,0.0,-1.0,4.0,-1.0,0.0,-1.0,-2.0,0.0,0.96728515625,0.12548828125,0.21142578125,-6.463414634146342,7.317073170731708,-1.2195121951219514
16_11_17_475,0.0,1.0,-1.0,-1.0,1.0,1.0,-1.0,-1.0,0.96240234375,0.138671875,0.19970703125,-5.060975609756098,4.573170731707317,0.6707317073170732
16_11_17_475,0.0,-4.0,1.0,0.0,0.0,-1.0,0.0,0.0,0.96630859375,0.12060546875,0.16552734375,-4.75609756097561,0.24390243902439027,-1.707317073170732
16_11_17_475,-1.0,-2.0,-1.0,-3.0,-1.0,-1.0,-1.0,-2.0,0.97216796875,0.10791015625,0.1591796875,-1.5853658536585367,-0.12195121951219513,-2.0121951219512195
16_11_17_475,1.0,-4.0,0.0,1.0,0.0,-1.0,-3.0,-1.0,0.9638671875,0.10107421875,0.14697265625,0.24390243902439027,0.48780487804878053,-1.4634146341463417
16_11_17_475,-2.0,0.0,-4.0,-1.0,0.0,1.0,0.0,-1.0,0.95654296875,0.10400390625,0.1533203125,-0.1829268292682927,0.48780487804878053,-1.2195121951219514
16_11_17_521,1.0,-5.0,1.0,-2.0,2.0,4.0,1.0,0.0,0.9404296875,0.13916015625,0.2607421875,-3.9024390243902443,16.03658536585366,-13.78048780487805
16_11_17_521,1.0,12.0,-2.0,-3.0,2.0,0.0,-2.0,1.0,0.943359375,0.1376953125,0.26025390625,-0.3658536585365854,15.670731707317074,-13.902439024390246
16_11_17_521,-4.0,-4.0,-2.0,0.0,0.0,-1.0,0.0,-1.0,0.935546875,0.11376953125,0.2666015625,-6.097560975609756,16.158536585365855,-12.378048780487806
16_11_17_521,0.0,-2.0,-5.0,-1.0,-1.0,-1.0,1.0,1.0,0.931640625,0.111328125,0.26318359375,-6.951219512195123,15.609756097560977,-11.585365853658537
16_11_17_521,0.0,2.0,13.0,2.0,-1.0,1.0,-5.0,1.0,0.94970703125,0.11279296875,0.24853515625,-11.097560975609756,13.963414634146343,-10.24390243902439
16_11_17_521,0.0,-4.0,-7.0,-6.0,-3.0,-2.0,1.0,-2.0,0.96630859375,0.12109375,0.23291015625,-5.731707317073171,11.097560975609756,-8.292682926829269
16_11_17_521,-2.0,-1.0,0.0,0.0,-3.0,-3.0,0.0,-3.0,0.97216796875,0.1005859375,0.22802734375,-3.7195121951219514,9.02439024390244,-6.52439024390244
16_11_17_521,-3.0,-6.0,-5.0,-2.0,0.0,-1.0,2.0,0.0,0.96826171875,0.095703125,0.21826171875,-5.2439024390243905,8.475609756097562,-3.9024390243902443
16_11_17_521,0.0,3.0,1.0,0.0,-5.0,-2.0,2.0,-3.0,0.96728515625,0.12548828125,0.21142578125,-6.463414634146342,7.317073170731708,-1.2195121951219514
16_11_17_521,-1.0,-1.0,-1.0,-2.0,1.0,-1.0,0.0,0.0,0.96240234375,0.138671875,0.19970703125,-5.060975609756098,4.573170731707317,0.6707317073170732
16_11_17_578,5.0,19.0,-2.0,-1.0,1.0,1.0,-2.0,-1.0,0.9404296875,0.13916015625,0.2607421875,-3.9024390243902443,16.03658536585366,-13.78048780487805
16_11_17_578,1.0,-3.0,4.0,-4.0,-1.0,0.0,1.0,0.0,0.943359375,0.1376953125,0.26025390625,-0.3658536585365854,15.670731707317074,-13.902439024390246
16_11_17_578,-2.0,1.0,-4.0,2.0,2.0,-1.0,0.0,-3.0,0.935546875,0.11376953125,0.2666015625,-6.097560975609756,16.158536585365855,-12.378048780487806
16_11_17_578,1.0,-5.0,1.0,-2.0,2.0,4.0,1.0,0.0,0.931640625,0.111328125,0.26318359375,-6.951219512195123,15.609756097560977,-11.585365853658537
16_11_17_578,1.0,12.0,-2.0,-3.0,2.0,0.0,-2.0,1.0,0.94970703125,0.11279296875,0.24853515625,-11.097560975609756,13.963414634146343,-10.24390243902439
16_11_17_578,-4.0,-4.0,-2.0,0.0,0.0,-1.0,0.0,-1.0,0.96630859375,0.12109375,0.23291015625,-5.731707317073171,11.097560975609756,-8.292682926829269
16_11_17_578,0.0,-2.0,-5.0,-1.0,-1.0,-1.0,1.0,1.0,0.97216796875,0.1005859375,0.22802734375,-3.7195121951219514,9.02439024390244,-6.52439024390244
16_11_17_578,0.0,2.0,13.0,2.0,-1.0,1.0,-5.0,1.0,0.96826171875,0.095703125,0.21826171875,-5.2439024390243905,8.475609756097562,-3.9024390243902443
16_11_17_578,0.0,-4.0,-7.0,-6.0,-3.0,-2.0,1.0,-2.0,0.96728515625,0.12548828125,0.21142578125,-6.463414634146342,7.317073170731708,-1.2195121951219514
16_11_17_644,-4.0,-4.0,-5.0,-1.0,-6.0,-7.0,-3.0,-1.0,0.92626953125,0.12255859375,0.26025390625,-2.5,17.5609756097561,-13.78048780487805
16_11_17_644,-2.0,2.0,-4.0,-3.0,-4.0,-1.0,-1.0,-1.0,0.92822265625,0.12548828125,0.26171875,-5.060975609756098,16.646341463414636,-13.719512195121952
16_11_17_644,2.0,-16.0,-2.0,3.0,1.0,2.0,-5.0,-2.0,0.9404296875,0.13916015625,0.2607421875,-3.9024390243902443,16.03658536585366,-13.78048780487805
16_11_17_644,5.0,19.0,-2.0,-1.0,1.0,1.0,-2.0,-1.0,0.943359375,0.1376953125,0.26025390625,-0.3658536585365854,15.670731707317074,-13.902439024390246
16_11_17_644,1.0,-3.0,4.0,-4.0,-1.0,0.0,1.0,0.0,0.935546875,0.11376953125,0.2666015625,-6.097560975609756,16.158536585365855,-12.378048780487806
16_11_17_644,-2.0,1.0,-4.0,2.0,2.0,-1.0,0.0,-3.0,0.931640625,0.111328125,0.26318359375,-6.951219512195123,15.609756097560977,-11.585365853658537
16_11_17_644,1.0,-5.0,1.0,-2.0,2.0,4.0,1.0,0.0,0.94970703125,0.11279296875,0.24853515625,-11.097560975609756,13.963414634146343,-10.24390243902439
16_11_17_644,1.0,12.0,-2.0,-3.0,2.0,0.0,-2.0,1.0,0.96630859375,0.12109375,0.23291015625,-5.731707317073171,11.097560975609756,-8.292682926829269
16_11_17_644,-4.0,-4.0,-2.0,0.0,0.0,-1.0,0.0,-1.0,0.97216796875,0.1005859375,0.22802734375,-3.7195121951219514,9.02439024390244,-6.52439024390244
16_11_17_644,0.0,-2.0,-5.0,-1.0,-1.0,-1.0,1.0,1.0,0.96826171875,0.095703125,0.21826171875,-5.2439024390243905,8.475609756097562,-3.9024390243902443
16_11_17_686,-3.0,-2.0,-8.0,-1.0,1.0,-3.0,0.0,-1.0,0.91845703125,0.13916015625,0.259765625,-1.0365853658536586,18.963414634146343,-14.146341463414636
16_11_17_686,2.0,-3.0,-4.0,-1.0,-4.0,-2.0,0.0,-1.0,0.92626953125,0.12255859375,0.26025390625,-2.5,17.5609756097561,-13.78048780487805
16_11_17_686,1.0,-4.0,0.0,-2.0,2.0,-1.0,0.0,-3.0,0.92822265625,0.12548828125,0.26171875,-5.060975609756098,16.646341463414636,-13.719512195121952
16_11_17_686,-1.0,3.0,1.0,-3.0,-1.0,1.0,0.0,-3.0,0.9404296875,0.13916015625,0.2607421875,-3.9024390243902443,16.03658536585366,-13.78048780487805
16_11_17_686,4.0,4.0,-1.0,1.0,1.0,-4.0,-2.0,0.0,0.943359375,0.1376953125,0.26025390625,-0.3658536585365854,15.670731707317074,-13.902439024390246
16_11_17_686,-2.0,2.0,-7.0,1.0,-3.0,-1.0,2.0,-2.0,0.935546875,0.11376953125,0.2666015625,-6.097560975609756,16.158536585365855,-12.378048780487806
16_11_17_686,-4.0,-4.0,-5.0,-1.0,-6.0,-7.0,-3.0,-1.0,0.931640625,0.111328125,0.26318359375,-6.951219512195123,15.609756097560977,-11.585365853658537
16_11_17_686,-2.0,2.0,-4.0,-3.0,-4.0,-1.0,-1.0,-1.0,0.94970703125,0.11279296875,0.24853515625,-11.097560975609756,13.963414634146343,-10.24390243902439
16_11_17_786,2.0,12.0,-7.0,-2.0,-2.0,-4.0,-2.0,0.0,0.9228515625,0.18701171875,0.28564453125,-11.158536585365855,23.719512195121954,-13.353658536585368
16_11_17_786,-1.0,-1.0,6.0,0.0,-2.0,-5.0,0.0,0.0,0.91455078125,0.15185546875,0.25927734375,-1.7682926829268295,20.48780487804878,-14.695121951219514
16_11_17_786,0.0,-9.0,-1.0,1.0,1.0,0.0,-1.0,-1.0,0.91845703125,0.13916015625,0.259765625,-1.0365853658536586,18.963414634146343,-14.146341463414636
16_11_17_786,-6.0,9.0,-1.0,-1.0,0.0,-5.0,-3.0,-2.0,0.92626953125,0.12255859375,0.26025390625,-2.5,17.5609756097561,-13.78048780487805
16_11_17_786,-3.0,-2.0,-8.0,-1.0,1.0,-3.0,0.0,-1.0,0.92822265625,0.12548828125,0.26171875,-5.060975609756098,16.646341463414636,-13.719512195121952
16_11_17_786,2.0,-3.0,-4.0,-1.0,-4.0,-2.0,0.0,-1.0,0.9404296875,0.13916015625,0.2607421875,-3.9024390243902443,16.03658536585366,-13.78048780487805
16_11_17_786,1.0,-4.0,0.0,-2.0,2.0,-1.0,0.0,-3.0,0.943359375,0.1376953125,0.26025390625,-0.3658536585365854,15.670731707317074,-13.902439024390246
16_11_17_786,-1.0,3.0,1.0,-3.0,-1.0,1.0,0.0,-3.0,0.935546875,0.11376953125,0.2666015625,-6.097560975609756,16.158536585365855,-12.378048780487806
16_11_17_786,4.0,4.0,-1.0,1.0,1.0,-4.0,-2.0,0.0,0.931640625,0.111328125,0.26318359375,-6.951219512195123,15.609756097560977,-11.585365853658537
16_11_17_786,-2.0,2.0,-7.0,1.0,-3.0,-1.0,2.0,-2.0,0.94970703125,0.11279296875,0.24853515625,-11.097560975609756,13.963414634146343,-10.24390243902439
16_11_17_828,-4.0,19.0,5.0,1.0,-1.0,-3.0,-1.0,-1.0,0.85986328125,0.21923828125,0.36083984375,-2.25609756097561,23.719512195121954,-3.9024390243902443
16_11_17_828,0.0,6.0,4.0,0.0,0.0,1.0,-1.0,2.0,0.93798828125,0.197265625,0.32373046875,-8.292682926829269,21.707317073170735,-11.097560975609756
16_11_17_828,-4.0,-11.0,-5.0,0.0,0.0,3.0,2.0,-1.0,0.9326171875,0.18115234375,0.30810546875,-10.731707317073171,23.10975609756098,-12.682926829268293
16_11_17_828,-1.0,13.0,-6.0,3.0,1.0,1.0,-2.0,-1.0,0.9228515625,0.18701171875,0.28564453125,-11.158536585365855,23.719512195121954,-13.353658536585368
16_11_17_828,-2.0,-16.0,-5.0,-7.0,-1.0,-2.0,0.0,0.0,0.91455078125,0.15185546875,0.25927734375,-1.7682926829268295,20.48780487804878,-14.695121951219514
16_11_17_828,4.0,6.0,16.0,-1.0,0.0,-3.0,2.0,0.0,0.91845703125,0.13916015625,0.259765625,-1.0365853658536586,18.963414634146343,-14.146341463414636
16_11_17_828,-2.0,2.0,0.0,-1.0,-2.0,-1.0,-4.0,1.0,0.92626953125,0.12255859375,0.26025390625,-2.5,17.5609756097561,-13.78048780487805
16_11_17_828,-3.0,2.0,-1.0,-3.0,0.0,-3.0,-2.0,0.0,0.92822265625,0.12548828125,0.26171875,-5.060975609756098,16.646341463414636,-13.719512195121952
16_11_17_828,2.0,12.0,-7.0,-2.0,-2.0,-4.0,-2.0,0.0,0.9404296875,0.13916015625,0.2607421875,-3.9024390243902443,16.03658536585366,-13.78048780487805
16_11_17_828,-1.0,-1.0,6.0,0.0,-2.0,-5.0,0.0,0.0,0.943359375,0.1376953125,0.26025390625,-0.3658536585365854,15.670731707317074,-13.902439024390246
16_11_17_891,0.0,-13.0,1.0,0.0,-5.0,-2.0,-4.0,-1.0,0.85009765625,0.2822265625,0.3759765625,0.24390243902439027,23.475609756097562,-0.48780487804878053
16_11_17_891,4.0,15.0,6.0,-1.0,0.0,2.0,0.0,1.0,0.86865234375,0.23681640625,0.3837890625,3.8414634146341466,23.170731707317074,-2.7439024390243905
16_11_17_891,0.0,-9.0,-6.0,-3.0,-1.0,2.0,-4.0,-1.0,0.85986328125,0.21923828125,0.36083984375,-2.25609756097561,23.719512195121954,-3.9024390243902443
16_11_17_891,-5.0,-15.0,-14.0,-1.0,-2.0,0.0,-1.0,-4.0,0.93798828125,0.197265625,0.32373046875,-8.292682926829269,21.707317073170735,-11.097560975609756
16_11_17_891,3.0,6.0,25.0,1.0,-3.0,-5.0,-2.0,3.0,0.9326171875,0.18115234375,0.30810546875,-10.731707317073171,23.10975609756098,-12.682926829268293
16_11_17_891,-4.0,-21.0,-9.0,1.0,-6.0,-1.0,0.0,-4.0,0.9228515625,0.18701171875,0.28564453125,-11.158536585365855,23.719512195121954,-13.353658536585368
16_11_17_891,-4.0,19.0,5.0,1.0,-1.0,-3.0,-1.0,-1.0,0.91455078125,0.15185546875,0.25927734375,-1.7682926829268295,20.48780487804878,-14.695121951219514
16_11_17_891,0.0,6.0,4.0,0.0,0.0,1.0,-1.0,2.0,0.91845703125,0.13916015625,0.259765625,-1.0365853658536586,18.963414634146343,-14.146341463414636
16_11_17_891,-4.0,-11.0,-5.0,0.0,0.0,3.0,2.0,-1.0,0.92626953125,0.12255859375,0.26025390625,-2.5,17.5609756097561,-13.78048780487805
16_11_17_891,-1.0,13.0,-6.0,3.0,1.0,1.0,-2.0,-1.0,0.92822265625,0.12548828125,0.26171875,-5.060975609756098,16.646341463414636,-13.719512195121952
16_11_17_928,2.0,11.0,1.0,2.0,-3.0,0.0,0.0,-2.0,0.791015625,0.2685546875,0.4072265625,-15.54878048780488,25.792682926829272,2.9268292682926833
16_11_17_928,-3.0,-38.0,-3.0,1.0,-1.0,2.0,2.0,0.0,0.8095703125,0.30126953125,0.38818359375,-10.670731707317074,25.365853658536587,1.402439024390244
16_11_17_928,1.0,-26.0,22.0,2.0,0.0,-3.0,-2.0,-5.0,0.85009765625,0.2822265625,0.3759765625,0.24390243902439027,23.475609756097562,-0.48780487804878053
16_11_17_928,0.0,17.0,-6.0,-1.0,0.0,1.0,-1.0,1.0,0.86865234375,0.23681640625,0.3837890625,3.8414634146341466,23.170731707317074,-2.7439024390243905
16_11_17_928,-3.0,-30.0,-7.0,-4.0,-6.0,-3.0,1.0,0.0,0.85986328125,0.21923828125,0.36083984375,-2.25609756097561,23.719512195121954,-3.9024390243902443
16_11_17_928,0.0,40.0,29.0,6.0,2.0,-2.0,0.0,1.0,0.93798828125,0.197265625,0.32373046875,-8.292682926829269,21.707317073170735,-11.097560975609756
16_11_17_928,0.0,-2.0,-5.0,-1.0,1.0,1.0,-4.0,2.0,0.9326171875,0.18115234375,0.30810546875,-10.731707317073171,23.10975609756098,-12.682926829268293
16_11_17_928,-3.0,-3.0,0.0,-4.0,-1.0,0.0,-3.0,-2.0,0.9228515625,0.18701171875,0.28564453125,-11.158536585365855,23.719512195121954,-13.353658536585368
16_11_17_928,2.0,1.0,-5.0,-1.0,-1.0,0.0,-2.0,1.0,0.91455078125,0.15185546875,0.25927734375,-1.7682926829268295,20.48780487804878,-14.695121951219514
16_11_17_928,1.0,7.0,3.0,2.0,0.0,0.0,-2.0,2.0,0.91845703125,0.13916015625,0.259765625,-1.0365853658536586,18.963414634146343,-14.146341463414636
16_11_18_005,2.0,11.0,1.0,2.0,-3.0,0.0,0.0,-2.0,0.8095703125,0.30126953125,0.38818359375,-10.670731707317074,25.365853658536587,1.402439024390244
16_11_18_005,-3.0,-38.0,-3.0,1.0,-1.0,2.0,2.0,0.0,0.85009765625,0.2822265625,0.3759765625,0.24390243902439027,23.475609756097562,-0.48780487804878053
16_11_18_005,1.0,-26.0,22.0,2.0,0.0,-3.0,-2.0,-5.0,0.86865234375,0.23681640625,0.3837890625,3.8414634146341466,23.170731707317074,-2.7439024390243905
16_11_18_005,0.0,17.0,-6.0,-1.0,0.0,1.0,-1.0,1.0,0.85986328125,0.21923828125,0.36083984375,-2.25609756097561,23.719512195121954,-3.9024390243902443
16_11_18_005,-3.0,-30.0,-7.0,-4.0,-6.0,-3.0,1.0,0.0,0.93798828125,0.197265625,0.32373046875,-8.292682926829269,21.707317073170735,-11.097560975609756
16_11_18_005,0.0,40.0,29.0,6.0,2.0,-2.0,0.0,1.0,0.9326171875,0.18115234375,0.30810546875,-10.731707317073171,23.10975609756098,-12.682926829268293
16_11_18_005,0.0,-2.0,-5.0,-1.0,1.0,1.0,-4.0,2.0,0.9228515625,0.18701171875,0.28564453125,-11.158536585365855,23.719512195121954,-13.353658536585368
16_11_18_005,-3.0,-3.0,0.0,-4.0,-1.0,0.0,-3.0,-2.0,0.91455078125,0.15185546875,0.25927734375,-1.7682926829268295,20.48780487804878,-14.695121951219514
16_11_18_046,3.0,30.0,8.0,1.0,-5.0,-5.0,1.0,-3.0,0.76025390625,0.2373046875,0.48974609375,-7.317073170731708,29.939024390243905,6.707317073170732
16_11_18_046,-2.0,-8.0,4.0,-3.0,2.0,-1.0,-1.0,-1.0,0.79443359375,0.2314453125,0.4873046875,-8.536585365853659,27.865853658536587,5.853658536585367
16_11_18_046,-4.0,-33.0,-14.0,-3.0,-1.0,-3.0,-1.0,1.0,0.81982421875,0.22216796875,0.46533203125,-6.097560975609756,26.707317073170735,3.1707317073170733
16_11_18_046,1.0,7.0,9.0,0.0,2.0,2.0,-1.0,1.0,0.8017578125,0.22265625,0.4580078125,-4.695121951219512,26.52439024390244,1.7682926829268295
16_11_18_046,0.0,2.0,-2.0,1.0,0.0,2.0,-1.0,-1.0,0.798828125,0.2236328125,0.435546875,-5.670731707317073,26.34146341463415,2.25609756097561
16_11_18_046,0.0,-8.0,-1.0,-1.0,-4.0,1.0,-1.0,1.0,0.791015625,0.2685546875,0.4072265625,-15.54878048780488,25.792682926829272,2.9268292682926833
16_11_18_046,-1.0,10.0,0.0,1.0,-1.0,-2.0,-4.0,-2.0,0.8095703125,0.30126953125,0.38818359375,-10.670731707317074,25.365853658536587,1.402439024390244
16_11_18_046,1.0,-9.0,2.0,-5.0,0.0,0.0,1.0,-4.0,0.85009765625,0.2822265625,0.3759765625,0.24390243902439027,23.475609756097562,-0.48780487804878053
16_11_18_046,-7.0,-58.0,-16.0,0.0,-6.0,-2.0,1.0,-4.0,0.86865234375,0.23681640625,0.3837890625,3.8414634146341466,23.170731707317074,-2.7439024390243905
16_11_18_046,1.0,13.0,2.0,-1.0,-2.0,-3.0,-1.0,3.0,0.85986328125,0.21923828125,0.36083984375,-2.25609756097561,23.719512195121954,-3.9024390243902443
16_11_18_100,-3.0,-18.0,-3.0,-2.0,-3.0,-2.0,1.0,0.0,0.76025390625,0.2373046875,0.48974609375,-7.317073170731708,29.939024390243905,6.707317073170732
16_11_18_100,0.0,23.0,-9.0,-4.0,1.0,0.0,2.0,1.0,0.79443359375,0.2314453125,0.4873046875,-8.536585365853659,27.865853658536587,5.853658536585367
16_11_18_100,1.0,-9.0,3.0,2.0,1.0,2.0,2.0,1.0,0.81982421875,0.22216796875,0.46533203125,-6.097560975609756,26.707317073170735,3.1707317073170733
16_11_18_100,3.0,30.0,8.0,1.0,-5.0,-5.0,1.0,-3.0,0.8017578125,0.22265625,0.4580078125,-4.695121951219512,26.52439024390244,1.7682926829268295
16_11_18_100,-2.0,-8.0,4.0,-3.0,2.0,-1.0,-1.0,-1.0,0.798828125,0.2236328125,0.435546875,-5.670731707317073,26.34146341463415,2.25609756097561
16_11_18_100,-4.0,-33.0,-14.0,-3.0,-1.0,-3.0,-1.0,1.0,0.791015625,0.2685546875,0.4072265625,-15.54878048780488,25.792682926829272,2.9268292682926833
16_11_18_100,1.0,7.0,9.0,0.0,2.0,2.0,-1.0,1.0,0.8095703125,0.30126953125,0.38818359375,-10.670731707317074,25.365853658536587,1.402439024390244
16_11_18_100,0.0,2.0,-2.0,1.0,0.0,2.0,-1.0,-1.0,0.85009765625,0.2822265625,0.3759765625,0.24390243902439027,23.475609756097562,-0.48780487804878053
16_11_18_100,0.0,-8.0,-1.0,-1.0,-4.0,1.0,-1.0,1.0,0.86865234375,0.23681640625,0.3837890625,3.8414634146341466,23.170731707317074,-2.7439024390243905
16_11_18_164,-2.0,-18.0,1.0,-2.0,2.0,-2.0,-1.0,3.0,0.6982421875,0.2421875,0.5166015625,10.731707317073171,31.707317073170735,10.0
16_11_18_164,-2.0,-3.0,-8.0,-2.0,1.0,-1.0,-3.0,2.0,0.705078125,0.24462890625,0.5078125,5.975609756097562,31.52439024390244,9.451219512195122
16_11_18_164,1.0,11.0,5.0,3.0,5.0,1.0,0.0,-1.0,0.7275390625,0.244140625,0.5,-1.0365853658536586,31.280487804878053,8.231707317073171
16_11_18_164,-2.0,-1.0,-8.0,1.0,-2.0,-3.0,1.0,-1.0,0.76025390625,0.2373046875,0.48974609375,-7.317073170731708,29.939024390243905,6.707317073170732
16_11_18_164,-2.0,-11.0,1.0,0.0,-3.0,-6.0,0.0,-4.0,0.79443359375,0.2314453125,0.4873046875,-8.536585365853659,27.865853658536587,5.853658536585367
16_11_18_164,-2.0,-24.0,10.0,-3.0,-4.0,-1.0,0.0,-2.0,0.81982421875,0.22216796875,0.46533203125,-6.097560975609756,26.707317073170735,3.1707317073170733
16_11_18_164,-5.0,1.0,-6.0,-2.0,0.0,-3.0,-3.0,-1.0,0.8017578125,0.22265625,0.4580078125,-4.695121951219512,26.52439024390244,1.7682926829268295
16_11_18_164,1.0,-5.0,-5.0,-3.0,0.0,2.0,-2.0,1.0,0.798828125,0.2236328125,0.435546875,-5.670731707317073,26.34146341463415,2.25609756097561
16_11_18_164,1.0,-16.0,-7.0,-4.0,-2.0,0.0,0.0,-3.0,0.791015625,0.2685546875,0.4072265625,-15.54878048780488,25.792682926829272,2.9268292682926833
16_11_18_164,-1.0,19.0,8.0,-2.0,2.0,2.0,-1.0,-1.0,0.8095703125,0.30126953125,0.38818359375,-10.670731707317074,25.365853658536587,1.402439024390244
16_11_18_198,-3.0,-11.0,-8.0,-4.0,1.0,1.0,-1.0,-2.0,0.69775390625,0.240234375,0.533203125,12.560975609756099,29.02439024390244,9.695121951219512
16_11_18_198,-1.0,-18.0,8.0,0.0,-4.0,-5.0,0.0,-3.0,0.6982421875,0.2421875,0.5166015625,10.731707317073171,31.707317073170735,10.0
16_11_18_198,-2.0,11.0,-6.0,-2.0,-5.0,-3.0,0.0,0.0,0.705078125,0.24462890625,0.5078125,5.975609756097562,31.52439024390244,9.451219512195122
16_11_18_198,-2.0,-18.0,1.0,-2.0,2.0,-2.0,-1.0,3.0,0.7275390625,0.244140625,0.5,-1.0365853658536586,31.280487804878053,8.231707317073171
16_11_18_198,-2.0,-3.0,-8.0,-2.0,1.0,-1.0,-3.0,2.0,0.76025390625,0.2373046875,0.48974609375,-7.317073170731708,29.939024390243905,6.707317073170732
16_11_18_198,1.0,11.0,5.0,3.0,5.0,1.0,0.0,-1.0,0.79443359375,0.2314453125,0.4873046875,-8.536585365853659,27.865853658536587,5.853658536585367
16_11_18_198,-2.0,-1.0,-8.0,1.0,-2.0,-3.0,1.0,-1.0,0.81982421875,0.22216796875,0.46533203125,-6.097560975609756,26.707317073170735,3.1707317073170733
16_11_18_198,-2.0,-11.0,1.0,0.0,-3.0,-6.0,0.0,-4.0,0.8017578125,0.22265625,0.4580078125,-4.695121951219512,26.52439024390244,1.7682926829268295
16_11_18_198,-2.0,-24.0,10.0,-3.0,-4.0,-1.0,0.0,-2.0,0.798828125,0.2236328125,0.435546875,-5.670731707317073,26.34146341463415,2.25609756097561
16_11_18_258,-1.0,20.0,4.0,1.0,1.0,1.0,0.0,2.0,0.6943359375,0.244140625,0.54052734375,11.28048780487805,27.134146341463417,9.817073170731708
16_11_18_258,0.0,-36.0,-8.0,0.0,0.0,-1.0,1.0,-2.0,0.69775390625,0.240234375,0.533203125,12.560975609756099,29.02439024390244,9.695121951219512
16_11_18_258,1.0,4.0,3.0,-3.0,-4.0,-5.0,-3.0,-5.0,0.6982421875,0.2421875,0.5166015625,10.731707317073171,31.707317073170735,10.0
16_11_18_258,-2.0,11.0,5.0,-3.0,1.0,-3.0,-3.0,-1.0,0.705078125,0.24462890625,0.5078125,5.975609756097562,31.52439024390244,9.451219512195122
16_11_18_258,-3.0,-11.0,-8.0,-4.0,1.0,1.0,-1.0,-2.0,0.7275390625,0.244140625,0.5,-1.0365853658536586,31.280487804878053,8.231707317073171
16_11_18_258,-1.0,-18.0,8.0,0.0,-4.0,-5.0,0.0,-3.0,0.76025390625,0.2373046875,0.48974609375,-7.317073170731708,29.939024390243905,6.707317073170732
16_11_18_258,-2.0,11.0,-6.0,-2.0,-5.0,-3.0,0.0,0.0,0.79443359375,0.2314453125,0.4873046875,-8.536585365853659,27.865853658536587,5.853658536585367
16_11_18_258,-2.0,-18.0,1.0,-2.0,2.0,-2.0,-1.0,3.0,0.81982421875,0.22216796875,0.46533203125,-6.097560975609756,26.707317073170735,3.1707317073170733
16_11_18_258,-2.0,-3.0,-8.0,-2.0,1.0,-1.0,-3.0,2.0,0.8017578125,0.22265625,0.4580078125,-4.695121951219512,26.52439024390244,1.7682926829268295
16_11_18_302,3.0,39.0,6.0,3.0,-4.0,-1.0,-2.0,-1.0,0.91845703125,0.1650390625,0.59423828125,8.841463414634147,10.609756097560977,12.134146341463415
16_11_18_302,1.0,-1.0,-1.0,-2.0,-2.0,-1.0,3.0,1.0,0.77734375,0.20556640625,0.56884765625,8.231707317073171,18.597560975609756,12.74390243902439
16_11_18_302,3.0,10.0,1.0,-2.0,0.0,-4.0,-2.0,-3.0,0.6845703125,0.248046875,0.52490234375,6.585365853658537,23.04878048780488,10.548780487804878
16_11_18_302,-2.0,1.0,-3.0,-1.0,-1.0,3.0,-1.0,-1.0,0.69677734375,0.24658203125,0.53857421875,9.573170731707318,24.573170731707318,10.24390243902439
16_11_18_302,-3.0,-9.0,-2.0,-3.0,-1.0,0.0,-1.0,-1.0,0.6943359375,0.244140625,0.54052734375,11.28048780487805,27.134146341463417,9.817073170731708
16_11_18_302,0.0,2.0,10.0,0.0,-3.0,2.0,-2.0,1.0,0.69775390625,0.240234375,0.533203125,12.560975609756099,29.02439024390244,9.695121951219512
16_11_18_302,-3.0,-32.0,2.0,-2.0,4.0,-2.0,-1.0,-2.0,0.6982421875,0.2421875,0.5166015625,10.731707317073171,31.707317073170735,10.0
16_11_18_302,0.0,8.0,-16.0,-6.0,-1.0,1.0,1.0,1.0,0.705078125,0.24462890625,0.5078125,5.975609756097562,31.52439024390244,9.451219512195122
16_11_18_302,4.0,12.0,-5.0,-2.0,1.0,-2.0,3.0,1.0,0.7275390625,0.244140625,0.5,-1.0365853658536586,31.280487804878053,8.231707317073171
16_11_18_356,-2.0,22.0,7.0,-4.0,-3.0,-4.0,1.0,-3.0,0.98974609375,0.16259765625,0.5927734375,0.9756097560975611,1.829268292682927,9.573170731707318
16_11_18_356,-1.0,-8.0,6.0,2.0,1.0,3.0,2.0,1.0,0.91845703125,0.1650390625,0.59423828125,8.841463414634147,10.609756097560977,12.134146341463415
16_11_18_356,-1.0,0.0,7.0,-2.0,-2.0,-1.0,-1.0,-2.0,0.77734375,0.20556640625,0.56884765625,8.231707317073171,18.597560975609756,12.74390243902439
16_11_18_356,-4.0,-16.0,-1.0,-1.0,1.0,-3.0,-4.0,-1.0,0.6845703125,0.248046875,0.52490234375,6.585365853658537,23.04878048780488,10.548780487804878
16_11_18_356,3.0,39.0,6.0,3.0,-4.0,-1.0,-2.0,-1.0,0.69677734375,0.24658203125,0.53857421875,9.573170731707318,24.573170731707318,10.24390243902439
16_11_18_356,1.0,-1.0,-1.0,-2.0,-2.0,-1.0,3.0,1.0,0.6943359375,0.244140625,0.54052734375,11.28048780487805,27.134146341463417,9.817073170731708
16_11_18_356,3.0,10.0,1.0,-2.0,0.0,-4.0,-2.0,-3.0,0.69775390625,0.240234375,0.533203125,12.560975609756099,29.02439024390244,9.695121951219512
16_11_18_356,-2.0,1.0,-3.0,-1.0,-1.0,3.0,-1.0,-1.0,0.6982421875,0.2421875,0.5166015625,10.731707317073171,31.707317073170735,10.0
16_11_18_356,-3.0,-9.0,-2.0,-3.0,-1.0,0.0,-1.0,-1.0,0.705078125,0.24462890625,0.5078125,5.975609756097562,31.52439024390244,9.451219512195122
16_11_18_404,4.0,4.0,-14.0,-3.0,-3.0,-7.0,-3.0,-1.0,0.76123046875,0.1552734375,0.4853515625,8.292682926829269,7.317073170731708,14.573170731707318
16_11_18_404,-1.0,-17.0,16.0,1.0,-1.0,1.0,-1.0,-1.0,0.82080078125,0.18701171875,0.4609375,-16.158536585365855,4.51219512195122,11.52439024390244
16_11_18_404,0.0,7.0,0.0,-1.0,-3.0,-4.0,-1.0,-1.0,0.8779296875,0.2041015625,0.5087890625,-25.243902439024392,3.536585365853659,9.02439024390244
16_11_18_404,-3.0,-21.0,5.0,-1.0,1.0,0.0,3.0,2.0,0.93994140625,0.1982421875,0.54248046875,-16.646341463414636,-0.6707317073170732,6.585365853658537
16_11_18_404,-3.0,10.0,6.0,1.0,-2.0,-3.0,4.0,-18.0,0.98974609375,0.16259765625,0.5927734375,0.9756097560975611,1.829268292682927,9.573170731707318
16_11_18_404,6.0,14.0,2.0,-1.0,3.0,3.0,-1.0,6.0,0.91845703125,0.1650390625,0.59423828125,8.841463414634147,10.609756097560977,12.134146341463415
16_11_18_404,-2.0,-6.0,3.0,-2.0,0.0,1.0,-3.0,-1.0,0.77734375,0.20556640625,0.56884765625,8.231707317073171,18.597560975609756,12.74390243902439
16_11_18_404,0.0,7.0,5.0,-1.0,-5.0,-5.0,-2.0,-3.0,0.6845703125,0.248046875,0.52490234375,6.585365853658537,23.04878048780488,10.548780487804878
16_11_18_404,0.0,15.0,-5.0,-2.0,2.0,0.0,-4.0,3.0,0.69677734375,0.24658203125,0.53857421875,9.573170731707318,24.573170731707318,10.24390243902439
16_11_18_404,-1.0,-11.0,4.0,1.0,2.0,0.0,-4.0,-1.0,0.6943359375,0.244140625,0.54052734375,11.28048780487805,27.134146341463417,9.817073170731708
16_11_18_455,-2.0,0.0,-15.0,-1.0,-3.0,-4.0,-2.0,-1.0,0.72021484375,0.14208984375,0.50439453125,22.5609756097561,12.560975609756099,17.073170731707318
16_11_18_455,-4.0,19.0,11.0,0.0,1.0,1.0,1.0,-1.0,0.73974609375,0.15625,0.50146484375,16.402439024390244,9.939024390243903,16.097560975609756
16_11_18_455,3.0,-12.0,-12.0,-3.0,-3.0,1.0,0.0,1.0,0.76123046875,0.1552734375,0.4853515625,8.292682926829269,7.317073170731708,14.573170731707318
16_11_18_455,-2.0,4.0,2.0,-2.0,1.0,0.0,2.0,3.0,0.82080078125,0.18701171875,0.4609375,-16.158536585365855,4.51219512195122,11.52439024390244
16_11_18_455,13.0,23.0,3.0,2.0,-2.0,-1.0,-6.0,-18.0,0.8779296875,0.2041015625,0.5087890625,-25.243902439024392,3.536585365853659,9.02439024390244
16_11_18_455,-10.0,35.0,9.0,0.0,-1.0,-1.0,-1.0,10.0,0.93994140625,0.1982421875,0.54248046875,-16.646341463414636,-0.6707317073170732,6.585365853658537
16_11_18_455,-3.0,-28.0,-11.0,-3.0,0.0,-1.0,0.0,-2.0,0.98974609375,0.16259765625,0.5927734375,0.9756097560975611,1.829268292682927,9.573170731707318
16_11_18_455,3.0,24.0,2.0,1.0,-1.0,-1.0,6.0,3.0,0.91845703125,0.1650390625,0.59423828125,8.841463414634147,10.609756097560977,12.134146341463415
16_11_18_455,-8.0,-15.0,11.0,1.0,-3.0,-3.0,-9.0,-6.0,0.77734375,0.20556640625,0.56884765625,8.231707317073171,18.597560975609756,12.74390243902439
16_11_18_455,1.0,-39.0,0.0,0.0,1.0,4.0,-2.0,-1.0,0.6845703125,0.248046875,0.52490234375,6.585365853658537,23.04878048780488,10.548780487804878
16_11_18_526,3.0,-12.0,-12.0,-3.0,-3.0,1.0,0.0,1.0,0.82080078125,0.18701171875,0.4609375,-16.158536585365855,4.51219512195122,11.52439024390244
16_11_18_526,-2.0,4.0,2.0,-2.0,1.0,0.0,2.0,3.0,0.8779296875,0.2041015625,0.5087890625,-25.243902439024392,3.536585365853659,9.02439024390244
16_11_18_526,13.0,23.0,3.0,2.0,-2.0,-1.0,-6.0,-18.0,0.93994140625,0.1982421875,0.54248046875,-16.646341463414636,-0.6707317073170732,6.585365853658537
16_11_18_526,-10.0,35.0,9.0,0.0,-1.0,-1.0,-1.0,10.0,0.98974609375,0.16259765625,0.5927734375,0.9756097560975611,1.829268292682927,9.573170731707318
16_11_18_526,-3.0,-28.0,-11.0,-3.0,0.0,-1.0,0.0,-2.0,0.91845703125,0.1650390625,0.59423828125,8.841463414634147,10.609756097560977,12.134146341463415
16_11_18_526,3.0,24.0,2.0,1.0,-1.0,-1.0,6.0,3.0,0.77734375,0.20556640625,0.56884765625,8.231707317073171,18.597560975609756,12.74390243902439
16_11_18_565,4.0,-8.0,1.0,0.0,2.0,-1.0,-3.0,-3.0,0.89404296875,0.064453125,0.56982421875,25.000000000000004,4.451219512195122,4.878048780487806
16_11_18_565,-11.0,29.0,6.0,-3.0,-4.0,3.0,-5.0,-2.0,0.86083984375,0.02978515625,0.59228515625,39.207317073170735,9.817073170731708,11.585365853658537
16_11_18_565,5.0,-16.0,2.0,2.0,1.0,1.0,0.0,3.0,0.80078125,0.052734375,0.57080078125,39.57317073170732,13.353658536585368,17.073170731707318
16_11_18_565,25.0,3.0,10.0,-3.0,-6.0,-3.0,-7.0,-1.0,0.74169921875,0.10595703125,0.529296875,32.07317073170732,14.756097560975611,18.231707317073173
16_11_18_565,-4.0,-36.0,0.0,0.0,-2.0,-2.0,-1.0,0.0,0.72021484375,0.14208984375,0.50439453125,22.5609756097561,12.560975609756099,17.073170731707318
16_11_18_565,2.0,-1.0,-5.0,4.0,2.0,5.0,2.0,-1.0,0.73974609375,0.15625,0.50146484375,16.402439024390244,9.939024390243903,16.097560975609756
16_11_18_565,2.0,37.0,1.0,0.0,-2.0,-2.0,-3.0,-2.0,0.76123046875,0.1552734375,0.4853515625,8.292682926829269,7.317073170731708,14.573170731707318
16_11_18_565,-2.0,-5.0,-2.0,0.0,-3.0,8.0,-3.0,-1.0,0.82080078125,0.18701171875,0.4609375,-16.158536585365855,4.51219512195122,11.52439024390244
16_11_18_565,1.0,-12.0,3.0,-1.0,1.0,-5.0,0.0,0.0,0.8779296875,0.2041015625,0.5087890625,-25.243902439024392,3.536585365853659,9.02439024390244
16_11_18_565,1.0,-7.0,-8.0,-3.0,-4.0,-2.0,3.0,3.0,0.93994140625,0.1982421875,0.54248046875,-16.646341463414636,-0.6707317073170732,6.585365853658537
16_11_18_626,-1.0,-16.0,-12.0,-1.0,2.0,-2.0,0.0,2.0,0.861328125,0.0947265625,0.53955078125,13.29268292682927,3.9024390243902443,3.8414634146341466
16_11_18_626,-3.0,-21.0,-3.0,-2.0,4.0,1.0,-2.0,2.0,0.89404296875,0.064453125,0.56982421875,25.000000000000004,4.451219512195122,4.878048780487806
16_11_18_626,1.0,11.0,-2.0,-4.0,-4.0,1.0,-1.0,-4.0,0.86083984375,0.02978515625,0.59228515625,39.207317073170735,9.817073170731708,11.585365853658537
16_11_18_626,1.0,-46.0,-4.0,-4.0,0.0,-4.0,1.0,1.0,0.80078125,0.052734375,0.57080078125,39.57317073170732,13.353658536585368,17.073170731707318
16_11_18_626,1.0,27.0,-1.0,0.0,-3.0,-4.0,-4.0,2.0,0.74169921875,0.10595703125,0.529296875,32.07317073170732,14.756097560975611,18.231707317073173
16_11_18_626,-3.0,3.0,1.0,1.0,-3.0,1.0,18.0,1.0,0.72021484375,0.14208984375,0.50439453125,22.5609756097561,12.560975609756099,17.073170731707318
16_11_18_626,4.0,-8.0,1.0,0.0,2.0,-1.0,-3.0,-3.0,0.73974609375,0.15625,0.50146484375,16.402439024390244,9.939024390243903,16.097560975609756
16_11_18_626,-11.0,29.0,6.0,-3.0,-4.0,3.0,-5.0,-2.0,0.76123046875,0.1552734375,0.4853515625,8.292682926829269,7.317073170731708,14.573170731707318
16_11_18_626,5.0,-16.0,2.0,2.0,1.0,1.0,0.0,3.0,0.82080078125,0.18701171875,0.4609375,-16.158536585365855,4.51219512195122,11.52439024390244
16_11_18_626,25.0,3.0,10.0,-3.0,-6.0,-3.0,-7.0,-1.0,0.8779296875,0.2041015625,0.5087890625,-25.243902439024392,3.536585365853659,9.02439024390244
16_11_18_673,2.0,4.0,-2.0,-2.0,2.0,2.0,-1.0,1.0,0.71240234375,0.04638671875,0.55908203125,14.817073170731708,11.341463414634147,2.682926829268293
16_11_18_673,-8.0,-56.0,9.0,-3.0,-4.0,3.0,2.0,-2.0,0.701171875,0.05859375,0.55029296875,5.975609756097562,12.682926829268293,4.634146341463415
16_11_18_673,5.0,34.0,-1.0,-2.0,-2.0,-5.0,-1.0,-4.0,0.720703125,0.10205078125,0.51806640625,-4.695121951219512,11.829268292682928,4.207317073170732
16_11_18_673,-4.0,-12.0,-1.0,-1.0,0.0,-1.0,1.0,-1.0,0.767578125,0.13232421875,0.52294921875,-2.3170731707317076,8.475609756097562,4.573170731707317
16_11_18_673,-11.0,-1.0,2.0,-1.0,-1.0,-5.0,1.0,-4.0,0.81787109375,0.11669921875,0.52392578125,6.2804878048780495,6.402439024390245,4.75609756097561
16_11_18_673,-22.0,6.0,4.0,3.0,-1.0,0.0,0.0,2.0,0.861328125,0.0947265625,0.53955078125,13.29268292682927,3.9024390243902443,3.8414634146341466
16_11_18_673,-10.0,-74.0,-18.0,-4.0,-1.0,1.0,-3.0,5.0,0.89404296875,0.064453125,0.56982421875,25.000000000000004,4.451219512195122,4.878048780487806
16_11_18_673,10.0,12.0,3.0,-2.0,4.0,-3.0,-1.0,1.0,0.86083984375,0.02978515625,0.59228515625,39.207317073170735,9.817073170731708,11.585365853658537
16_11_18_673,-5.0,-8.0,-1.0,0.0,1.0,-1.0,1.0,0.0,0.80078125,0.052734375,0.57080078125,39.57317073170732,13.353658536585368,17.073170731707318
16_11_18_673,-10.0,1.0,-2.0,0.0,-1.0,1.0,1.0,-1.0,0.74169921875,0.10595703125,0.529296875,32.07317073170732,14.756097560975611,18.231707317073173
16_11_18_718,2.0,0.0,2.0,-1.0,-1.0,0.0,-1.0,0.0,0.74169921875,0.09130859375,0.55517578125,19.878048780487806,11.585365853658537,1.7682926829268295
16_11_18_718,-1.0,-22.0,-4.0,-1.0,0.0,-3.0,-5.0,-1.0,0.71923828125,0.06298828125,0.552734375,19.451219512195124,12.195121951219512,2.1951219512195124
16_11_18_718,-6.0,-13.0,-3.0,-1.0,3.0,0.0,-3.0,-9.0,0.71240234375,0.04638671875,0.55908203125,14.817073170731708,11.341463414634147,2.682926829268293
16_11_18_718,0.0,-2.0,5.0,2.0,-2.0,1.0,-2.0,2.0,0.701171875,0.05859375,0.55029296875,5.975609756097562,12.682926829268293,4.634146341463415
16_11_18_718,-24.0,-3.0,-20.0,-8.0,-1.0,-4.0,1.0,-4.0,0.720703125,0.10205078125,0.51806640625,-4.695121951219512,11.829268292682928,4.207317073170732
16_11_18_718,46.0,-16.0,1.0,-2.0,-3.0,1.0,1.0,3.0,0.767578125,0.13232421875,0.52294921875,-2.3170731707317076,8.475609756097562,4.573170731707317
16_11_18_718,-8.0,56.0,6.0,0.0,2.0,0.0,-3.0,-2.0,0.81787109375,0.11669921875,0.52392578125,6.2804878048780495,6.402439024390245,4.75609756097561
16_11_18_718,-3.0,-13.0,-2.0,1.0,-1.0,-3.0,-1.0,-1.0,0.861328125,0.0947265625,0.53955078125,13.29268292682927,3.9024390243902443,3.8414634146341466
16_11_18_718,-4.0,-10.0,0.0,0.0,3.0,2.0,-4.0,-1.0,0.89404296875,0.064453125,0.56982421875,25.000000000000004,4.451219512195122,4.878048780487806
16_11_18_778,-7.0,9.0,1.0,0.0,-4.0,-7.0,2.0,-1.0,0.76611328125,0.09228515625,0.55517578125,16.34146341463415,10.0,0.6097560975609757
16_11_18_778,4.0,1.0,4.0,2.0,2.0,1.0,0.0,4.0,0.74169921875,0.09130859375,0.55517578125,19.878048780487806,11.585365853658537,1.7682926829268295
16_11_18_778,-2.0,-28.0,7.0,-1.0,2.0,-1.0,9.0,-2.0,0.71923828125,0.06298828125,0.552734375,19.451219512195124,12.195121951219512,2.1951219512195124
16_11_18_778,2.0,0.0,2.0,0.0,0.0,0.0,-4.0,1.0,0.71240234375,0.04638671875,0.55908203125,14.817073170731708,11.341463414634147,2.682926829268293
16_11_18_778,-11.0,4.0,0.0,-5.0,-1.0,-4.0,-4.0,5.0,0.701171875,0.05859375,0.55029296875,5.975609756097562,12.682926829268293,4.634146341463415
16_11_18_778,2.0,0.0,2.0,-1.0,-1.0,0.0,-1.0,0.0,0.720703125,0.10205078125,0.51806640625,-4.695121951219512,11.829268292682928,4.207317073170732
16_11_18_778,-1.0,-22.0,-4.0,-1.0,0.0,-3.0,-5.0,-1.0,0.767578125,0.13232421875,0.52294921875,-2.3170731707317076,8.475609756097562,4.573170731707317
16_11_18_778,-6.0,-13.0,-3.0,-1.0,3.0,0.0,-3.0,-9.0,0.81787109375,0.11669921875,0.52392578125,6.2804878048780495,6.402439024390245,4.75609756097561
16_11_18_778,0.0,-2.0,5.0,2.0,-2.0,1.0,-2.0,2.0,0.861328125,0.0947265625,0.53955078125,13.29268292682927,3.9024390243902443,3.8414634146341466
16_11_18_778,-24.0,-3.0,-20.0,-8.0,-1.0,-4.0,1.0,-4.0,0.89404296875,0.064453125,0.56982421875,25.000000000000004,4.451219512195122,4.878048780487806
16_11_18_825,-13.0,2.0,12.0,2.0,0.0,0.0,-1.0,3.0,0.7646484375,0.09814453125,0.5263671875,8.109756097560977,-3.658536585365854,-1.707317073170732
16_11_18_825,1.0,-1.0,0.0,-3.0,-2.0,1.0,-2.0,2.0,0.7919921875,0.0830078125,0.5380859375,5.182926829268293,-0.6707317073170732,-2.439024390243903
16_11_18_825,0.0,-7.0,-1.0,0.0,2.0,1.0,-2.0,0.0,0.79931640625,0.0888671875,0.5498046875,7.743902439024391,2.073170731707317,-2.378048780487805
16_11_18_825,2.0,13.0,1.0,-3.0,-2.0,-2.0,-4.0,-8.0,0.794921875,0.08935546875,0.56103515625,13.902439024390246,6.646341463414635,-0.7317073170731708
16_11_18_825,-10.0,-5.0,-3.0,1.0,-4.0,-1.0,-1.0,-1.0,0.76611328125,0.09228515625,0.55517578125,16.34146341463415,10.0,0.6097560975609757
16_11_18_825,-7.0,-71.0,-9.0,-1.0,0.0,-1.0,0.0,-3.0,0.74169921875,0.09130859375,0.55517578125,19.878048780487806,11.585365853658537,1.7682926829268295
16_11_18_825,-2.0,63.0,3.0,-4.0,-3.0,1.0,1.0,1.0,0.71923828125,0.06298828125,0.552734375,19.451219512195124,12.195121951219512,2.1951219512195124
16_11_18_825,1.0,0.0,3.0,0.0,1.0,2.0,0.0,12.0,0.71240234375,0.04638671875,0.55908203125,14.817073170731708,11.341463414634147,2.682926829268293
16_11_18_825,2.0,-6.0,0.0,0.0,-3.0,-4.0,-20.0,1.0,0.701171875,0.05859375,0.55029296875,5.975609756097562,12.682926829268293,4.634146341463415
16_11_18_871,29.0,1.0,2.0,-2.0,-1.0,3.0,-2.0,5.0,0.79296875,0.10107421875,0.505859375,14.390243902439027,-14.085365853658537,-3.231707317073171
16_11_18_871,-4.0,13.0,1.0,-3.0,-1.0,0.0,0.0,0.0,0.77490234375,0.10009765625,0.5087890625,13.597560975609758,-11.158536585365855,-1.829268292682927
16_11_18_871,-4.0,-3.0,4.0,-3.0,0.0,-3.0,-1.0,-3.0,0.76171875,0.11083984375,0.52587890625,10.487804878048781,-7.621951219512196,-2.073170731707317
16_11_18_871,-10.0,-69.0,-9.0,-4.0,-4.0,-9.0,0.0,-4.0,0.7646484375,0.09814453125,0.5263671875,8.109756097560977,-3.658536585365854,-1.707317073170732
16_11_18_871,13.0,48.0,-8.0,-1.0,0.0,0.0,0.0,0.0,0.7919921875,0.0830078125,0.5380859375,5.182926829268293,-0.6707317073170732,-2.439024390243903
16_11_18_871,-13.0,2.0,12.0,2.0,0.0,0.0,-1.0,3.0,0.79931640625,0.0888671875,0.5498046875,7.743902439024391,2.073170731707317,-2.378048780487805
16_11_18_871,1.0,-1.0,0.0,-3.0,-2.0,1.0,-2.0,2.0,0.794921875,0.08935546875,0.56103515625,13.902439024390246,6.646341463414635,-0.7317073170731708
16_11_18_871,0.0,-7.0,-1.0,0.0,2.0,1.0,-2.0,0.0,0.76611328125,0.09228515625,0.55517578125,16.34146341463415,10.0,0.6097560975609757
16_11_18_871,2.0,13.0,1.0,-3.0,-2.0,-2.0,-4.0,-8.0,0.74169921875,0.09130859375,0.55517578125,19.878048780487806,11.585365853658537,1.7682926829268295
16_11_18_871,-10.0,-5.0,-3.0,1.0,-4.0,-1.0,-1.0,-1.0,0.71923828125,0.06298828125,0.552734375,19.451219512195124,12.195121951219512,2.1951219512195124
16_11_18_930,0.0,-6.0,-3.0,-1.0,0.0,3.0,1.0,-2.0,0.8505859375,0.0830078125,0.47705078125,8.841463414634147,-18.29268292682927,-3.9024390243902443
16_11_18_930,-2.0,-7.0,-1.0,1.0,1.0,0.0,5.0,-4.0,0.83740234375,0.0869140625,0.4951171875,11.219512195121952,-16.951219512195124,-2.682926829268293
16_11_18_930,0.0,-1.0,-1.0,-2.0,0.0,4.0,-5.0,-4.0,0.79296875,0.10107421875,0.505859375,14.390243902439027,-14.085365853658537,-3.231707317073171
16_11_18_930,-1.0,-5.0,-3.0,0.0,-2.0,-3.0,-1.0,-3.0,0.77490234375,0.10009765625,0.5087890625,13.597560975609758,-11.158536585365855,-1.829268292682927
16_11_18_930,-3.0,38.0,-11.0,0.0,-2.0,-2.0,-2.0,5.0,0.76171875,0.11083984375,0.52587890625,10.487804878048781,-7.621951219512196,-2.073170731707317
16_11_18_930,8.0,3.0,4.0,5.0,0.0,0.0,1.0,-2.0,0.7646484375,0.09814453125,0.5263671875,8.109756097560977,-3.658536585365854,-1.707317073170732
16_11_18_930,-13.0,11.0,7.0,-5.0,-6.0,-7.0,-6.0,-8.0,0.7919921875,0.0830078125,0.5380859375,5.182926829268293,-0.6707317073170732,-2.439024390243903
16_11_18_930,4.0,-32.0,1.0,-1.0,1.0,-3.0,4.0,-2.0,0.79931640625,0.0888671875,0.5498046875,7.743902439024391,2.073170731707317,-2.378048780487805
16_11_18_930,29.0,1.0,2.0,-2.0,-1.0,3.0,-2.0,5.0,0.794921875,0.08935546875,0.56103515625,13.902439024390246,6.646341463414635,-0.7317073170731708
16_11_18_930,-4.0,13.0,1.0,-3.0,-1.0,0.0,0.0,0.0,0.76611328125,0.09228515625,0.55517578125,16.34146341463415,10.0,0.6097560975609757
16_11_18_974,1.0,0.0,-3.0,-2.0,-3.0,-5.0,0.0,0.0,0.8251953125,0.12451171875,0.42578125,1.524390243902439,-20.30487804878049,-5.365853658536586
16_11_18_974,2.0,-5.0,-3.0,1.0,4.0,1.0,-3.0,-3.0,0.837890625,0.09130859375,0.46142578125,5.121951219512195,-19.085365853658537,-4.695121951219512
16_11_18_974,-1.0,34.0,-7.0,-2.0,0.0,-4.0,3.0,0.0,0.8505859375,0.0830078125,0.47705078125,8.841463414634147,-18.29268292682927,-3.9024390243902443
16_11_18_974,-4.0,6.0,13.0,0.0,-1.0,-2.0,-3.0,-1.0,0.83740234375,0.0869140625,0.4951171875,11.219512195121952,-16.951219512195124,-2.682926829268293
16_11_18_974,-4.0,-22.0,-9.0,-2.0,-1.0,-2.0,-2.0,-3.0,0.79296875,0.10107421875,0.505859375,14.390243902439027,-14.085365853658537,-3.231707317073171
16_11_18_974,-12.0,-3.0,-6.0,-2.0,2.0,1.0,2.0,6.0,0.77490234375,0.10009765625,0.5087890625,13.597560975609758,-11.158536585365855,-1.829268292682927
16_11_18_974,1.0,13.0,3.0,0.0,-2.0,-1.0,8.0,-1.0,0.76171875,0.11083984375,0.52587890625,10.487804878048781,-7.621951219512196,-2.073170731707317
16_11_18_974,-3.0,1.0,-2.0,1.0,2.0,1.0,-6.0,-18.0,0.7646484375,0.09814453125,0.5263671875,8.109756097560977,-3.658536585365854,-1.707317073170732
16_11_18_974,0.0,-4.0,-1.0,-2.0,-7.0,-6.0,-2.0,8.0,0.7919921875,0.0830078125,0.5380859375,5.182926829268293,-0.6707317073170732,-2.439024390243903
16_11_19_027,8.0,-9.0,-4.0,-2.0,-3.0,0.0,1.0,0.0,0.8046875,0.14990234375,0.40673828125,1.829268292682927,-18.29268292682927,-5.365853658536586
16_11_19_027,31.0,17.0,2.0,3.0,-3.0,-2.0,-1.0,5.0,0.7919921875,0.1484375,0.4248046875,1.0365853658536586,-20.365853658536587,-7.073170731707318
16_11_19_027,-16.0,-8.0,0.0,-2.0,2.0,0.0,-2.0,-2.0,0.8251953125,0.12451171875,0.42578125,1.524390243902439,-20.30487804878049,-5.365853658536586
16_11_19_027,7.0,-6.0,-6.0,-3.0,-1.0,-1.0,0.0,0.0,0.837890625,0.09130859375,0.46142578125,5.121951219512195,-19.085365853658537,-4.695121951219512
16_11_19_027,-5.0,8.0,8.0,1.0,1.0,-1.0,-1.0,1.0,0.8505859375,0.0830078125,0.47705078125,8.841463414634147,-18.29268292682927,-3.9024390243902443
16_11_19_027,-3.0,-15.0,-1.0,-6.0,-6.0,-5.0,0.0,-2.0,0.83740234375,0.0869140625,0.4951171875,11.219512195121952,-16.951219512195124,-2.682926829268293
16_11_19_027,3.0,3.0,-3.0,-2.0,-1.0,-1.0,-8.0,0.0,0.79296875,0.10107421875,0.505859375,14.390243902439027,-14.085365853658537,-3.231707317073171
16_11_19_027,1.0,0.0,-3.0,-2.0,-3.0,-5.0,0.0,0.0,0.77490234375,0.10009765625,0.5087890625,13.597560975609758,-11.158536585365855,-1.829268292682927
16_11_19_027,2.0,-5.0,-3.0,1.0,4.0,1.0,-3.0,-3.0,0.76171875,0.11083984375,0.52587890625,10.487804878048781,-7.621951219512196,-2.073170731707317
16_11_19_027,-1.0,34.0,-7.0,-2.0,0.0,-4.0,3.0,0.0,0.7646484375,0.09814453125,0.5263671875,8.109756097560977,-3.658536585365854,-1.707317073170732
16_11_19_076,0.0,5.0,-6.0,-3.0,-1.0,0.0,-1.0,-4.0,0.7607421875,0.18701171875,0.39453125,0.0,-13.04878048780488,-8.658536585365855
16_11_19_076,-9.0,-38.0,-1.0,1.0,-4.0,-1.0,-2.0,-12.0,0.79736328125,0.15478515625,0.39208984375,0.5487804878048781,-16.097560975609756,-6.890243902439025
16_11_19_076,2.0,8.0,-6.0,-2.0,-2.0,-3.0,-3.0,-5.0,0.8046875,0.14990234375,0.40673828125,1.829268292682927,-18.29268292682927,-5.365853658536586
16_11_19_076,7.0,11.0,-5.0,-5.0,-1.0,-1.0,-5.0,0.0,0.7919921875,0.1484375,0.4248046875,1.0365853658536586,-20.365853658536587,-7.073170731707318
16_11_19_076,8.0,0.0,-1.0,4.0,-3.0,-2.0,2.0,5.0,0.8251953125,0.12451171875,0.42578125,1.524390243902439,-20.30487804878049,-5.365853658536586
16_11_19_076,-3.0,-1.0,-6.0,-5.0,-2.0,1.0,2.0,4.0,0.837890625,0.09130859375,0.46142578125,5.121951219512195,-19.085365853658537,-4.695121951219512
16_11_19_076,14.0,-5.0,23.0,4.0,-1.0,-1.0,-1.0,1.0,0.8505859375,0.0830078125,0.47705078125,8.841463414634147,-18.29268292682927,-3.9024390243902443
16_11_19_076,-6.0,23.0,3.0,-1.0,-5.0,-2.0,-1.0,-3.0,0.83740234375,0.0869140625,0.4951171875,11.219512195121952,-16.951219512195124,-2.682926829268293
16_11_19_076,2.0,-4.0,-1.0,0.0,-1.0,1.0,3.0,0.0,0.79296875,0.10107421875,0.505859375,14.390243902439027,-14.085365853658537,-3.231707317073171
16_11_19_124,-10.0,7.0,0.0,1.0,-2.0,0.0,0.0,-4.0,0.7607421875,0.18701171875,0.39453125,0.0,-13.04878048780488,-8.658536585365855
16_11_19_124,-6.0,-8.0,5.0,1.0,2.0,-1.0,-1.0,0.0,0.79736328125,0.15478515625,0.39208984375,0.5487804878048781,-16.097560975609756,-6.890243902439025
16_11_19_124,0.0,18.0,-4.0,-3.0,-4.0,-4.0,-4.0,-20.0,0.8046875,0.14990234375,0.40673828125,1.829268292682927,-18.29268292682927,-5.365853658536586
16_11_19_124,0.0,2.0,-1.0,-1.0,-1.0,-1.0,3.0,17.0,0.7919921875,0.1484375,0.4248046875,1.0365853658536586,-20.365853658536587,-7.073170731707318
16_11_19_124,-2.0,16.0,1.0,1.0,0.0,-3.0,-1.0,1.0,0.8251953125,0.12451171875,0.42578125,1.524390243902439,-20.30487804878049,-5.365853658536586
16_11_19_124,-4.0,-39.0,1.0,-1.0,-1.0,-2.0,-1.0,-6.0,0.837890625,0.09130859375,0.46142578125,5.121951219512195,-19.085365853658537,-4.695121951219512
16_11_19_124,0.0,5.0,-6.0,-3.0,-1.0,0.0,-1.0,-4.0,0.8505859375,0.0830078125,0.47705078125,8.841463414634147,-18.29268292682927,-3.9024390243902443
16_11_19_178,-3.0,2.0,-5.0,-4.0,-6.0,-4.0,-9.0,10.0,0.74609375,0.185546875,0.3916015625,-1.0975609756097562,-21.82926829268293,4.939024390243903
16_11_19_178,4.0,-6.0,5.0,-9.0,-4.0,-4.0,2.0,15.0,0.68505859375,0.2626953125,0.4208984375,-11.829268292682928,-21.585365853658537,3.353658536585366
16_11_19_178,6.0,-16.0,1.0,1.0,-2.0,-1.0,5.0,1.0,0.67529296875,0.28662109375,0.427734375,-20.48780487804878,-20.243902439024392,-1.7682926829268295
16_11_19_178,-3.0,5.0,-3.0,1.0,-3.0,0.0,-3.0,-17.0,0.81005859375,0.20458984375,0.4326171875,-18.658536585365855,-20.914634146341466,-5.731707317073171
16_11_19_178,-4.0,-18.0,4.0,2.0,3.0,-1.0,-4.0,-5.0,0.958984375,0.119140625,0.45654296875,-3.7195121951219514,-17.5609756097561,-8.353658536585366
16_11_19_178,4.0,9.0,-10.0,0.0,-2.0,-1.0,-1.0,-5.0,0.95556640625,0.13330078125,0.44775390625,2.9268292682926833,-11.402439024390246,-9.817073170731708
16_11_19_178,1.0,2.0,-3.0,-4.0,-2.0,-4.0,-3.0,11.0,0.7607421875,0.18701171875,0.39453125,0.0,-13.04878048780488,-8.658536585365855
16_11_19_178,4.0,22.0,-17.0,-5.0,-3.0,-2.0,6.0,-20.0,0.79736328125,0.15478515625,0.39208984375,0.5487804878048781,-16.097560975609756,-6.890243902439025
16_11_19_178,-3.0,-11.0,-3.0,5.0,-3.0,-3.0,-3.0,8.0,0.8046875,0.14990234375,0.40673828125,1.829268292682927,-18.29268292682927,-5.365853658536586
16_11_19_178,-7.0,8.0,3.0,-1.0,1.0,3.0,-3.0,2.0,0.7919921875,0.1484375,0.4248046875,1.0365853658536586,-20.365853658536587,-7.073170731707318
16_11_19_236,21.0,10.0,10.0,1.0,-1.0,-3.0,3.0,0.0,0.93994140625,0.2705078125,0.37109375,1.4634146341463417,-29.573170731707318,-2.987804878048781
16_11_19_236,-23.0,-3.0,-2.0,-3.0,-3.0,0.0,-10.0,-7.0,0.8544921875,0.22509765625,0.38330078125,7.01219512195122,-26.463414634146343,2.25609756097561
16_11_19_236,0.0,-3.0,-1.0,0.0,-5.0,-2.0,1.0,-31.0,0.74609375,0.185546875,0.3916015625,-1.0975609756097562,-21.82926829268293,4.939024390243903
16_11_19_236,4.0,-3.0,-1.0,-4.0,0.0,4.0,-1.0,28.0,0.68505859375,0.2626953125,0.4208984375,-11.829268292682928,-21.585365853658537,3.353658536585366
16_11_19_236,-4.0,-2.0,-1.0,-2.0,-1.0,0.0,-4.0,-21.0,0.67529296875,0.28662109375,0.427734375,-20.48780487804878,-20.243902439024392,-1.7682926829268295
16_11_19_236,-7.0,-7.0,-2.0,0.0,-3.0,1.0,2.0,-21.0,0.81005859375,0.20458984375,0.4326171875,-18.658536585365855,-20.914634146341466,-5.731707317073171
16_11_19_236,-3.0,2.0,-5.0,-4.0,-6.0,-4.0,-9.0,10.0,0.958984375,0.119140625,0.45654296875,-3.7195121951219514,-17.5609756097561,-8.353658536585366
16_11_19_236,4.0,-6.0,5.0,-9.0,-4.0,-4.0,2.0,15.0,0.95556640625,0.13330078125,0.44775390625,2.9268292682926833,-11.402439024390246,-9.817073170731708
16_11_19_236,6.0,-16.0,1.0,1.0,-2.0,-1.0,5.0,1.0,0.7607421875,0.18701171875,0.39453125,0.0,-13.04878048780488,-8.658536585365855
16_11_19_236,-3.0,5.0,-3.0,1.0,-3.0,0.0,-3.0,-17.0,0.79736328125,0.15478515625,0.39208984375,0.5487804878048781,-16.097560975609756,-6.890243902439025
16_11_19_289,0.0,7.0,6.0,0.0,2.0,7.0,3.0,-3.0,0.8359375,0.345703125,0.33837890625,-32.5609756097561,-24.512195121951223,2.1341463414634148
16_11_19_289,-20.0,4.0,8.0,-3.0,-2.0,1.0,1.0,1.0,0.89990234375,0.4208984375,0.29443359375,-27.31707317073171,-25.48780487804878,0.06097560975609757
16_11_19_289,18.0,-36.0,-32.0,-3.0,-1.0,-1.0,1.0,-22.0,0.95751953125,0.3388671875,0.33837890625,-11.28048780487805,-28.719512195121954,-2.073170731707317
16_11_19_289,-10.0,14.0,13.0,2.0,0.0,7.0,5.0,11.0,0.93994140625,0.2705078125,0.37109375,1.4634146341463417,-29.573170731707318,-2.987804878048781
16_11_19_289,-8.0,-26.0,-3.0,2.0,-2.0,0.0,31.0,-9.0,0.8544921875,0.22509765625,0.38330078125,7.01219512195122,-26.463414634146343,2.25609756097561
16_11_19_289,0.0,-17.0,2.0,-2.0,-3.0,0.0,0.0,-8.0,0.74609375,0.185546875,0.3916015625,-1.0975609756097562,-21.82926829268293,4.939024390243903
16_11_19_289,5.0,6.0,3.0,2.0,-2.0,2.0,-2.0,2.0,0.68505859375,0.2626953125,0.4208984375,-11.829268292682928,-21.585365853658537,3.353658536585366
16_11_19_289,8.0,19.0,3.0,-2.0,-5.0,-3.0,-2.0,2.0,0.67529296875,0.28662109375,0.427734375,-20.48780487804878,-20.243902439024392,-1.7682926829268295
16_11_19_289,0.0,-10.0,-4.0,0.0,1.0,4.0,1.0,-3.0,0.81005859375,0.20458984375,0.4326171875,-18.658536585365855,-20.914634146341466,-5.731707317073171
16_11_19_289,-4.0,20.0,-3.0,2.0,1.0,6.0,-6.0,3.0,0.958984375,0.119140625,0.45654296875,-3.7195121951219514,-17.5609756097561,-8.353658536585366
16_11_19_330,-10.0,-29.0,1.0,0.0,-1.0,2.0,-3.0,-10.0,0.837890625,0.31591796875,0.35791015625,3.5975609756097566,-26.646341463414636,1.402439024390244
16_11_19_330,-16.0,4.0,-29.0,-6.0,-3.0,-5.0,1.0,-7.0,0.8154296875,0.24560546875,0.34814453125,-19.573170731707318,-25.670731707317074,3.414634146341464
16_11_19_330,-10.0,14.0,-3.0,-2.0,-1.0,6.0,0.0,2.0,0.8359375,0.345703125,0.33837890625,-32.5609756097561,-24.512195121951223,2.1341463414634148
16_11_19_330,53.0,-12.0,5.0,-3.0,-1.0,-6.0,-7.0,10.0,0.89990234375,0.4208984375,0.29443359375,-27.31707317073171,-25.48780487804878,0.06097560975609757
16_11_19_330,10.0,34.0,7.0,-10.0,-6.0,-7.0,0.0,-9.0,0.95751953125,0.3388671875,0.33837890625,-11.28048780487805,-28.719512195121954,-2.073170731707317
16_11_19_330,23.0,60.0,5.0,7.0,6.0,5.0,4.0,36.0,0.93994140625,0.2705078125,0.37109375,1.4634146341463417,-29.573170731707318,-2.987804878048781
16_11_19_330,-16.0,-16.0,7.0,5.0,1.0,1.0,1.0,-48.0,0.8544921875,0.22509765625,0.38330078125,7.01219512195122,-26.463414634146343,2.25609756097561
16_11_19_330,5.0,2.0,-10.0,-3.0,-3.0,-1.0,-5.0,16.0,0.74609375,0.185546875,0.3916015625,-1.0975609756097562,-21.82926829268293,4.939024390243903
16_11_19_330,-6.0,1.0,-1.0,-1.0,-2.0,-4.0,-1.0,-11.0,0.68505859375,0.2626953125,0.4208984375,-11.829268292682928,-21.585365853658537,3.353658536585366
16_11_19_380,0.0,1.0,0.0,-1.0,-4.0,-5.0,-4.0,-1.0,0.82470703125,0.31298828125,0.3271484375,12.378048780487806,-27.80487804878049,0.7926829268292683
16_11_19_380,6.0,-2.0,0.0,3.0,4.0,3.0,-3.0,6.0,0.837890625,0.31591796875,0.35791015625,3.5975609756097566,-26.646341463414636,1.402439024390244
16_11_19_380,6.0,-9.0,-5.0,2.0,2.0,0.0,-2.0,0.0,0.8154296875,0.24560546875,0.34814453125,-19.573170731707318,-25.670731707317074,3.414634146341464
16_11_19_380,-3.0,-6.0,4.0,2.0,-2.0,-3.0,0.0,-4.0,0.8359375,0.345703125,0.33837890625,-32.5609756097561,-24.512195121951223,2.1341463414634148
16_11_19_380,-3.0,19.0,5.0,2.0,0.0,0.0,-3.0,-10.0,0.89990234375,0.4208984375,0.29443359375,-27.31707317073171,-25.48780487804878,0.06097560975609757
16_11_19_380,-10.0,-29.0,1.0,0.0,-1.0,2.0,-3.0,-10.0,0.95751953125,0.3388671875,0.33837890625,-11.28048780487805,-28.719512195121954,-2.073170731707317
16_11_19_380,-16.0,4.0,-29.0,-6.0,-3.0,-5.0,1.0,-7.0,0.93994140625,0.2705078125,0.37109375,1.4634146341463417,-29.573170731707318,-2.987804878048781
16_11_19_380,-10.0,14.0,-3.0,-2.0,-1.0,6.0,0.0,2.0,0.8544921875,0.22509765625,0.38330078125,7.01219512195122,-26.463414634146343,2.25609756097561
16_11_19_380,53.0,-12.0,5.0,-3.0,-1.0,-6.0,-7.0,10.0,0.74609375,0.185546875,0.3916015625,-1.0975609756097562,-21.82926829268293,4.939024390243903
16_11_19_380,10.0,34.0,7.0,-10.0,-6.0,-7.0,0.0,-9.0,0.68505859375,0.2626953125,0.4208984375,-11.829268292682928,-21.585365853658537,3.353658536585366
16_11_19_432,15.0,-37.0,10.0,16.0,3.0,-2.0,-1.0,-1.0,0.79052734375,0.1923828125,0.27978515625,12.987804878048781,-3.536585365853659,12.560975609756099
16_11_19_432,-1.0,2.0,5.0,-2.0,2.0,1.0,3.0,-64.0,0.80810546875,0.23876953125,0.2841796875,-3.8414634146341466,-6.2804878048780495,11.036585365853659
16_11_19_432,-24.0,-4.0,-15.0,-9.0,-7.0,-7.0,-2.0,27.0,0.7900390625,0.30224609375,0.3115234375,-14.146341463414636,-13.719512195121952,4.878048780487806
16_11_19_432,30.0,-4.0,-6.0,-4.0,1.0,0.0,0.0,-35.0,0.8408203125,0.3359375,0.30322265625,-5.121951219512195,-22.500000000000004,3.1707317073170733
16_11_19_432,3.0,48.0,27.0,8.0,5.0,1.0,-5.0,11.0,0.82470703125,0.31298828125,0.3271484375,12.378048780487806,-27.80487804878049,0.7926829268292683
16_11_19_432,-2.0,17.0,-35.0,-12.0,-7.0,-2.0,2.0,-11.0,0.837890625,0.31591796875,0.35791015625,3.5975609756097566,-26.646341463414636,1.402439024390244
16_11_19_432,-2.0,-32.0,-45.0,-9.0,-1.0,0.0,3.0,2.0,0.8154296875,0.24560546875,0.34814453125,-19.573170731707318,-25.670731707317074,3.414634146341464
16_11_19_432,3.0,44.0,31.0,13.0,3.0,1.0,-6.0,-7.0,0.8359375,0.345703125,0.33837890625,-32.5609756097561,-24.512195121951223,2.1341463414634148
16_11_19_432,3.0,-10.0,-16.0,1.0,2.0,-1.0,-1.0,-14.0,0.89990234375,0.4208984375,0.29443359375,-27.31707317073171,-25.48780487804878,0.06097560975609757
16_11_19_432,5.0,20.0,2.0,0.0,0.0,-1.0,0.0,-2.0,0.95751953125,0.3388671875,0.33837890625,-11.28048780487805,-28.719512195121954,-2.073170731707317
16_11_19_486,-29.0,-79.0,-93.0,-19.0,-10.0,-5.0,-17.0,-21.0,0.8125,0.10791015625,0.2529296875,20.670731707317074,-3.536585365853659,26.402439024390247
16_11_19_486,14.0,-1.0,-16.0,-3.0,1.0,-11.0,-7.0,26.0,0.8310546875,0.13330078125,0.24951171875,23.10975609756098,-3.048780487804878,21.34146341463415
16_11_19_486,1.0,4.0,32.0,6.0,-2.0,4.0,23.0,50.0,0.826171875,0.18017578125,0.25439453125,20.0609756097561,-3.9024390243902443,15.54878048780488
16_11_19_486,-12.0,8.0,2.0,-3.0,1.0,-3.0,-9.0,-13.0,0.79052734375,0.1923828125,0.27978515625,12.987804878048781,-3.536585365853659,12.560975609756099
16_11_19_486,-4.0,-69.0,-67.0,-12.0,-6.0,-3.0,-3.0,-10.0,0.80810546875,0.23876953125,0.2841796875,-3.8414634146341466,-6.2804878048780495,11.036585365853659
16_11_19_486,56.0,45.0,2.0,-1.0,-4.0,-6.0,0.0,-60.0,0.7900390625,0.30224609375,0.3115234375,-14.146341463414636,-13.719512195121952,4.878048780487806
16_11_19_486,-14.0,-11.0,-6.0,8.0,12.0,6.0,22.0,-6.0,0.8408203125,0.3359375,0.30322265625,-5.121951219512195,-22.500000000000004,3.1707317073170733
16_11_19_486,1.0,10.0,14.0,-3.0,-4.0,1.0,-7.0,2.0,0.82470703125,0.31298828125,0.3271484375,12.378048780487806,-27.80487804878049,0.7926829268292683
16_11_19_486,-8.0,-3.0,-4.0,-4.0,2.0,-1.0,-14.0,-27.0,0.837890625,0.31591796875,0.35791015625,3.5975609756097566,-26.646341463414636,1.402439024390244
16_11_19_486,-6.0,-4.0,1.0,-3.0,-1.0,1.0,-6.0,-12.0,0.8154296875,0.24560546875,0.34814453125,-19.573170731707318,-25.670731707317074,3.414634146341464
16_11_19_544,-24.0,-1.0,-6.0,0.0,1.0,2.0,-8.0,1.0,1.06689453125,0.06005859375,0.265625,34.81707317073171,4.207317073170732,39.268292682926834
16_11_19_544,-4.0,0.0,0.0,0.0,-5.0,4.0,0.0,14.0,0.916015625,0.04052734375,0.21484375,34.81707317073171,0.30487804878048785,36.524390243902445
16_11_19_544,2.0,5.0,1.0,-5.0,-6.0,-10.0,1.0,3.0,0.85205078125,0.08984375,0.2275390625,32.37804878048781,-3.353658536585366,32.80487804878049
16_11_19_544,25.0,2.0,-1.0,-1.0,-2.0,2.0,-5.0,-6.0,0.8125,0.10791015625,0.2529296875,20.670731707317074,-3.536585365853659,26.402439024390247
16_11_19_544,-38.0,-4.0,4.0,-1.0,2.0,-9.0,-2.0,8.0,0.8310546875,0.13330078125,0.24951171875,23.10975609756098,-3.048780487804878,21.34146341463415
16_11_19_544,21.0,-4.0,-14.0,-1.0,0.0,3.0,-5.0,8.0,0.826171875,0.18017578125,0.25439453125,20.0609756097561,-3.9024390243902443,15.54878048780488
16_11_19_544,0.0,-28.0,-30.0,-3.0,1.0,-2.0,0.0,0.0,0.79052734375,0.1923828125,0.27978515625,12.987804878048781,-3.536585365853659,12.560975609756099
16_11_19_544,2.0,44.0,22.0,7.0,0.0,-10.0,-6.0,-2.0,0.80810546875,0.23876953125,0.2841796875,-3.8414634146341466,-6.2804878048780495,11.036585365853659
16_11_19_544,-12.0,-7.0,12.0,3.0,-1.0,5.0,-20.0,-5.0,0.7900390625,0.30224609375,0.3115234375,-14.146341463414636,-13.719512195121952,4.878048780487806
16_11_19_544,9.0,21.0,32.0,5.0,2.0,13.0,15.0,-8.0,0.8408203125,0.3359375,0.30322265625,-5.121951219512195,-22.500000000000004,3.1707317073170733
16_11_19_581,8.0,2.0,4.0,1.0,8.0,10.0,-25.0,-17.0,1.1923828125,0.18798828125,0.37646484375,46.40243902439025,12.317073170731708,33.41463414634146
16_11_19_581,5.0,-13.0,-24.0,-1.0,-11.0,-1.0,-11.0,-15.0,1.06689453125,0.06005859375,0.265625,34.81707317073171,4.207317073170732,39.268292682926834
16_11_19_581,-21.0,-2.0,15.0,3.0,-1.0,-13.0,13.0,10.0,0.916015625,0.04052734375,0.21484375,34.81707317073171,0.30487804878048785,36.524390243902445
16_11_19_581,-40.0,2.0,-20.0,-3.0,-1.0,-6.0,11.0,6.0,0.85205078125,0.08984375,0.2275390625,32.37804878048781,-3.353658536585366,32.80487804878049
16_11_19_581,-7.0,2.0,-3.0,-4.0,0.0,-4.0,-16.0,9.0,0.8125,0.10791015625,0.2529296875,20.670731707317074,-3.536585365853659,26.402439024390247
16_11_19_581,9.0,-20.0,-7.0,4.0,3.0,2.0,7.0,1.0,0.8310546875,0.13330078125,0.24951171875,23.10975609756098,-3.048780487804878,21.34146341463415
16_11_19_581,-24.0,-1.0,-6.0,0.0,1.0,2.0,-8.0,1.0,0.826171875,0.18017578125,0.25439453125,20.0609756097561,-3.9024390243902443,15.54878048780488
16_11_19_581,-4.0,0.0,0.0,0.0,-5.0,4.0,0.0,14.0,0.79052734375,0.1923828125,0.27978515625,12.987804878048781,-3.536585365853659,12.560975609756099
16_11_19_581,2.0,5.0,1.0,-5.0,-6.0,-10.0,1.0,3.0,0.80810546875,0.23876953125,0.2841796875,-3.8414634146341466,-6.2804878048780495,11.036585365853659
16_11_19_581,25.0,2.0,-1.0,-1.0,-2.0,2.0,-5.0,-6.0,0.7900390625,0.30224609375,0.3115234375,-14.146341463414636,-13.719512195121952,4.878048780487806
16_11_19_635,33.0,15.0,6.0,6.0,1.0,12.0,32.0,8.0,0.783203125,0.13134765625,0.482421875,-23.353658536585368,35.1219512195122,29.939024390243905
16_11_19_635,-33.0,-20.0,-10.0,-8.0,-4.0,-27.0,32.0,-11.0,0.99609375,0.3564453125,0.41162109375,-19.085365853658537,44.57317073170732,19.939024390243905
16_11_19_635,-9.0,-13.0,-9.0,-3.0,2.0,37.0,-13.0,-14.0,1.17529296875,0.349609375,0.40380859375,20.79268292682927,30.487804878048784,24.75609756097561
16_11_19_635,-3.0,-4.0,-7.0,-1.0,5.0,-8.0,-43.0,1.0,1.1923828125,0.18798828125,0.37646484375,46.40243902439025,12.317073170731708,33.41463414634146
16_11_19_635,-19.0,7.0,-2.0,5.0,2.0,-19.0,54.0,-6.0,1.06689453125,0.06005859375,0.265625,34.81707317073171,4.207317073170732,39.268292682926834
16_11_19_635,-7.0,-34.0,-29.0,-11.0,-2.0,-10.0,-85.0,-51.0,0.916015625,0.04052734375,0.21484375,34.81707317073171,0.30487804878048785,36.524390243902445
16_11_19_635,70.0,3.0,-9.0,0.0,6.0,34.0,13.0,57.0,0.85205078125,0.08984375,0.2275390625,32.37804878048781,-3.353658536585366,32.80487804878049
16_11_19_635,18.0,29.0,72.0,33.0,7.0,-4.0,-8.0,30.0,0.8125,0.10791015625,0.2529296875,20.670731707317074,-3.536585365853659,26.402439024390247
16_11_19_635,30.0,5.0,-31.0,-7.0,-8.0,-26.0,-15.0,50.0,0.8310546875,0.13330078125,0.24951171875,23.10975609756098,-3.048780487804878,21.34146341463415
16_11_19_635,-21.0,-10.0,44.0,4.0,1.0,22.0,-16.0,-58.0,0.826171875,0.18017578125,0.25439453125,20.0609756097561,-3.9024390243902443,15.54878048780488
16_11_19_689,-91.0,15.0,80.0,28.0,16.0,10.0,56.0,-7.0,0.8779296875,-0.01513671875,0.68798828125,-35.79268292682927,7.195121951219513,14.634146341463415
16_11_19_689,-19.0,-19.0,3.0,4.0,-1.0,44.0,7.0,-14.0,0.8857421875,0.013671875,0.6181640625,-35.609756097560975,14.695121951219514,23.53658536585366
16_11_19_689,-12.0,-24.0,-46.0,-11.0,-4.0,-22.0,-128.0,-16.0,0.783203125,0.13134765625,0.482421875,-23.353658536585368,35.1219512195122,29.939024390243905
16_11_19_689,9.0,0.0,-6.0,-4.0,-1.0,-13.0,-82.0,13.0,0.99609375,0.3564453125,0.41162109375,-19.085365853658537,44.57317073170732,19.939024390243905
16_11_19_689,7.0,0.0,11.0,2.0,1.0,11.0,127.0,-47.0,1.17529296875,0.349609375,0.40380859375,20.79268292682927,30.487804878048784,24.75609756097561
16_11_19_689,-3.0,-7.0,-9.0,0.0,-3.0,13.0,97.0,43.0,1.1923828125,0.18798828125,0.37646484375,46.40243902439025,12.317073170731708,33.41463414634146
16_11_19_689,-8.0,-10.0,-4.0,-2.0,1.0,-16.0,-98.0,-8.0,1.06689453125,0.06005859375,0.265625,34.81707317073171,4.207317073170732,39.268292682926834
16_11_19_689,12.0,5.0,3.0,1.0,2.0,9.0,-48.0,-12.0,0.916015625,0.04052734375,0.21484375,34.81707317073171,0.30487804878048785,36.524390243902445
16_11_19_689,33.0,15.0,6.0,6.0,1.0,12.0,32.0,8.0,0.85205078125,0.08984375,0.2275390625,32.37804878048781,-3.353658536585366,32.80487804878049
16_11_19_689,-33.0,-20.0,-10.0,-8.0,-4.0,-27.0,32.0,-11.0,0.8125,0.10791015625,0.2529296875,20.670731707317074,-3.536585365853659,26.402439024390247
16_11_19_746,-99.0,14.0,-9.0,3.0,-18.0,-25.0,24.0,127.0,0.8974609375,0.0849609375,0.41748046875,-32.25609756097561,-4.51219512195122,3.780487804878049
16_11_19_746,40.0,71.0,15.0,53.0,33.0,22.0,91.0,2.0,0.7666015625,0.16796875,0.54736328125,-11.158536585365855,-1.1585365853658538,8.414634146341465
16_11_19_746,28.0,-3.0,-4.0,-6.0,7.0,8.0,6.0,-5.0,0.783203125,0.1240234375,0.61083984375,-3.536585365853659,3.414634146341464,7.560975609756098
16_11_19_746,-36.0,35.0,-13.0,15.0,-2.0,-5.0,-22.0,-128.0,0.8779296875,-0.01513671875,0.68798828125,-35.79268292682927,7.195121951219513,14.634146341463415
16_11_19_746,39.0,-47.0,-6.0,-9.0,-3.0,4.0,39.0,70.0,0.8857421875,0.013671875,0.6181640625,-35.609756097560975,14.695121951219514,23.53658536585366
16_11_19_746,6.0,-3.0,36.0,4.0,-3.0,3.0,9.0,-5.0,0.783203125,0.13134765625,0.482421875,-23.353658536585368,35.1219512195122,29.939024390243905
16_11_19_746,-14.0,27.0,-5.0,-6.0,-10.0,-9.0,-9.0,-42.0,0.99609375,0.3564453125,0.41162109375,-19.085365853658537,44.57317073170732,19.939024390243905
16_11_19_746,-1.0,10.0,10.0,7.0,5.0,-1.0,-4.0,-9.0,1.17529296875,0.349609375,0.40380859375,20.79268292682927,30.487804878048784,24.75609756097561
16_11_19_746,-6.0,-4.0,51.0,-1.0,1.0,-9.0,-44.0,-20.0,1.1923828125,0.18798828125,0.37646484375,46.40243902439025,12.317073170731708,33.41463414634146
16_11_19_789,-19.0,-78.0,-19.0,0.0,-5.0,-12.0,-36.0,127.0,1.01513671875,0.0322265625,0.31103515625,-19.146341463414636,-3.536585365853659,4.451219512195122
16_11_19_789,-69.0,72.0,8.0,9.0,9.0,-2.0,24.0,-128.0,0.8974609375,0.0849609375,0.41748046875,-32.25609756097561,-4.51219512195122,3.780487804878049
16_11_19_789,61.0,-31.0,-82.0,-16.0,-4.0,11.0,-18.0,18.0,0.7666015625,0.16796875,0.54736328125,-11.158536585365855,-1.1585365853658538,8.414634146341465
16_11_19_789,-99.0,14.0,-9.0,3.0,-18.0,-25.0,24.0,127.0,0.783203125,0.1240234375,0.61083984375,-3.536585365853659,3.414634146341464,7.560975609756098
16_11_19_789,40.0,71.0,15.0,53.0,33.0,22.0,91.0,2.0,0.8779296875,-0.01513671875,0.68798828125,-35.79268292682927,7.195121951219513,14.634146341463415
16_11_19_789,28.0,-3.0,-4.0,-6.0,7.0,8.0,6.0,-5.0,0.8857421875,0.013671875,0.6181640625,-35.609756097560975,14.695121951219514,23.53658536585366
16_11_19_789,-36.0,35.0,-13.0,15.0,-2.0,-5.0,-22.0,-128.0,0.783203125,0.13134765625,0.482421875,-23.353658536585368,35.1219512195122,29.939024390243905
16_11_19_789,39.0,-47.0,-6.0,-9.0,-3.0,4.0,39.0,70.0,0.99609375,0.3564453125,0.41162109375,-19.085365853658537,44.57317073170732,19.939024390243905
16_11_19_789,6.0,-3.0,36.0,4.0,-3.0,3.0,9.0,-5.0,1.17529296875,0.349609375,0.40380859375,20.79268292682927,30.487804878048784,24.75609756097561
16_11_19_789,-14.0,27.0,-5.0,-6.0,-10.0,-9.0,-9.0,-42.0,1.1923828125,0.18798828125,0.37646484375,46.40243902439025,12.317073170731708,33.41463414634146
16_11_19_838,-19.0,31.0,33.0,7.0,6.0,-30.0,-33.0,-9.0,0.8427734375,0.07470703125,0.556640625,4.75609756097561,6.52439024390244,19.390243902439025
16_11_19_838,30.0,-75.0,-50.0,-4.0,-15.0,-10.0,-26.0,-38.0,0.9833984375,0.10986328125,0.32666015625,-7.073170731707318,2.073170731707317,19.573170731707318
16_11_19_838,4.0,-9.0,-17.0,-5.0,-13.0,-3.0,85.0,11.0,0.93359375,0.109375,0.2724609375,-12.621951219512196,-0.1829268292682927,19.390243902439025
16_11_19_838,-25.0,26.0,-33.0,-15.0,-1.0,27.0,115.0,9.0,0.9384765625,0.06103515625,0.29248046875,-8.353658536585366,3.414634146341464,11.463414634146343
16_11_19_838,14.0,-7.0,-1.0,2.0,10.0,-6.0,119.0,-12.0,1.01513671875,0.0322265625,0.31103515625,-19.146341463414636,-3.536585365853659,4.451219512195122
16_11_19_838,0.0,-19.0,41.0,4.0,-12.0,-4.0,-50.0,-20.0,0.8974609375,0.0849609375,0.41748046875,-32.25609756097561,-4.51219512195122,3.780487804878049
16_11_19_838,-29.0,29.0,-14.0,-11.0,-8.0,-6.0,3.0,-22.0,0.7666015625,0.16796875,0.54736328125,-11.158536585365855,-1.1585365853658538,8.414634146341465
16_11_19_838,-9.0,-6.0,8.0,0.0,0.0,5.0,14.0,-11.0,0.783203125,0.1240234375,0.61083984375,-3.536585365853659,3.414634146341464,7.560975609756098
16_11_19_838,2.0,9.0,4.0,7.0,-14.0,-16.0,8.0,6.0,0.8779296875,-0.01513671875,0.68798828125,-35.79268292682927,7.195121951219513,14.634146341463415
16_11_19_838,8.0,10.0,-1.0,-2.0,19.0,10.0,-1.0,-29.0,0.8857421875,0.013671875,0.6181640625,-35.609756097560975,14.695121951219514,23.53658536585366
16_11_19_890,-3.0,2.0,7.0,-3.0,12.0,4.0,-15.0,9.0,0.86181640625,0.02001953125,0.50146484375,5.3048780487804885,-0.24390243902439027,11.158536585365855
16_11_19_890,13.0,25.0,-4.0,-5.0,-8.0,-15.0,-58.0,-11.0,0.763671875,0.04833984375,0.51611328125,-3.9024390243902443,2.804878048780488,14.390243902439027
16_11_19_890,-22.0,-1.0,10.0,-27.0,-12.0,-9.0,1.0,-3.0,0.8427734375,0.07470703125,0.556640625,4.75609756097561,6.52439024390244,19.390243902439025
16_11_19_890,-11.0,-1.0,-7.0,28.0,-4.0,4.0,13.0,9.0,0.9833984375,0.10986328125,0.32666015625,-7.073170731707318,2.073170731707317,19.573170731707318
16_11_19_890,10.0,-29.0,5.0,49.0,24.0,6.0,20.0,-3.0,0.93359375,0.109375,0.2724609375,-12.621951219512196,-0.1829268292682927,19.390243902439025
16_11_19_890,-1.0,32.0,-55.0,14.0,16.0,14.0,-1.0,-8.0,0.9384765625,0.06103515625,0.29248046875,-8.353658536585366,3.414634146341464,11.463414634146343
16_11_19_890,1.0,16.0,91.0,48.0,20.0,11.0,-18.0,8.0,1.01513671875,0.0322265625,0.31103515625,-19.146341463414636,-3.536585365853659,4.451219512195122
16_11_19_890,-27.0,-6.0,-95.0,-54.0,-27.0,-33.0,-68.0,11.0,0.8974609375,0.0849609375,0.41748046875,-32.25609756097561,-4.51219512195122,3.780487804878049
16_11_19_890,-19.0,31.0,33.0,7.0,6.0,-30.0,-33.0,-9.0,0.7666015625,0.16796875,0.54736328125,-11.158536585365855,-1.1585365853658538,8.414634146341465
16_11_19_890,30.0,-75.0,-50.0,-4.0,-15.0,-10.0,-26.0,-38.0,0.783203125,0.1240234375,0.61083984375,-3.536585365853659,3.414634146341464,7.560975609756098
16_11_19_938,18.0,-4.0,-13.0,17.0,-3.0,13.0,-16.0,17.0,0.86181640625,0.02001953125,0.50146484375,5.3048780487804885,-0.24390243902439027,11.158536585365855
16_11_19_938,-45.0,2.0,10.0,-14.0,-16.0,-12.0,39.0,-43.0,0.763671875,0.04833984375,0.51611328125,-3.9024390243902443,2.804878048780488,14.390243902439027
16_11_19_938,-3.0,2.0,7.0,-3.0,12.0,4.0,-15.0,9.0,0.8427734375,0.07470703125,0.556640625,4.75609756097561,6.52439024390244,19.390243902439025
16_11_19_938,13.0,25.0,-4.0,-5.0,-8.0,-15.0,-58.0,-11.0,0.9833984375,0.10986328125,0.32666015625,-7.073170731707318,2.073170731707317,19.573170731707318
16_11_19_938,-22.0,-1.0,10.0,-27.0,-12.0,-9.0,1.0,-3.0,0.93359375,0.109375,0.2724609375,-12.621951219512196,-0.1829268292682927,19.390243902439025
16_11_19_938,-11.0,-1.0,-7.0,28.0,-4.0,4.0,13.0,9.0,0.9384765625,0.06103515625,0.29248046875,-8.353658536585366,3.414634146341464,11.463414634146343
16_11_19_938,10.0,-29.0,5.0,49.0,24.0,6.0,20.0,-3.0,1.01513671875,0.0322265625,0.31103515625,-19.146341463414636,-3.536585365853659,4.451219512195122
16_11_19_938,-1.0,32.0,-55.0,14.0,16.0,14.0,-1.0,-8.0,0.8974609375,0.0849609375,0.41748046875,-32.25609756097561,-4.51219512195122,3.780487804878049
16_11_19_938,1.0,16.0,91.0,48.0,20.0,11.0,-18.0,8.0,0.7666015625,0.16796875,0.54736328125,-11.158536585365855,-1.1585365853658538,8.414634146341465
16_11_19_938,-27.0,-6.0,-95.0,-54.0,-27.0,-33.0,-68.0,11.0,0.783203125,0.1240234375,0.61083984375,-3.536585365853659,3.414634146341464,7.560975609756098
16_11_19_997,-5.0,55.0,29.0,-14.0,40.0,18.0,-10.0,-1.0,0.91845703125,0.01220703125,0.43212890625,-5.121951219512195,5.0,10.426829268292684
16_11_19_997,2.0,17.0,127.0,60.0,10.0,-5.0,-2.0,-6.0,0.93701171875,0.06298828125,0.5029296875,7.01219512195122,-0.48780487804878053,13.658536585365855
16_11_19_997,-5.0,-17.0,-83.0,-57.0,-13.0,-12.0,-61.0,-24.0,0.86181640625,0.02001953125,0.50146484375,5.3048780487804885,-0.24390243902439027,11.158536585365855
16_11_19_997,48.0,-20.0,-44.0,25.0,5.0,-13.0,-17.0,59.0,0.763671875,0.04833984375,0.51611328125,-3.9024390243902443,2.804878048780488,14.390243902439027
16_11_19_997,13.0,-1.0,-73.0,-22.0,-11.0,4.0,29.0,4.0,0.8427734375,0.07470703125,0.556640625,4.75609756097561,6.52439024390244,19.390243902439025
16_11_19_997,3.0,2.0,44.0,-9.0,-5.0,0.0,-2.0,-4.0,0.9833984375,0.10986328125,0.32666015625,-7.073170731707318,2.073170731707317,19.573170731707318
16_11_19_997,-18.0,-26.0,18.0,1.0,34.0,18.0,-62.0,-14.0,0.93359375,0.109375,0.2724609375,-12.621951219512196,-0.1829268292682927,19.390243902439025
16_11_19_997,14.0,11.0,-6.0,-4.0,-15.0,-38.0,69.0,-1.0,0.9384765625,0.06103515625,0.29248046875,-8.353658536585366,3.414634146341464,11.463414634146343
16_11_19_997,-11.0,-17.0,33.0,-24.0,-8.0,3.0,18.0,-57.0,1.01513671875,0.0322265625,0.31103515625,-19.146341463414636,-3.536585365853659,4.451219512195122
16_11_19_997,-3.0,-14.0,-22.0,-16.0,-6.0,2.0,2.0,-19.0,0.8974609375,0.0849609375,0.41748046875,-32.25609756097561,-4.51219512195122,3.780487804878049
16_11_20_040,-2.0,3.0,-3.0,20.0,3.0,53.0,-71.0,30.0,0.91064453125,0.06494140625,0.39990234375,-26.219512195121954,9.085365853658537,-5.182926829268293
16_11_20_040,28.0,-12.0,-41.0,-11.0,0.0,-29.0,127.0,12.0,0.95654296875,0.0419921875,0.3994140625,-13.231707317073171,4.390243902439025,-2.682926829268293
16_11_20_040,0.0,43.0,127.0,41.0,48.0,15.0,-18.0,-23.0,0.91845703125,0.01220703125,0.43212890625,-5.121951219512195,5.0,10.426829268292684
16_11_20_040,5.0,12.0,-29.0,19.0,-27.0,-2.0,-75.0,-2.0,0.93701171875,0.06298828125,0.5029296875,7.01219512195122,-0.48780487804878053,13.658536585365855
16_11_20_040,-11.0,-61.0,-84.0,-38.0,-11.0,4.0,86.0,-8.0,0.86181640625,0.02001953125,0.50146484375,5.3048780487804885,-0.24390243902439027,11.158536585365855
16_11_20_040,-1.0,-9.0,-67.0,-37.0,-26.0,-22.0,-69.0,4.0,0.763671875,0.04833984375,0.51611328125,-3.9024390243902443,2.804878048780488,14.390243902439027
