Timestamps,channel_1,channel_2,channel_3,channel_4,channel_5,channel_6,channel_7,channel_8,ACC_X,ACC_Y,ACC_Z,GYR_X,GYR_Y,GYR_Z
15_00_20_539,0.0,2.0,-1.0,-1.0,0.0,-1.0,-2.0,-1.0,0.95654296875,-0.2890625,0.1162109375,-28.170731707317074,-0.48780487804878053,-3.5975609756097566
15_00_20_539,-2.0,0.0,-1.0,1.0,-1.0,2.0,-3.0,0.0,0.978515625,-0.27978515625,0.1064453125,-26.402439024390247,-0.7926829268292683,-6.463414634146342
15_00_20_539,-3.0,-1.0,-2.0,-1.0,0.0,-3.0,-1.0,-2.0,0.98876953125,-0.267578125,0.09814453125,-23.902439024390247,-0.9756097560975611,-10.365853658536587
15_00_20_539,-1.0,-2.0,-2.0,-3.0,-5.0,-1.0,-1.0,-4.0,0.98974609375,-0.2587890625,0.08740234375,-19.085365853658537,-1.707317073170732,-14.817073170731708
15_00_20_539,1.0,-1.0,-1.0,-2.0,0.0,-2.0,-4.0,-1.0,0.98876953125,-0.26318359375,0.08642578125,-14.26829268292683,-1.9512195121951221,-19.695121951219512
15_00_20_539,-2.0,0.0,0.0,-2.0,0.0,1.0,-2.0,-1.0,0.9755859375,-0.29052734375,0.09326171875,-13.109756097560977,-1.9512195121951221,-24.695121951219516
15_00_20_539,0.0,-3.0,0.0,-1.0,-3.0,-1.0,-3.0,1.0,0.0,0.0,0.0,0.0,0.0,0.0
15_00_20_539,-4.0,-3.0,0.0,-2.0,-3.0,-4.0,0.0,-3.0,0.0,0.0,0.0,0.0,0.0,0.0
15_00_20_539,-2.0,-1.0,-5.0,1.0,1.0,-1.0,-3.0,-4.0,0.0,0.0,0.0,0.0,0.0,0.0
15_00_20_539,0.0,-1.0,0.0,-2.0,-3.0,0.0,-1.0,0.0,0.0,0.0,0.0,0.0,0.0,0.0
15_00_20_598,-3.0,1.0,7.0,1.0,-1.0,-2.0,-2.0,-1.0,0.91748046875,-0.32861328125,0.140625,-27.987804878048784,-1.9512195121951221,0.30487804878048785
15_00_20_598,-2.0,-4.0,-2.0,-1.0,1.0,-3.0,-1.0,-1.0,0.9404296875,-0.30908203125,0.12255859375,-28.84146341463415,-0.3658536585365854,-1.2195121951219514
15_00_20_598,-3.0,0.0,1.0,0.0,-2.0,-1.0,-3.0,0.0,0.95654296875,-0.2890625,0.1162109375,-28.170731707317074,-0.48780487804878053,-3.5975609756097566
15_00_20_598,-1.0,-4.0,-1.0,0.0,-3.0,2.0,-3.0,0.0,0.978515625,-0.27978515625,0.1064453125,-26.402439024390247,-0.7926829268292683,-6.463414634146342
15_00_20_598,1.0,-3.0,-2.0,0.0,1.0,1.0,-3.0,-1.0,0.98876953125,-0.267578125,0.09814453125,-23.902439024390247,-0.9756097560975611,-10.365853658536587
15_00_20_598,-3.0,-2.0,-5.0,-4.0,2.0,0.0,-3.0,0.0,0.98974609375,-0.2587890625,0.08740234375,-19.085365853658537,-1.707317073170732,-14.817073170731708
15_00_20_598,1.0,1.0,-3.0,2.0,-2.0,-1.0,-1.0,-2.0,0.98876953125,-0.26318359375,0.08642578125,-14.26829268292683,-1.9512195121951221,-19.695121951219512
15_00_20_598,-1.0,0.0,-2.0,-3.0,-2.0,-2.0,-5.0,2.0,0.9755859375,-0.29052734375,0.09326171875,-13.109756097560977,-1.9512195121951221,-24.695121951219516
15_00_20_598,0.0,0.0,0.0,-2.0,1.0,0.0,1.0,-5.0,0.0,0.0,0.0,0.0,0.0,0.0
15_00_20_598,-2.0,-3.0,0.0,-3.0,-3.0,2.0,-2.0,-3.0,0.0,0.0,0.0,0.0,0.0,0.0
15_00_20_643,-1.0,0.0,-4.0,1.0,-1.0,0.0,-2.0,0.0,0.91845703125,-0.36669921875,0.18310546875,-13.719512195121952,-10.24390243902439,-1.8902439024390245
15_00_20_643,-3.0,-1.0,0.0,-2.0,-1.0,1.0,-1.0,-1.0,0.9111328125,-0.36572265625,0.166015625,-18.658536585365855,-6.951219512195123,-0.6097560975609757
15_00_20_643,-2.0,-3.0,-5.0,-2.0,-2.0,-2.0,-1.0,-2.0,0.91552734375,-0.35693359375,0.1513671875,-24.32926829268293,-4.207317073170732,0.3658536585365854
15_00_20_643,-2.0,1.0,-6.0,-3.0,-3.0,-1.0,-3.0,-1.0,0.91748046875,-0.32861328125,0.140625,-27.987804878048784,-1.9512195121951221,0.30487804878048785
15_00_20_643,-1.0,2.0,12.0,6.0,-5.0,-1.0,-2.0,-1.0,0.9404296875,-0.30908203125,0.12255859375,-28.84146341463415,-0.3658536585365854,-1.2195121951219514
15_00_20_643,0.0,0.0,1.0,-1.0,-1.0,-3.0,-1.0,-1.0,0.95654296875,-0.2890625,0.1162109375,-28.170731707317074,-0.48780487804878053,-3.5975609756097566
15_00_20_643,-3.0,-2.0,-6.0,2.0,0.0,-2.0,-3.0,-2.0,0.978515625,-0.27978515625,0.1064453125,-26.402439024390247,-0.7926829268292683,-6.463414634146342
15_00_20_643,-1.0,-1.0,0.0,0.0,1.0,2.0,-2.0,-2.0,0.98876953125,-0.267578125,0.09814453125,-23.902439024390247,-0.9756097560975611,-10.365853658536587
15_00_20_643,-1.0,-3.0,-3.0,-1.0,-1.0,0.0,1.0,0.0,0.98974609375,-0.2587890625,0.08740234375,-19.085365853658537,-1.707317073170732,-14.817073170731708
15_00_20_643,-2.0,-1.0,-2.0,-3.0,-3.0,-3.0,-1.0,0.0,0.98876953125,-0.26318359375,0.08642578125,-14.26829268292683,-1.9512195121951221,-19.695121951219512
15_00_20_692,-2.0,-3.0,-1.0,-2.0,0.0,-1.0,-1.0,-4.0,0.9296875,-0.3642578125,0.21142578125,-4.634146341463415,-15.975609756097562,-5.182926829268293
15_00_20_692,0.0,-3.0,0.0,-1.0,1.0,-1.0,0.0,2.0,0.9208984375,-0.36865234375,0.2001953125,-8.475609756097562,-12.926829268292684,-3.7195121951219514
15_00_20_692,-2.0,-2.0,-2.0,-2.0,-1.0,-1.0,-3.0,0.0,0.91845703125,-0.36669921875,0.18310546875,-13.719512195121952,-10.24390243902439,-1.8902439024390245
15_00_20_692,-1.0,2.0,0.0,-3.0,0.0,-1.0,-4.0,-2.0,0.9111328125,-0.36572265625,0.166015625,-18.658536585365855,-6.951219512195123,-0.6097560975609757
15_00_20_692,-2.0,-1.0,-5.0,-4.0,-2.0,-1.0,-1.0,-2.0,0.91552734375,-0.35693359375,0.1513671875,-24.32926829268293,-4.207317073170732,0.3658536585365854
15_00_20_692,-1.0,1.0,-1.0,-2.0,-2.0,0.0,-4.0,-2.0,0.91748046875,-0.32861328125,0.140625,-27.987804878048784,-1.9512195121951221,0.30487804878048785
15_00_20_692,-1.0,-2.0,-2.0,0.0,-3.0,1.0,-2.0,1.0,0.9404296875,-0.30908203125,0.12255859375,-28.84146341463415,-0.3658536585365854,-1.2195121951219514
15_00_20_692,0.0,0.0,2.0,-3.0,0.0,-2.0,-2.0,-2.0,0.95654296875,-0.2890625,0.1162109375,-28.170731707317074,-0.48780487804878053,-3.5975609756097566
15_00_20_692,0.0,-3.0,1.0,-1.0,-2.0,-3.0,-3.0,-1.0,0.978515625,-0.27978515625,0.1064453125,-26.402439024390247,-0.7926829268292683,-6.463414634146342
15_00_20_692,-1.0,1.0,0.0,-1.0,0.0,2.0,-1.0,0.0,0.98876953125,-0.267578125,0.09814453125,-23.902439024390247,-0.9756097560975611,-10.365853658536587
15_00_20_746,0.0,-5.0,0.0,0.0,1.0,-1.0,-1.0,1.0,0.9326171875,-0.345703125,0.23388671875,-8.048780487804878,-16.34146341463415,-7.134146341463415
15_00_20_746,0.0,-1.0,1.0,1.0,-1.0,0.0,-2.0,0.0,0.9296875,-0.3642578125,0.21142578125,-4.634146341463415,-15.975609756097562,-5.182926829268293
15_00_20_746,0.0,-2.0,-3.0,-1.0,3.0,-3.0,-3.0,0.0,0.9208984375,-0.36865234375,0.2001953125,-8.475609756097562,-12.926829268292684,-3.7195121951219514
15_00_20_746,0.0,-1.0,3.0,0.0,-1.0,1.0,-2.0,-1.0,0.91845703125,-0.36669921875,0.18310546875,-13.719512195121952,-10.24390243902439,-1.8902439024390245
15_00_20_746,0.0,1.0,-3.0,1.0,-3.0,-1.0,1.0,-2.0,0.9111328125,-0.36572265625,0.166015625,-18.658536585365855,-6.951219512195123,-0.6097560975609757
15_00_20_746,-1.0,-2.0,-1.0,-5.0,1.0,1.0,0.0,-1.0,0.91552734375,-0.35693359375,0.1513671875,-24.32926829268293,-4.207317073170732,0.3658536585365854
15_00_20_746,-1.0,-2.0,1.0,0.0,-2.0,-2.0,-4.0,-2.0,0.91748046875,-0.32861328125,0.140625,-27.987804878048784,-1.9512195121951221,0.30487804878048785
15_00_20_746,1.0,2.0,1.0,-1.0,-2.0,-1.0,-2.0,0.0,0.9404296875,-0.30908203125,0.12255859375,-28.84146341463415,-0.3658536585365854,-1.2195121951219514
15_00_20_796,-1.0,1.0,1.0,0.0,0.0,-2.0,0.0,-1.0,0.978515625,-0.23291015625,0.2294921875,43.35365853658537,-14.390243902439027,-0.6097560975609757
15_00_20_796,0.0,-1.0,-1.0,-1.0,2.0,-2.0,0.0,-1.0,0.9765625,-0.248046875,0.24462890625,34.146341463414636,-16.097560975609756,-2.5
15_00_20_796,0.0,0.0,-1.0,-2.0,3.0,-1.0,-2.0,1.0,0.9541015625,-0.30419921875,0.25341796875,18.963414634146343,-16.70731707317073,-4.695121951219512
15_00_20_796,-1.0,-4.0,-2.0,-1.0,0.0,0.0,-1.0,-2.0,0.9404296875,-0.3525390625,0.24072265625,3.048780487804878,-16.52439024390244,-6.707317073170732
15_00_20_796,1.0,2.0,-3.0,-2.0,-3.0,1.0,-2.0,0.0,0.9326171875,-0.345703125,0.23388671875,-8.048780487804878,-16.34146341463415,-7.134146341463415
15_00_20_796,-2.0,-2.0,-2.0,-2.0,-1.0,-2.0,0.0,-3.0,0.9296875,-0.3642578125,0.21142578125,-4.634146341463415,-15.975609756097562,-5.182926829268293
15_00_20_796,-1.0,0.0,5.0,-2.0,-2.0,1.0,-1.0,-2.0,0.9208984375,-0.36865234375,0.2001953125,-8.475609756097562,-12.926829268292684,-3.7195121951219514
15_00_20_796,-2.0,-4.0,-4.0,-2.0,-3.0,-2.0,-1.0,-3.0,0.91845703125,-0.36669921875,0.18310546875,-13.719512195121952,-10.24390243902439,-1.8902439024390245
15_00_20_796,-1.0,0.0,-3.0,0.0,-1.0,1.0,-5.0,4.0,0.9111328125,-0.36572265625,0.166015625,-18.658536585365855,-6.951219512195123,-0.6097560975609757
15_00_20_845,0.0,-4.0,-3.0,-1.0,-1.0,1.0,0.0,0.0,0.9541015625,-0.30419921875,0.25341796875,18.963414634146343,-16.70731707317073,-4.695121951219512
15_00_20_845,0.0,-1.0,-1.0,-1.0,0.0,0.0,-2.0,-1.0,0.9404296875,-0.3525390625,0.24072265625,3.048780487804878,-16.52439024390244,-6.707317073170732
15_00_20_845,1.0,2.0,3.0,-1.0,-2.0,-1.0,-4.0,1.0,0.9326171875,-0.345703125,0.23388671875,-8.048780487804878,-16.34146341463415,-7.134146341463415
15_00_20_845,-1.0,1.0,-2.0,1.0,-2.0,-1.0,-1.0,1.0,0.9296875,-0.3642578125,0.21142578125,-4.634146341463415,-15.975609756097562,-5.182926829268293
15_00_20_845,0.0,-2.0,-3.0,-2.0,1.0,2.0,-1.0,-1.0,0.9208984375,-0.36865234375,0.2001953125,-8.475609756097562,-12.926829268292684,-3.7195121951219514
15_00_20_912,-1.0,2.0,-4.0,-1.0,3.0,1.0,-3.0,0.0,0.9169921875,-0.3037109375,0.1435546875,7.621951219512196,1.2804878048780488,3.5975609756097566
15_00_20_912,-1.0,-5.0,1.0,-1.0,0.0,-1.0,0.0,0.0,0.92724609375,-0.26708984375,0.15478515625,19.695121951219512,-1.4634146341463417,2.7439024390243905
15_00_20_912,2.0,0.0,-1.0,2.0,3.0,-1.0,1.0,-1.0,0.94140625,-0.25048828125,0.15625,34.81707317073171,-6.829268292682928,3.2926829268292686
15_00_20_912,-2.0,1.0,3.0,3.0,1.0,-1.0,-1.0,-2.0,0.9638671875,-0.259765625,0.17724609375,44.75609756097561,-10.30487804878049,2.1341463414634148
15_00_20_912,-1.0,-1.0,2.0,2.0,-1.0,-1.0,2.0,0.0,0.96923828125,-0.25830078125,0.19482421875,47.25609756097561,-12.926829268292684,0.7926829268292683
15_00_20_912,2.0,-1.0,2.0,-2.0,-3.0,-1.0,-4.0,0.0,0.978515625,-0.23291015625,0.2294921875,43.35365853658537,-14.390243902439027,-0.6097560975609757
15_00_20_912,2.0,-1.0,2.0,-1.0,2.0,2.0,1.0,1.0,0.9765625,-0.248046875,0.24462890625,34.146341463414636,-16.097560975609756,-2.5
15_00_20_912,1.0,1.0,-1.0,1.0,-2.0,0.0,-1.0,-1.0,0.9541015625,-0.30419921875,0.25341796875,18.963414634146343,-16.70731707317073,-4.695121951219512
15_00_20_912,-2.0,-1.0,-2.0,-2.0,0.0,-3.0,-3.0,-1.0,0.9404296875,-0.3525390625,0.24072265625,3.048780487804878,-16.52439024390244,-6.707317073170732
15_00_20_964,2.0,1.0,0.0,-1.0,-2.0,0.0,-4.0,-2.0,0.93701171875,-0.31689453125,0.1279296875,20.182926829268293,1.524390243902439,4.573170731707317
15_00_20_964,-2.0,0.0,-2.0,-1.0,-1.0,1.0,-1.0,1.0,0.923828125,-0.33837890625,0.1337890625,13.658536585365855,1.829268292682927,4.207317073170732
15_00_20_964,0.0,-1.0,-3.0,-1.0,1.0,-6.0,-1.0,-1.0,0.923828125,-0.32958984375,0.12890625,5.548780487804878,1.524390243902439,4.024390243902439
15_00_20_964,-1.0,-1.0,1.0,0.0,-1.0,-2.0,-1.0,0.0,0.9169921875,-0.3037109375,0.1435546875,7.621951219512196,1.2804878048780488,3.5975609756097566
15_00_20_964,-4.0,-5.0,-4.0,-1.0,1.0,0.0,-1.0,0.0,0.92724609375,-0.26708984375,0.15478515625,19.695121951219512,-1.4634146341463417,2.7439024390243905
15_00_20_964,-3.0,-3.0,-4.0,0.0,0.0,-1.0,-2.0,-3.0,0.94140625,-0.25048828125,0.15625,34.81707317073171,-6.829268292682928,3.2926829268292686
15_00_20_964,1.0,-2.0,-2.0,0.0,1.0,1.0,-2.0,0.0,0.9638671875,-0.259765625,0.17724609375,44.75609756097561,-10.30487804878049,2.1341463414634148
15_00_20_964,4.0,-3.0,2.0,-1.0,0.0,1.0,0.0,-2.0,0.96923828125,-0.25830078125,0.19482421875,47.25609756097561,-12.926829268292684,0.7926829268292683
15_00_20_964,-3.0,4.0,-1.0,0.0,0.0,2.0,-3.0,-4.0,0.978515625,-0.23291015625,0.2294921875,43.35365853658537,-14.390243902439027,-0.6097560975609757
15_00_21_004,-1.0,-2.0,1.0,-4.0,-2.0,-2.0,1.0,2.0,0.951171875,-0.30078125,0.111328125,20.54878048780488,-0.24390243902439027,10.426829268292684
15_00_21_004,0.0,-2.0,-1.0,0.0,-1.0,0.0,-2.0,0.0,0.9560546875,-0.2978515625,0.1171875,20.48780487804878,-0.3658536585365854,8.414634146341465
15_00_21_004,3.0,-1.0,-1.0,0.0,-1.0,-2.0,0.0,2.0,0.951171875,-0.30419921875,0.1142578125,21.03658536585366,0.30487804878048785,5.914634146341464
15_00_21_004,-3.0,-5.0,-2.0,-4.0,3.0,-2.0,-1.0,-1.0,0.94677734375,-0.31298828125,0.1162109375,21.463414634146343,1.2804878048780488,4.75609756097561
15_00_21_004,0.0,-2.0,-3.0,-3.0,1.0,1.0,2.0,-1.0,0.93701171875,-0.31689453125,0.1279296875,20.182926829268293,1.524390243902439,4.573170731707317
15_00_21_004,2.0,2.0,-3.0,-3.0,1.0,-1.0,0.0,2.0,0.923828125,-0.33837890625,0.1337890625,13.658536585365855,1.829268292682927,4.207317073170732
15_00_21_004,-1.0,-1.0,-1.0,2.0,2.0,0.0,1.0,-1.0,0.923828125,-0.32958984375,0.12890625,5.548780487804878,1.524390243902439,4.024390243902439
15_00_21_004,-1.0,1.0,-3.0,-1.0,-1.0,-4.0,-2.0,-4.0,0.9169921875,-0.3037109375,0.1435546875,7.621951219512196,1.2804878048780488,3.5975609756097566
15_00_21_004,-1.0,0.0,0.0,0.0,0.0,-3.0,-1.0,-2.0,0.92724609375,-0.26708984375,0.15478515625,19.695121951219512,-1.4634146341463417,2.7439024390243905
15_00_21_004,0.0,-4.0,-2.0,-1.0,0.0,-2.0,-1.0,1.0,0.94140625,-0.25048828125,0.15625,34.81707317073171,-6.829268292682928,3.2926829268292686
15_00_21_074,1.0,-3.0,-6.0,-8.0,-2.0,-1.0,1.0,-1.0,0.951171875,-0.30078125,0.111328125,20.54878048780488,-0.24390243902439027,10.426829268292684
15_00_21_074,-1.0,1.0,1.0,0.0,1.0,-6.0,-2.0,-1.0,0.9560546875,-0.2978515625,0.1171875,20.48780487804878,-0.3658536585365854,8.414634146341465
15_00_21_074,-1.0,-1.0,-3.0,-1.0,-2.0,2.0,-3.0,-2.0,0.951171875,-0.30419921875,0.1142578125,21.03658536585366,0.30487804878048785,5.914634146341464
15_00_21_074,-1.0,1.0,-1.0,-1.0,1.0,-1.0,-2.0,-3.0,0.94677734375,-0.31298828125,0.1162109375,21.463414634146343,1.2804878048780488,4.75609756097561
15_00_21_074,-2.0,-1.0,-2.0,-1.0,-1.0,0.0,-1.0,1.0,0.93701171875,-0.31689453125,0.1279296875,20.182926829268293,1.524390243902439,4.573170731707317
15_00_21_074,0.0,-1.0,0.0,0.0,-5.0,-3.0,-1.0,1.0,0.923828125,-0.33837890625,0.1337890625,13.658536585365855,1.829268292682927,4.207317073170732
15_00_21_074,-4.0,-1.0,0.0,-3.0,-1.0,2.0,-1.0,-1.0,0.923828125,-0.32958984375,0.12890625,5.548780487804878,1.524390243902439,4.024390243902439
15_00_21_074,1.0,1.0,-1.0,0.0,0.0,0.0,0.0,1.0,0.9169921875,-0.3037109375,0.1435546875,7.621951219512196,1.2804878048780488,3.5975609756097566
15_00_21_128,0.0,0.0,-7.0,-3.0,-2.0,-4.0,-2.0,-3.0,0.9541015625,-0.3125,0.11669921875,21.585365853658537,2.0121951219512195,16.219512195121954
15_00_21_128,1.0,1.0,-1.0,-5.0,-2.0,0.0,0.0,0.0,0.94775390625,-0.3095703125,0.11376953125,21.097560975609756,1.707317073170732,15.121951219512196
15_00_21_128,-1.0,-1.0,2.0,-1.0,0.0,-2.0,1.0,-3.0,0.95361328125,-0.30126953125,0.107421875,21.463414634146343,1.5853658536585367,13.658536585365855
15_00_21_128,0.0,-2.0,-1.0,2.0,0.0,-3.0,0.0,-1.0,0.953125,-0.296875,0.111328125,21.707317073170735,0.853658536585366,12.317073170731708
15_00_21_128,-1.0,-1.0,-1.0,-2.0,-1.0,-3.0,0.0,-1.0,0.951171875,-0.30078125,0.111328125,20.54878048780488,-0.24390243902439027,10.426829268292684
15_00_21_128,-2.0,-1.0,-2.0,-1.0,-4.0,-2.0,-2.0,1.0,0.9560546875,-0.2978515625,0.1171875,20.48780487804878,-0.3658536585365854,8.414634146341465
15_00_21_128,2.0,2.0,-3.0,0.0,1.0,1.0,-5.0,-1.0,0.951171875,-0.30419921875,0.1142578125,21.03658536585366,0.30487804878048785,5.914634146341464
15_00_21_128,-2.0,-3.0,-5.0,-3.0,-1.0,0.0,-2.0,1.0,0.94677734375,-0.31298828125,0.1162109375,21.463414634146343,1.2804878048780488,4.75609756097561
15_00_21_128,-1.0,-1.0,-3.0,-2.0,-4.0,-3.0,-1.0,-3.0,0.93701171875,-0.31689453125,0.1279296875,20.182926829268293,1.524390243902439,4.573170731707317
15_00_21_176,-2.0,-10.0,-3.0,-6.0,3.0,-2.0,-2.0,-2.0,0.951171875,-0.298828125,0.11865234375,24.81707317073171,1.0365853658536586,17.682926829268293
15_00_21_176,-1.0,2.0,-5.0,-1.0,-3.0,0.0,0.0,0.0,0.95556640625,-0.30615234375,0.12255859375,23.353658536585368,1.829268292682927,17.073170731707318
15_00_21_176,-1.0,3.0,-1.0,5.0,-1.0,0.0,-2.0,0.0,0.9609375,-0.3125,0.12255859375,23.963414634146343,1.829268292682927,16.585365853658537
15_00_21_176,-1.0,0.0,-6.0,-4.0,1.0,-2.0,-2.0,-1.0,0.9599609375,-0.31689453125,0.11572265625,22.926829268292686,2.073170731707317,16.402439024390244
15_00_21_176,-1.0,-3.0,-2.0,0.0,-4.0,-4.0,0.0,1.0,0.9541015625,-0.3125,0.11669921875,21.585365853658537,2.0121951219512195,16.219512195121954
15_00_21_176,-2.0,0.0,2.0,-7.0,-5.0,-2.0,-2.0,-5.0,0.94775390625,-0.3095703125,0.11376953125,21.097560975609756,1.707317073170732,15.121951219512196
15_00_21_176,-2.0,-3.0,-5.0,-4.0,2.0,-1.0,2.0,-3.0,0.95361328125,-0.30126953125,0.107421875,21.463414634146343,1.5853658536585367,13.658536585365855
15_00_21_176,-1.0,2.0,8.0,12.0,0.0,-1.0,1.0,-3.0,0.953125,-0.296875,0.111328125,21.707317073170735,0.853658536585366,12.317073170731708
15_00_21_176,-1.0,-1.0,-2.0,1.0,-2.0,-2.0,2.0,1.0,0.951171875,-0.30078125,0.111328125,20.54878048780488,-0.24390243902439027,10.426829268292684
15_00_21_176,-2.0,-5.0,-13.0,-14.0,-2.0,0.0,-2.0,-1.0,0.9560546875,-0.2978515625,0.1171875,20.48780487804878,-0.3658536585365854,8.414634146341465
15_00_21_238,0.0,-4.0,1.0,-2.0,-4.0,1.0,-3.0,0.0,0.9599609375,-0.302734375,0.11474609375,27.134146341463417,0.5487804878048781,18.10975609756098
15_00_21_238,-3.0,2.0,3.0,2.0,1.0,-1.0,0.0,0.0,0.951171875,-0.298828125,0.11865234375,24.81707317073171,1.0365853658536586,17.682926829268293
15_00_21_238,-1.0,-1.0,0.0,-2.0,0.0,-3.0,-2.0,0.0,0.95556640625,-0.30615234375,0.12255859375,23.353658536585368,1.829268292682927,17.073170731707318
15_00_21_238,1.0,-1.0,-1.0,5.0,1.0,0.0,-3.0,0.0,0.9609375,-0.3125,0.12255859375,23.963414634146343,1.829268292682927,16.585365853658537
15_00_21_238,-2.0,-2.0,0.0,-5.0,-2.0,0.0,1.0,-1.0,0.9599609375,-0.31689453125,0.11572265625,22.926829268292686,2.073170731707317,16.402439024390244
15_00_21_238,0.0,-2.0,-7.0,-11.0,-2.0,-1.0,-4.0,0.0,0.9541015625,-0.3125,0.11669921875,21.585365853658537,2.0121951219512195,16.219512195121954
15_00_21_238,1.0,0.0,-6.0,11.0,-1.0,-1.0,-1.0,-2.0,0.94775390625,-0.3095703125,0.11376953125,21.097560975609756,1.707317073170732,15.121951219512196
15_00_21_238,-1.0,1.0,11.0,12.0,-4.0,-7.0,-2.0,-3.0,0.95361328125,-0.30126953125,0.107421875,21.463414634146343,1.5853658536585367,13.658536585365855
15_00_21_238,-1.0,-3.0,-9.0,-22.0,0.0,0.0,0.0,0.0,0.953125,-0.296875,0.111328125,21.707317073170735,0.853658536585366,12.317073170731708
15_00_21_289,2.0,-2.0,-5.0,-3.0,-2.0,-3.0,0.0,-1.0,0.9423828125,-0.2822265625,0.12646484375,25.121951219512198,0.1829268292682927,15.975609756097562
15_00_21_289,1.0,-6.0,4.0,1.0,1.0,1.0,0.0,-1.0,0.9482421875,-0.28466796875,0.126953125,28.04878048780488,-0.12195121951219513,16.28048780487805
15_00_21_289,-1.0,2.0,-6.0,0.0,0.0,1.0,-2.0,0.0,0.95068359375,-0.29296875,0.1171875,29.81707317073171,-0.1829268292682927,17.073170731707318
15_00_21_289,-2.0,1.0,-2.0,-3.0,1.0,0.0,-3.0,0.0,0.95654296875,-0.30078125,0.1201171875,29.26829268292683,0.1829268292682927,17.804878048780488
15_00_21_289,0.0,-2.0,-1.0,-1.0,-2.0,-1.0,0.0,-2.0,0.9599609375,-0.302734375,0.11474609375,27.134146341463417,0.5487804878048781,18.10975609756098
15_00_21_289,-1.0,-4.0,-1.0,0.0,0.0,-2.0,-2.0,-1.0,0.951171875,-0.298828125,0.11865234375,24.81707317073171,1.0365853658536586,17.682926829268293
15_00_21_289,-3.0,1.0,-5.0,-6.0,0.0,2.0,0.0,0.0,0.95556640625,-0.30615234375,0.12255859375,23.353658536585368,1.829268292682927,17.073170731707318
15_00_21_289,-2.0,-3.0,2.0,-4.0,-3.0,0.0,2.0,0.0,0.9609375,-0.3125,0.12255859375,23.963414634146343,1.829268292682927,16.585365853658537
15_00_21_289,-3.0,-5.0,-7.0,-6.0,-1.0,2.0,-2.0,0.0,0.9599609375,-0.31689453125,0.11572265625,22.926829268292686,2.073170731707317,16.402439024390244
15_00_21_289,2.0,0.0,0.0,11.0,-1.0,4.0,1.0,-1.0,0.9541015625,-0.3125,0.11669921875,21.585365853658537,2.0121951219512195,16.219512195121954
15_00_21_336,0.0,-1.0,1.0,0.0,-3.0,-2.0,-3.0,-3.0,0.94189453125,-0.3037109375,0.1337890625,22.500000000000004,-1.2804878048780488,13.719512195121952
15_00_21_336,-1.0,-1.0,-6.0,-4.0,-3.0,0.0,-1.0,3.0,0.939453125,-0.29248046875,0.12646484375,23.902439024390247,-0.7317073170731708,15.182926829268293
15_00_21_336,0.0,-1.0,4.0,2.0,0.0,0.0,0.0,0.0,0.9423828125,-0.2822265625,0.12646484375,25.121951219512198,0.1829268292682927,15.975609756097562
15_00_21_336,-4.0,2.0,-1.0,-3.0,-2.0,0.0,1.0,0.0,0.9482421875,-0.28466796875,0.126953125,28.04878048780488,-0.12195121951219513,16.28048780487805
15_00_21_336,1.0,3.0,-1.0,1.0,0.0,-1.0,-1.0,-3.0,0.95068359375,-0.29296875,0.1171875,29.81707317073171,-0.1829268292682927,17.073170731707318
15_00_21_336,1.0,-2.0,-3.0,0.0,-2.0,0.0,-2.0,-1.0,0.95654296875,-0.30078125,0.1201171875,29.26829268292683,0.1829268292682927,17.804878048780488
15_00_21_336,2.0,-2.0,-5.0,-3.0,-2.0,-3.0,0.0,-1.0,0.9599609375,-0.302734375,0.11474609375,27.134146341463417,0.5487804878048781,18.10975609756098
15_00_21_336,1.0,-6.0,4.0,1.0,1.0,1.0,0.0,-1.0,0.951171875,-0.298828125,0.11865234375,24.81707317073171,1.0365853658536586,17.682926829268293
15_00_21_336,-1.0,2.0,-6.0,0.0,0.0,1.0,-2.0,0.0,0.95556640625,-0.30615234375,0.12255859375,23.353658536585368,1.829268292682927,17.073170731707318
15_00_21_336,-2.0,1.0,-2.0,-3.0,1.0,0.0,-3.0,0.0,0.9609375,-0.3125,0.12255859375,23.963414634146343,1.829268292682927,16.585365853658537
15_00_21_388,-1.0,0.0,-3.0,-3.0,-1.0,-1.0,-1.0,0.0,0.94482421875,-0.30859375,0.123046875,20.243902439024392,-1.524390243902439,10.914634146341465
15_00_21_388,-1.0,2.0,-4.0,-3.0,-2.0,-1.0,0.0,-2.0,0.94091796875,-0.31103515625,0.1298828125,22.25609756097561,-1.6463414634146343,12.256097560975611
15_00_21_388,-2.0,0.0,1.0,-2.0,-3.0,-2.0,-1.0,-1.0,0.94189453125,-0.3037109375,0.1337890625,22.500000000000004,-1.2804878048780488,13.719512195121952
15_00_21_388,-1.0,-2.0,2.0,0.0,0.0,-2.0,3.0,-1.0,0.939453125,-0.29248046875,0.12646484375,23.902439024390247,-0.7317073170731708,15.182926829268293
15_00_21_388,-1.0,0.0,-2.0,0.0,-3.0,0.0,-2.0,0.0,0.9423828125,-0.2822265625,0.12646484375,25.121951219512198,0.1829268292682927,15.975609756097562
15_00_21_388,-2.0,-2.0,1.0,-2.0,1.0,0.0,1.0,0.0,0.9482421875,-0.28466796875,0.126953125,28.04878048780488,-0.12195121951219513,16.28048780487805
15_00_21_388,2.0,-2.0,-1.0,-2.0,-2.0,1.0,-1.0,-1.0,0.95068359375,-0.29296875,0.1171875,29.81707317073171,-0.1829268292682927,17.073170731707318
15_00_21_388,-2.0,-2.0,-6.0,-1.0,1.0,-2.0,2.0,2.0,0.95654296875,-0.30078125,0.1201171875,29.26829268292683,0.1829268292682927,17.804878048780488
15_00_21_388,-4.0,-4.0,-5.0,1.0,-1.0,-1.0,1.0,-2.0,0.9599609375,-0.302734375,0.11474609375,27.134146341463417,0.5487804878048781,18.10975609756098
15_00_21_454,-1.0,0.0,-3.0,1.0,-1.0,-1.0,0.0,0.0,0.9365234375,-0.29736328125,0.1259765625,13.719512195121952,-2.378048780487805,8.170731707317074
15_00_21_454,0.0,2.0,-4.0,-5.0,-2.0,-1.0,-2.0,0.0,0.9423828125,-0.30126953125,0.1201171875,16.646341463414636,-1.9512195121951221,9.51219512195122
15_00_21_454,-1.0,-3.0,-1.0,-1.0,1.0,-3.0,0.0,0.0,0.94482421875,-0.30859375,0.123046875,20.243902439024392,-1.524390243902439,10.914634146341465
15_00_21_454,-2.0,-2.0,-4.0,-3.0,-1.0,0.0,-2.0,-3.0,0.94091796875,-0.31103515625,0.1298828125,22.25609756097561,-1.6463414634146343,12.256097560975611
15_00_21_454,0.0,1.0,0.0,1.0,0.0,-1.0,-2.0,-1.0,0.94189453125,-0.3037109375,0.1337890625,22.500000000000004,-1.2804878048780488,13.719512195121952
15_00_21_454,0.0,1.0,-1.0,8.0,1.0,0.0,-5.0,1.0,0.939453125,-0.29248046875,0.12646484375,23.902439024390247,-0.7317073170731708,15.182926829268293
15_00_21_454,0.0,-4.0,-6.0,-2.0,0.0,0.0,0.0,1.0,0.9423828125,-0.2822265625,0.12646484375,25.121951219512198,0.1829268292682927,15.975609756097562
15_00_21_454,2.0,-1.0,-2.0,-1.0,1.0,-1.0,-1.0,-1.0,0.9482421875,-0.28466796875,0.126953125,28.04878048780488,-0.12195121951219513,16.28048780487805
15_00_21_500,-2.0,-1.0,-1.0,-4.0,-4.0,0.0,0.0,-1.0,0.93798828125,-0.29833984375,0.126953125,11.707317073170733,-3.048780487804878,6.463414634146342
15_00_21_500,1.0,0.0,4.0,5.0,-2.0,-1.0,0.0,2.0,0.9365234375,-0.29736328125,0.1259765625,13.719512195121952,-2.378048780487805,8.170731707317074
15_00_21_500,-2.0,0.0,3.0,3.0,-1.0,-2.0,-3.0,-4.0,0.9423828125,-0.30126953125,0.1201171875,16.646341463414636,-1.9512195121951221,9.51219512195122
15_00_21_500,-2.0,0.0,-5.0,-4.0,2.0,0.0,0.0,0.0,0.94482421875,-0.30859375,0.123046875,20.243902439024392,-1.524390243902439,10.914634146341465
15_00_21_500,1.0,-3.0,-5.0,0.0,0.0,-1.0,1.0,-2.0,0.94091796875,-0.31103515625,0.1298828125,22.25609756097561,-1.6463414634146343,12.256097560975611
15_00_21_500,1.0,-2.0,-1.0,-5.0,-2.0,0.0,1.0,-1.0,0.94189453125,-0.3037109375,0.1337890625,22.500000000000004,-1.2804878048780488,13.719512195121952
15_00_21_544,-1.0,-2.0,0.0,0.0,-3.0,-1.0,-1.0,-1.0,0.9365234375,-0.31298828125,0.11865234375,8.231707317073171,-6.2804878048780495,2.682926829268293
15_00_21_544,0.0,-2.0,-4.0,-2.0,1.0,-2.0,-1.0,-1.0,0.9365234375,-0.3095703125,0.125,9.207317073170733,-6.219512195121951,3.1097560975609757
15_00_21_544,-6.0,0.0,3.0,0.0,-2.0,2.0,0.0,-3.0,0.9404296875,-0.314453125,0.12744140625,10.670731707317074,-5.670731707317073,3.658536585365854
15_00_21_544,1.0,-1.0,-3.0,4.0,1.0,0.0,0.0,-1.0,0.935546875,-0.30908203125,0.12744140625,10.548780487804878,-4.878048780487806,4.146341463414634
15_00_21_544,-3.0,1.0,-2.0,-2.0,-2.0,0.0,-2.0,-1.0,0.93896484375,-0.3056640625,0.1318359375,10.731707317073171,-3.780487804878049,5.2439024390243905
15_00_21_544,-2.0,-1.0,0.0,-3.0,-1.0,2.0,-1.0,-1.0,0.93798828125,-0.29833984375,0.126953125,11.707317073170733,-3.048780487804878,6.463414634146342
15_00_21_544,1.0,-2.0,1.0,2.0,-1.0,-3.0,0.0,0.0,0.9365234375,-0.29736328125,0.1259765625,13.719512195121952,-2.378048780487805,8.170731707317074
15_00_21_544,-1.0,-2.0,-5.0,-3.0,-2.0,2.0,-1.0,-1.0,0.9423828125,-0.30126953125,0.1201171875,16.646341463414636,-1.9512195121951221,9.51219512195122
15_00_21_627,2.0,-2.0,-1.0,-3.0,1.0,2.0,-1.0,0.0,0.93994140625,-0.3076171875,0.12109375,4.878048780487806,-5.853658536585367,2.378048780487805
15_00_21_627,-3.0,-1.0,-1.0,0.0,-2.0,2.0,-1.0,0.0,0.9443359375,-0.30322265625,0.1162109375,6.52439024390244,-5.975609756097562,2.6219512195121952
15_00_21_627,0.0,-1.0,0.0,1.0,-5.0,-2.0,0.0,-4.0,0.9365234375,-0.31298828125,0.11865234375,8.231707317073171,-6.2804878048780495,2.682926829268293
15_00_21_627,1.0,-1.0,-1.0,0.0,-1.0,-2.0,1.0,-4.0,0.9365234375,-0.3095703125,0.125,9.207317073170733,-6.219512195121951,3.1097560975609757
15_00_21_627,-1.0,-4.0,-2.0,-3.0,-1.0,-3.0,0.0,0.0,0.9404296875,-0.314453125,0.12744140625,10.670731707317074,-5.670731707317073,3.658536585365854
15_00_21_627,0.0,0.0,0.0,-1.0,0.0,1.0,-2.0,0.0,0.935546875,-0.30908203125,0.12744140625,10.548780487804878,-4.878048780487806,4.146341463414634
15_00_21_627,0.0,-3.0,-4.0,-3.0,-2.0,0.0,1.0,-1.0,0.93896484375,-0.3056640625,0.1318359375,10.731707317073171,-3.780487804878049,5.2439024390243905
15_00_21_670,0.0,0.0,-4.0,-4.0,-4.0,0.0,-2.0,-4.0,0.96875,-0.2978515625,0.12939453125,1.7682926829268295,-5.0,2.6219512195121952
15_00_21_670,-3.0,-3.0,0.0,-1.0,-3.0,1.0,0.0,-1.0,0.9736328125,-0.31494140625,0.12890625,2.987804878048781,-5.670731707317073,2.6219512195121952
15_00_21_670,-2.0,-2.0,4.0,8.0,-1.0,-3.0,-2.0,-1.0,0.96337890625,-0.32177734375,0.13232421875,3.963414634146342,-5.914634146341464,2.9268292682926833
15_00_21_670,-4.0,-2.0,-1.0,-2.0,-4.0,0.0,-2.0,-2.0,0.9453125,-0.31787109375,0.12353515625,3.9024390243902443,-5.853658536585367,2.682926829268293
15_00_21_670,1.0,-2.0,-5.0,-3.0,0.0,-1.0,0.0,-1.0,0.93994140625,-0.3076171875,0.12109375,4.878048780487806,-5.853658536585367,2.378048780487805
15_00_21_670,-1.0,-1.0,0.0,1.0,2.0,-2.0,-5.0,-1.0,0.9443359375,-0.30322265625,0.1162109375,6.52439024390244,-5.975609756097562,2.6219512195121952
15_00_21_670,-3.0,3.0,-4.0,0.0,0.0,-1.0,0.0,-1.0,0.9365234375,-0.31298828125,0.11865234375,8.231707317073171,-6.2804878048780495,2.682926829268293
15_00_21_670,-3.0,-4.0,2.0,-1.0,-1.0,-1.0,-1.0,-1.0,0.9365234375,-0.3095703125,0.125,9.207317073170733,-6.219512195121951,3.1097560975609757
15_00_21_670,0.0,-1.0,-2.0,-4.0,-1.0,-3.0,2.0,0.0,0.9404296875,-0.314453125,0.12744140625,10.670731707317074,-5.670731707317073,3.658536585365854
15_00_21_734,0.0,-4.0,-3.0,-1.0,0.0,0.0,-3.0,2.0,0.9541015625,-0.29248046875,0.14501953125,-1.1585365853658538,-5.365853658536586,3.048780487804878
15_00_21_734,1.0,-3.0,0.0,-5.0,-2.0,0.0,-1.0,-3.0,0.96875,-0.2978515625,0.12939453125,1.7682926829268295,-5.0,2.6219512195121952
15_00_21_734,-1.0,2.0,1.0,-2.0,-2.0,0.0,-1.0,-2.0,0.9736328125,-0.31494140625,0.12890625,2.987804878048781,-5.670731707317073,2.6219512195121952
15_00_21_734,0.0,-2.0,2.0,0.0,2.0,0.0,-2.0,1.0,0.96337890625,-0.32177734375,0.13232421875,3.963414634146342,-5.914634146341464,2.9268292682926833
15_00_21_734,0.0,1.0,0.0,-1.0,-3.0,1.0,-2.0,-2.0,0.9453125,-0.31787109375,0.12353515625,3.9024390243902443,-5.853658536585367,2.682926829268293
15_00_21_734,0.0,1.0,1.0,0.0,-3.0,0.0,-1.0,-2.0,0.93994140625,-0.3076171875,0.12109375,4.878048780487806,-5.853658536585367,2.378048780487805
15_00_21_734,1.0,-2.0,0.0,-3.0,-1.0,-2.0,-2.0,-1.0,0.9443359375,-0.30322265625,0.1162109375,6.52439024390244,-5.975609756097562,2.6219512195121952
15_00_21_765,-3.0,1.0,-3.0,-6.0,-3.0,0.0,-2.0,-1.0,0.92919921875,-0.29931640625,0.18896484375,-1.829268292682927,-6.951219512195123,-1.829268292682927
15_00_21_765,-3.0,-2.0,-4.0,-1.0,-1.0,0.0,-6.0,-2.0,0.939453125,-0.30615234375,0.18212890625,-2.073170731707317,-6.52439024390244,-0.7317073170731708
15_00_21_765,1.0,-1.0,0.0,0.0,-1.0,-1.0,-1.0,-1.0,0.94970703125,-0.314453125,0.181640625,-3.7195121951219514,-5.975609756097562,0.3658536585365854
15_00_21_765,-3.0,-1.0,-2.0,-1.0,-3.0,0.0,0.0,-1.0,0.94677734375,-0.306640625,0.16552734375,-6.219512195121951,-5.609756097560976,1.5853658536585367
15_00_21_765,1.0,-2.0,-1.0,2.0,1.0,-1.0,1.0,-3.0,0.94921875,-0.30078125,0.15234375,-4.75609756097561,-5.2439024390243905,2.987804878048781
15_00_21_765,0.0,-2.0,-3.0,-2.0,-1.0,1.0,-2.0,-2.0,0.9541015625,-0.29248046875,0.14501953125,-1.1585365853658538,-5.365853658536586,3.048780487804878
15_00_21_765,-1.0,0.0,2.0,-1.0,-2.0,-1.0,-5.0,-1.0,0.96875,-0.2978515625,0.12939453125,1.7682926829268295,-5.0,2.6219512195121952
15_00_21_765,-2.0,1.0,-3.0,1.0,-1.0,0.0,1.0,2.0,0.9736328125,-0.31494140625,0.12890625,2.987804878048781,-5.670731707317073,2.6219512195121952
15_00_21_765,-3.0,-2.0,2.0,2.0,1.0,-2.0,-3.0,0.0,0.96337890625,-0.32177734375,0.13232421875,3.963414634146342,-5.914634146341464,2.9268292682926833
15_00_21_853,2.0,-3.0,3.0,-1.0,1.0,3.0,-1.0,-3.0,0.93896484375,-0.29345703125,0.189453125,-1.9512195121951221,-7.926829268292684,-5.060975609756098
15_00_21_853,-3.0,1.0,0.0,0.0,-2.0,0.0,-5.0,-1.0,0.9345703125,-0.29736328125,0.18798828125,-2.3170731707317076,-7.8048780487804885,-3.2926829268292686
15_00_21_853,-2.0,-6.0,-1.0,1.0,-2.0,-1.0,-2.0,0.0,0.92919921875,-0.29931640625,0.18896484375,-1.829268292682927,-6.951219512195123,-1.829268292682927
15_00_21_853,2.0,-4.0,-1.0,-1.0,-1.0,-2.0,2.0,-4.0,0.939453125,-0.30615234375,0.18212890625,-2.073170731707317,-6.52439024390244,-0.7317073170731708
15_00_21_853,1.0,0.0,-1.0,1.0,-2.0,-4.0,1.0,-2.0,0.94970703125,-0.314453125,0.181640625,-3.7195121951219514,-5.975609756097562,0.3658536585365854
15_00_21_853,0.0,-1.0,0.0,0.0,0.0,-1.0,-1.0,-1.0,0.94677734375,-0.306640625,0.16552734375,-6.219512195121951,-5.609756097560976,1.5853658536585367
15_00_21_853,-1.0,0.0,-2.0,0.0,-2.0,2.0,-2.0,1.0,0.94921875,-0.30078125,0.15234375,-4.75609756097561,-5.2439024390243905,2.987804878048781
15_00_21_899,-1.0,-3.0,-2.0,-4.0,-3.0,2.0,-3.0,-1.0,0.9404296875,-0.30322265625,0.19287109375,-0.06097560975609757,-8.78048780487805,-6.7682926829268295
15_00_21_899,-1.0,-2.0,-5.0,-2.0,-2.0,0.0,-3.0,0.0,0.93896484375,-0.29345703125,0.189453125,-1.9512195121951221,-7.926829268292684,-5.060975609756098
15_00_21_899,-2.0,0.0,-3.0,-1.0,0.0,-3.0,3.0,-4.0,0.9345703125,-0.29736328125,0.18798828125,-2.3170731707317076,-7.8048780487804885,-3.2926829268292686
15_00_21_899,2.0,-3.0,3.0,-1.0,1.0,3.0,-1.0,-3.0,0.92919921875,-0.29931640625,0.18896484375,-1.829268292682927,-6.951219512195123,-1.829268292682927
15_00_21_899,-3.0,1.0,0.0,0.0,-2.0,0.0,-5.0,-1.0,0.939453125,-0.30615234375,0.18212890625,-2.073170731707317,-6.52439024390244,-0.7317073170731708
15_00_21_899,-2.0,-6.0,-1.0,1.0,-2.0,-1.0,-2.0,0.0,0.94970703125,-0.314453125,0.181640625,-3.7195121951219514,-5.975609756097562,0.3658536585365854
15_00_21_899,2.0,-4.0,-1.0,-1.0,-1.0,-2.0,2.0,-4.0,0.94677734375,-0.306640625,0.16552734375,-6.219512195121951,-5.609756097560976,1.5853658536585367
15_00_21_899,1.0,0.0,-1.0,1.0,-2.0,-4.0,1.0,-2.0,0.94921875,-0.30078125,0.15234375,-4.75609756097561,-5.2439024390243905,2.987804878048781
15_00_21_964,1.0,4.0,-3.0,0.0,2.0,-3.0,-3.0,-1.0,0.93798828125,-0.27685546875,0.1669921875,1.0365853658536586,-8.231707317073171,-10.853658536585368
15_00_21_964,2.0,1.0,-2.0,-2.0,1.0,-1.0,0.0,-1.0,0.93359375,-0.271484375,0.16650390625,4.329268292682928,-8.170731707317074,-10.914634146341465
15_00_21_964,-1.0,-3.0,-2.0,-4.0,-2.0,-3.0,-1.0,-1.0,0.94189453125,-0.27587890625,0.169921875,5.975609756097562,-8.353658536585366,-11.158536585365855
15_00_21_964,-1.0,0.0,1.0,-1.0,0.0,1.0,1.0,0.0,0.93994140625,-0.29931640625,0.17822265625,5.975609756097562,-9.02439024390244,-10.24390243902439
15_00_21_964,0.0,0.0,-1.0,-2.0,-2.0,0.0,0.0,0.0,0.94287109375,-0.31201171875,0.18798828125,3.5975609756097566,-9.451219512195122,-8.719512195121952
15_00_21_964,-1.0,-1.0,-3.0,-1.0,1.0,0.0,-4.0,-2.0,0.9404296875,-0.30322265625,0.19287109375,-0.06097560975609757,-8.78048780487805,-6.7682926829268295
15_00_21_964,1.0,-2.0,-1.0,1.0,-2.0,-4.0,1.0,-3.0,0.93896484375,-0.29345703125,0.189453125,-1.9512195121951221,-7.926829268292684,-5.060975609756098
15_00_21_964,2.0,-4.0,-1.0,-2.0,-3.0,0.0,0.0,-2.0,0.9345703125,-0.29736328125,0.18798828125,-2.3170731707317076,-7.8048780487804885,-3.2926829268292686
15_00_22_020,0.0,-4.0,0.0,0.0,1.0,1.0,-2.0,-3.0,0.93994140625,-0.29638671875,0.16015625,-0.9756097560975611,-7.560975609756098,-11.097560975609756
15_00_22_020,0.0,-3.0,0.0,-1.0,-2.0,-2.0,-3.0,-2.0,0.93798828125,-0.27685546875,0.1669921875,1.0365853658536586,-8.231707317073171,-10.853658536585368
15_00_22_020,-3.0,-1.0,-2.0,0.0,0.0,-5.0,1.0,1.0,0.93359375,-0.271484375,0.16650390625,4.329268292682928,-8.170731707317074,-10.914634146341465
15_00_22_020,-4.0,-2.0,-1.0,0.0,-2.0,-2.0,1.0,3.0,0.94189453125,-0.27587890625,0.169921875,5.975609756097562,-8.353658536585366,-11.158536585365855
15_00_22_020,1.0,4.0,-3.0,0.0,2.0,-3.0,-3.0,-1.0,0.93994140625,-0.29931640625,0.17822265625,5.975609756097562,-9.02439024390244,-10.24390243902439
15_00_22_020,2.0,1.0,-2.0,-2.0,1.0,-1.0,0.0,-1.0,0.94287109375,-0.31201171875,0.18798828125,3.5975609756097566,-9.451219512195122,-8.719512195121952
15_00_22_020,-1.0,-3.0,-2.0,-4.0,-2.0,-3.0,-1.0,-1.0,0.9404296875,-0.30322265625,0.19287109375,-0.06097560975609757,-8.78048780487805,-6.7682926829268295
15_00_22_020,-1.0,0.0,1.0,-1.0,0.0,1.0,1.0,0.0,0.93896484375,-0.29345703125,0.189453125,-1.9512195121951221,-7.926829268292684,-5.060975609756098
15_00_22_084,-2.0,-2.0,-1.0,0.0,2.0,0.0,2.0,-1.0,0.9375,-0.294921875,0.14404296875,-2.1951219512195124,-7.439024390243903,-10.975609756097562
15_00_22_084,-1.0,2.0,-2.0,0.0,1.0,0.0,1.0,-2.0,0.93994140625,-0.29638671875,0.16015625,-0.9756097560975611,-7.560975609756098,-11.097560975609756
15_00_22_084,1.0,1.0,-2.0,8.0,2.0,-4.0,-1.0,2.0,0.93798828125,-0.27685546875,0.1669921875,1.0365853658536586,-8.231707317073171,-10.853658536585368
15_00_22_084,0.0,1.0,1.0,-4.0,-1.0,-1.0,0.0,-2.0,0.93359375,-0.271484375,0.16650390625,4.329268292682928,-8.170731707317074,-10.914634146341465
15_00_22_084,-1.0,-2.0,-3.0,0.0,0.0,-3.0,-1.0,1.0,0.94189453125,-0.27587890625,0.169921875,5.975609756097562,-8.353658536585366,-11.158536585365855
15_00_22_084,-1.0,-2.0,-3.0,-2.0,-1.0,-2.0,1.0,1.0,0.93994140625,-0.29931640625,0.17822265625,5.975609756097562,-9.02439024390244,-10.24390243902439
15_00_22_120,1.0,-2.0,-1.0,3.0,0.0,1.0,-3.0,1.0,0.9375,-0.306640625,0.12158203125,-9.695121951219512,-8.109756097560977,-6.036585365853659
15_00_22_120,-1.0,0.0,-2.0,-2.0,-4.0,-1.0,1.0,-3.0,0.939453125,-0.30810546875,0.12353515625,-6.646341463414635,-8.231707317073171,-8.78048780487805
15_00_22_120,1.0,1.0,-1.0,0.0,-3.0,-1.0,-3.0,0.0,0.94140625,-0.3046875,0.13037109375,-5.121951219512195,-8.170731707317074,-10.182926829268293
15_00_22_120,-2.0,-1.0,-3.0,-1.0,-3.0,-1.0,0.0,-3.0,0.93994140625,-0.3056640625,0.13134765625,-5.3048780487804885,-8.170731707317074,-10.914634146341465
15_00_22_120,0.0,-4.0,-3.0,-1.0,0.0,0.0,-2.0,-1.0,0.93701171875,-0.2978515625,0.14208984375,-4.75609756097561,-7.682926829268293,-11.097560975609756
15_00_22_120,-1.0,3.0,-1.0,-3.0,2.0,1.0,0.0,0.0,0.9375,-0.294921875,0.14404296875,-2.1951219512195124,-7.439024390243903,-10.975609756097562
15_00_22_120,-1.0,-1.0,-1.0,0.0,-3.0,-3.0,-2.0,-2.0,0.93994140625,-0.29638671875,0.16015625,-0.9756097560975611,-7.560975609756098,-11.097560975609756
15_00_22_120,0.0,-1.0,0.0,0.0,-2.0,-3.0,-3.0,0.0,0.93798828125,-0.27685546875,0.1669921875,1.0365853658536586,-8.231707317073171,-10.853658536585368
15_00_22_181,-3.0,-1.0,-2.0,-2.0,-3.0,-1.0,-4.0,-1.0,0.8896484375,-0.40087890625,0.10546875,-4.2682926829268295,-5.609756097560976,0.48780487804878053
15_00_22_181,-2.0,-3.0,0.0,-1.0,-4.0,-3.0,3.0,1.0,0.86181640625,-0.35498046875,0.10888671875,-7.195121951219513,-4.75609756097561,-0.12195121951219513
15_00_22_181,0.0,-2.0,2.0,-1.0,-1.0,0.0,0.0,-2.0,0.8857421875,-0.33349609375,0.10595703125,-9.573170731707318,-5.548780487804878,-2.0121951219512195
15_00_22_181,-1.0,-1.0,-3.0,-3.0,0.0,1.0,-2.0,1.0,0.919921875,-0.31787109375,0.119140625,-10.792682926829269,-7.378048780487806,-4.024390243902439
15_00_22_181,-2.0,0.0,2.0,-2.0,0.0,0.0,0.0,1.0,0.9375,-0.306640625,0.12158203125,-9.695121951219512,-8.109756097560977,-6.036585365853659
15_00_22_181,-3.0,1.0,-1.0,0.0,-4.0,0.0,-1.0,0.0,0.939453125,-0.30810546875,0.12353515625,-6.646341463414635,-8.231707317073171,-8.78048780487805
15_00_22_181,0.0,-1.0,0.0,1.0,0.0,0.0,-3.0,-2.0,0.94140625,-0.3046875,0.13037109375,-5.121951219512195,-8.170731707317074,-10.182926829268293
15_00_22_181,0.0,1.0,-3.0,0.0,-3.0,-2.0,1.0,-1.0,0.93994140625,-0.3056640625,0.13134765625,-5.3048780487804885,-8.170731707317074,-10.914634146341465
15_00_22_181,-3.0,-2.0,-4.0,-4.0,-2.0,-3.0,-1.0,-4.0,0.93701171875,-0.2978515625,0.14208984375,-4.75609756097561,-7.682926829268293,-11.097560975609756
15_00_22_228,0.0,-1.0,-3.0,-2.0,1.0,-3.0,0.0,0.0,1.03173828125,-0.45703125,0.09814453125,18.475609756097562,-8.78048780487805,-7.378048780487806
15_00_22_228,-3.0,-1.0,-3.0,-2.0,-1.0,1.0,1.0,-2.0,1.0087890625,-0.47705078125,0.10009765625,11.707317073170733,-8.536585365853659,-4.817073170731708
15_00_22_228,-2.0,0.0,3.0,1.0,-1.0,0.0,1.0,-1.0,0.9482421875,-0.46044921875,0.10546875,2.1951219512195124,-7.317073170731708,-1.2195121951219514
15_00_22_228,0.0,0.0,0.0,-2.0,-2.0,-1.0,-2.0,0.0,0.8896484375,-0.40087890625,0.10546875,-4.2682926829268295,-5.609756097560976,0.48780487804878053
15_00_22_228,1.0,0.0,-1.0,1.0,-1.0,-2.0,0.0,-3.0,0.86181640625,-0.35498046875,0.10888671875,-7.195121951219513,-4.75609756097561,-0.12195121951219513
15_00_22_228,-3.0,-1.0,-2.0,-2.0,-3.0,-1.0,-4.0,-1.0,0.8857421875,-0.33349609375,0.10595703125,-9.573170731707318,-5.548780487804878,-2.0121951219512195
15_00_22_228,-2.0,-3.0,0.0,-1.0,-4.0,-3.0,3.0,1.0,0.919921875,-0.31787109375,0.119140625,-10.792682926829269,-7.378048780487806,-4.024390243902439
15_00_22_228,0.0,-2.0,2.0,-1.0,-1.0,0.0,0.0,-2.0,0.9375,-0.306640625,0.12158203125,-9.695121951219512,-8.109756097560977,-6.036585365853659
15_00_22_228,-1.0,-1.0,-3.0,-3.0,0.0,1.0,-2.0,1.0,0.939453125,-0.30810546875,0.12353515625,-6.646341463414635,-8.231707317073171,-8.78048780487805
15_00_22_228,-2.0,0.0,2.0,-2.0,0.0,0.0,0.0,1.0,0.94140625,-0.3046875,0.13037109375,-5.121951219512195,-8.170731707317074,-10.182926829268293
15_00_22_286,-1.0,-1.0,-2.0,-1.0,-4.0,-2.0,-2.0,-1.0,0.9482421875,-0.46044921875,0.10546875,2.1951219512195124,-7.317073170731708,-1.2195121951219514
15_00_22_286,-2.0,0.0,-2.0,0.0,1.0,-3.0,-1.0,-1.0,0.8896484375,-0.40087890625,0.10546875,-4.2682926829268295,-5.609756097560976,0.48780487804878053
15_00_22_286,-2.0,-2.0,0.0,-3.0,-4.0,3.0,1.0,-2.0,0.86181640625,-0.35498046875,0.10888671875,-7.195121951219513,-4.75609756097561,-0.12195121951219513
15_00_22_286,0.0,-1.0,-5.0,-1.0,-4.0,-1.0,1.0,-1.0,0.8857421875,-0.33349609375,0.10595703125,-9.573170731707318,-5.548780487804878,-2.0121951219512195
15_00_22_286,-1.0,1.0,-1.0,-8.0,-3.0,2.0,-1.0,-1.0,0.919921875,-0.31787109375,0.119140625,-10.792682926829269,-7.378048780487806,-4.024390243902439
15_00_22_286,-3.0,-1.0,0.0,0.0,-2.0,-1.0,2.0,1.0,0.9375,-0.306640625,0.12158203125,-9.695121951219512,-8.109756097560977,-6.036585365853659
15_00_22_328,2.0,-1.0,-4.0,-3.0,-4.0,-1.0,0.0,0.0,0.869140625,-0.3603515625,0.10693359375,11.951219512195124,-2.804878048780488,11.097560975609756
15_00_22_328,1.0,-2.0,-2.0,3.0,2.0,-1.0,0.0,1.0,0.87255859375,-0.32568359375,0.10205078125,6.829268292682928,-4.634146341463415,7.500000000000001
15_00_22_328,0.0,1.0,-4.0,-3.0,-1.0,-1.0,0.0,-4.0,0.892578125,-0.29931640625,0.103515625,4.817073170731708,-7.01219512195122,3.4756097560975614
15_00_22_328,-1.0,0.0,0.0,0.0,-1.0,-2.0,-1.0,-2.0,0.92724609375,-0.3125,0.095703125,6.585365853658537,-9.207317073170733,-1.7682926829268295
15_00_22_328,-2.0,-1.0,-2.0,-5.0,-2.0,0.0,-2.0,-3.0,0.98095703125,-0.34521484375,0.08935546875,11.52439024390244,-10.121951219512196,-5.426829268292684
15_00_22_328,0.0,-1.0,-4.0,5.0,-1.0,-1.0,-1.0,0.0,1.0166015625,-0.3984375,0.09326171875,17.682926829268293,-9.939024390243903,-7.378048780487806
15_00_22_328,-4.0,-2.0,-2.0,-1.0,-1.0,-4.0,-2.0,2.0,1.03173828125,-0.45703125,0.09814453125,18.475609756097562,-8.78048780487805,-7.378048780487806
15_00_22_328,-2.0,-1.0,-6.0,-5.0,-6.0,0.0,1.0,0.0,1.0087890625,-0.47705078125,0.10009765625,11.707317073170733,-8.536585365853659,-4.817073170731708
15_00_22_328,0.0,-3.0,0.0,3.0,-2.0,-1.0,1.0,0.0,0.9482421875,-0.46044921875,0.10546875,2.1951219512195124,-7.317073170731708,-1.2195121951219514
15_00_22_328,-3.0,0.0,-1.0,-2.0,-3.0,0.0,1.0,0.0,0.8896484375,-0.40087890625,0.10546875,-4.2682926829268295,-5.609756097560976,0.48780487804878053
15_00_22_389,1.0,1.0,2.0,1.0,-3.0,-2.0,1.0,1.0,0.869140625,-0.3603515625,0.10693359375,11.951219512195124,-2.804878048780488,11.097560975609756
15_00_22_389,2.0,0.0,7.0,-4.0,0.0,1.0,0.0,0.0,0.87255859375,-0.32568359375,0.10205078125,6.829268292682928,-4.634146341463415,7.500000000000001
15_00_22_389,-1.0,-3.0,-3.0,4.0,-2.0,0.0,-3.0,-1.0,0.892578125,-0.29931640625,0.103515625,4.817073170731708,-7.01219512195122,3.4756097560975614
15_00_22_389,0.0,2.0,3.0,0.0,-1.0,-2.0,-1.0,-2.0,0.92724609375,-0.3125,0.095703125,6.585365853658537,-9.207317073170733,-1.7682926829268295
15_00_22_389,-5.0,-5.0,-4.0,-5.0,-5.0,-3.0,0.0,0.0,0.98095703125,-0.34521484375,0.08935546875,11.52439024390244,-10.121951219512196,-5.426829268292684
15_00_22_389,-2.0,-2.0,-6.0,-8.0,-4.0,2.0,1.0,-3.0,1.0166015625,-0.3984375,0.09326171875,17.682926829268293,-9.939024390243903,-7.378048780487806
15_00_22_389,-2.0,1.0,-1.0,0.0,5.0,4.0,-2.0,2.0,1.03173828125,-0.45703125,0.09814453125,18.475609756097562,-8.78048780487805,-7.378048780487806
15_00_22_389,0.0,-1.0,0.0,-3.0,-2.0,-3.0,0.0,0.0,1.0087890625,-0.47705078125,0.10009765625,11.707317073170733,-8.536585365853659,-4.817073170731708
15_00_22_453,1.0,1.0,-5.0,-19.0,-7.0,-3.0,0.0,-2.0,0.94091796875,-0.40380859375,0.10205078125,5.670731707317073,4.451219512195122,12.865853658536587
15_00_22_453,-1.0,-1.0,-2.0,14.0,6.0,2.0,-1.0,-1.0,0.943359375,-0.3935546875,0.099609375,10.30487804878049,1.9512195121951221,13.475609756097562
15_00_22_453,-3.0,1.0,0.0,4.0,2.0,-1.0,1.0,-1.0,0.91845703125,-0.38671875,0.1025390625,16.03658536585366,0.12195121951219513,14.26829268292683
15_00_22_453,-2.0,-1.0,2.0,-1.0,-5.0,-3.0,-1.0,-3.0,0.8935546875,-0.37109375,0.10986328125,16.097560975609756,-1.1585365853658538,13.353658536585368
15_00_22_453,-2.0,-1.0,-1.0,-1.0,-4.0,0.0,-2.0,-1.0,0.869140625,-0.3603515625,0.10693359375,11.951219512195124,-2.804878048780488,11.097560975609756
15_00_22_453,-2.0,-2.0,0.0,3.0,1.0,-1.0,-2.0,1.0,0.87255859375,-0.32568359375,0.10205078125,6.829268292682928,-4.634146341463415,7.500000000000001
15_00_22_453,-3.0,-5.0,-3.0,-3.0,4.0,0.0,-1.0,-2.0,0.892578125,-0.29931640625,0.103515625,4.817073170731708,-7.01219512195122,3.4756097560975614
15_00_22_453,-3.0,1.0,2.0,-3.0,-3.0,-2.0,0.0,3.0,0.92724609375,-0.3125,0.095703125,6.585365853658537,-9.207317073170733,-1.7682926829268295
15_00_22_453,-1.0,-3.0,-1.0,0.0,1.0,0.0,0.0,-2.0,0.98095703125,-0.34521484375,0.08935546875,11.52439024390244,-10.121951219512196,-5.426829268292684
15_00_22_501,0.0,0.0,-4.0,-3.0,-1.0,-1.0,-2.0,-3.0,0.9658203125,-0.43212890625,0.1259765625,4.024390243902439,7.134146341463415,11.951219512195124
15_00_22_501,-3.0,-1.0,3.0,6.0,0.0,-1.0,1.0,-3.0,0.955078125,-0.421875,0.11083984375,4.2682926829268295,6.341463414634147,12.682926829268293
15_00_22_501,1.0,0.0,-4.0,-9.0,-4.0,-1.0,0.0,-3.0,0.94384765625,-0.42041015625,0.10693359375,4.390243902439025,5.7926829268292686,12.80487804878049
15_00_22_501,0.0,0.0,-5.0,-1.0,-2.0,-3.0,2.0,0.0,0.94091796875,-0.40380859375,0.10205078125,5.670731707317073,4.451219512195122,12.865853658536587
15_00_22_501,-2.0,-2.0,0.0,5.0,-4.0,-4.0,-2.0,1.0,0.943359375,-0.3935546875,0.099609375,10.30487804878049,1.9512195121951221,13.475609756097562
15_00_22_501,1.0,-3.0,-1.0,-1.0,-2.0,1.0,-2.0,0.0,0.91845703125,-0.38671875,0.1025390625,16.03658536585366,0.12195121951219513,14.26829268292683
15_00_22_501,-1.0,1.0,-2.0,-1.0,1.0,2.0,2.0,1.0,0.8935546875,-0.37109375,0.10986328125,16.097560975609756,-1.1585365853658538,13.353658536585368
15_00_22_501,2.0,-3.0,6.0,-5.0,-3.0,2.0,-2.0,-1.0,0.869140625,-0.3603515625,0.10693359375,11.951219512195124,-2.804878048780488,11.097560975609756
15_00_22_501,-2.0,-3.0,-3.0,-3.0,-3.0,-3.0,-1.0,-1.0,0.87255859375,-0.32568359375,0.10205078125,6.829268292682928,-4.634146341463415,7.500000000000001
15_00_22_501,-1.0,0.0,4.0,-1.0,0.0,2.0,2.0,-1.0,0.892578125,-0.29931640625,0.103515625,4.817073170731708,-7.01219512195122,3.4756097560975614
15_00_22_559,-1.0,0.0,-3.0,-21.0,-4.0,-3.0,3.0,-1.0,0.9453125,-0.41162109375,0.1640625,7.926829268292684,8.597560975609756,14.51219512195122
15_00_22_559,-3.0,-2.0,0.0,15.0,3.0,-3.0,-1.0,-5.0,0.96533203125,-0.42919921875,0.1435546875,6.2804878048780495,7.865853658536586,12.621951219512196
15_00_22_559,-2.0,1.0,10.0,-2.0,-5.0,-1.0,-1.0,1.0,0.9658203125,-0.43212890625,0.1259765625,4.024390243902439,7.134146341463415,11.951219512195124
15_00_22_559,-1.0,-1.0,-6.0,-10.0,-1.0,0.0,0.0,-1.0,0.955078125,-0.421875,0.11083984375,4.2682926829268295,6.341463414634147,12.682926829268293
15_00_22_559,-2.0,3.0,-5.0,18.0,6.0,-1.0,0.0,-1.0,0.94384765625,-0.42041015625,0.10693359375,4.390243902439025,5.7926829268292686,12.80487804878049
15_00_22_559,0.0,1.0,5.0,-4.0,-7.0,-2.0,0.0,-1.0,0.94091796875,-0.40380859375,0.10205078125,5.670731707317073,4.451219512195122,12.865853658536587
15_00_22_559,-1.0,0.0,-2.0,-1.0,2.0,-2.0,-4.0,-1.0,0.943359375,-0.3935546875,0.099609375,10.30487804878049,1.9512195121951221,13.475609756097562
15_00_22_559,0.0,0.0,-1.0,-6.0,-3.0,-2.0,-2.0,0.0,0.91845703125,-0.38671875,0.1025390625,16.03658536585366,0.12195121951219513,14.26829268292683
15_00_22_559,0.0,0.0,-4.0,-3.0,-1.0,-1.0,-2.0,-3.0,0.8935546875,-0.37109375,0.10986328125,16.097560975609756,-1.1585365853658538,13.353658536585368
15_00_22_559,-3.0,-1.0,3.0,6.0,0.0,-1.0,1.0,-3.0,0.869140625,-0.3603515625,0.10693359375,11.951219512195124,-2.804878048780488,11.097560975609756
15_00_22_596,-2.0,0.0,-4.0,2.0,-2.0,-4.0,-3.0,0.0,0.9248046875,-0.42236328125,0.169921875,5.7926829268292686,11.341463414634147,15.060975609756099
15_00_22_596,-4.0,-5.0,0.0,-6.0,-2.0,2.0,-1.0,0.0,0.91943359375,-0.42041015625,0.17529296875,5.2439024390243905,9.634146341463415,16.34146341463415
15_00_22_596,-2.0,0.0,-1.0,-4.0,-2.0,0.0,0.0,-4.0,0.9150390625,-0.4052734375,0.1708984375,5.0,9.146341463414634,16.70731707317073
15_00_22_596,0.0,2.0,0.0,-5.0,-3.0,-2.0,0.0,0.0,0.92626953125,-0.39404296875,0.16943359375,6.7682926829268295,8.78048780487805,16.03658536585366
15_00_22_596,3.0,-1.0,3.0,-1.0,-3.0,-2.0,-2.0,0.0,0.9453125,-0.41162109375,0.1640625,7.926829268292684,8.597560975609756,14.51219512195122
15_00_22_596,1.0,-4.0,0.0,5.0,-1.0,2.0,-2.0,0.0,0.96533203125,-0.42919921875,0.1435546875,6.2804878048780495,7.865853658536586,12.621951219512196
15_00_22_596,-2.0,0.0,0.0,-2.0,-3.0,-1.0,2.0,-3.0,0.9658203125,-0.43212890625,0.1259765625,4.024390243902439,7.134146341463415,11.951219512195124
15_00_22_596,-1.0,-2.0,1.0,-2.0,-1.0,0.0,-2.0,-1.0,0.955078125,-0.421875,0.11083984375,4.2682926829268295,6.341463414634147,12.682926829268293
15_00_22_596,3.0,0.0,0.0,26.0,6.0,1.0,-2.0,-2.0,0.94384765625,-0.42041015625,0.10693359375,4.390243902439025,5.7926829268292686,12.80487804878049
15_00_22_596,-2.0,1.0,-1.0,-6.0,-2.0,-3.0,0.0,-2.0,0.94091796875,-0.40380859375,0.10205078125,5.670731707317073,4.451219512195122,12.865853658536587
15_00_22_647,-2.0,-1.0,1.0,-5.0,-4.0,-1.0,1.0,0.0,0.955078125,-0.42626953125,0.16259765625,-1.6463414634146343,18.475609756097562,11.219512195121952
15_00_22_647,-2.0,-1.0,-5.0,-5.0,-4.0,-2.0,-3.0,-2.0,0.9462890625,-0.4248046875,0.1748046875,1.5853658536585367,15.609756097560977,12.987804878048781
15_00_22_647,-3.0,-3.0,-4.0,16.0,6.0,-2.0,-2.0,0.0,0.939453125,-0.423828125,0.17138671875,5.487804878048781,13.719512195121952,14.26829268292683
15_00_22_647,-3.0,0.0,-1.0,-16.0,-8.0,0.0,-1.0,-3.0,0.9248046875,-0.42236328125,0.169921875,5.7926829268292686,11.341463414634147,15.060975609756099
15_00_22_647,-4.0,-4.0,-5.0,6.0,6.0,2.0,2.0,0.0,0.91943359375,-0.42041015625,0.17529296875,5.2439024390243905,9.634146341463415,16.34146341463415
15_00_22_647,-1.0,-1.0,8.0,3.0,-3.0,-1.0,-3.0,-2.0,0.9150390625,-0.4052734375,0.1708984375,5.0,9.146341463414634,16.70731707317073
15_00_22_647,3.0,-4.0,-6.0,-9.0,-4.0,0.0,-5.0,-3.0,0.92626953125,-0.39404296875,0.16943359375,6.7682926829268295,8.78048780487805,16.03658536585366
15_00_22_647,3.0,0.0,-2.0,-1.0,-3.0,-6.0,-1.0,-1.0,0.9453125,-0.41162109375,0.1640625,7.926829268292684,8.597560975609756,14.51219512195122
15_00_22_647,-2.0,0.0,-4.0,2.0,-2.0,-4.0,-3.0,0.0,0.96533203125,-0.42919921875,0.1435546875,6.2804878048780495,7.865853658536586,12.621951219512196
15_00_22_647,-4.0,-5.0,0.0,-6.0,-2.0,2.0,-1.0,0.0,0.9658203125,-0.43212890625,0.1259765625,4.024390243902439,7.134146341463415,11.951219512195124
15_00_22_709,1.0,-3.0,-2.0,-1.0,-5.0,1.0,-2.0,-3.0,0.95068359375,-0.38525390625,0.15185546875,-4.329268292682928,26.402439024390247,10.975609756097562
15_00_22_709,0.0,-2.0,1.0,-1.0,0.0,1.0,-1.0,-1.0,0.95654296875,-0.404296875,0.15185546875,-2.25609756097561,22.25609756097561,10.426829268292684
15_00_22_709,-3.0,0.0,-1.0,-1.0,-3.0,-1.0,-2.0,0.0,0.955078125,-0.42626953125,0.16259765625,-1.6463414634146343,18.475609756097562,11.219512195121952
15_00_22_709,1.0,1.0,-2.0,-4.0,-1.0,-1.0,-4.0,3.0,0.9462890625,-0.4248046875,0.1748046875,1.5853658536585367,15.609756097560977,12.987804878048781
15_00_22_709,2.0,0.0,0.0,6.0,8.0,1.0,1.0,1.0,0.939453125,-0.423828125,0.17138671875,5.487804878048781,13.719512195121952,14.26829268292683
15_00_22_709,-2.0,-3.0,-2.0,-6.0,2.0,1.0,-1.0,2.0,0.9248046875,-0.42236328125,0.169921875,5.7926829268292686,11.341463414634147,15.060975609756099
15_00_22_709,-3.0,-3.0,-3.0,-8.0,-3.0,2.0,-1.0,-1.0,0.91943359375,-0.42041015625,0.17529296875,5.2439024390243905,9.634146341463415,16.34146341463415
15_00_22_709,-1.0,-1.0,-2.0,21.0,7.0,3.0,-3.0,1.0,0.9150390625,-0.4052734375,0.1708984375,5.0,9.146341463414634,16.70731707317073
15_00_22_709,0.0,1.0,1.0,-5.0,7.0,-1.0,-4.0,0.0,0.92626953125,-0.39404296875,0.16943359375,6.7682926829268295,8.78048780487805,16.03658536585366
15_00_22_709,1.0,2.0,0.0,-1.0,-1.0,-2.0,-2.0,-1.0,0.9453125,-0.41162109375,0.1640625,7.926829268292684,8.597560975609756,14.51219512195122
15_00_22_758,1.0,-1.0,-4.0,-25.0,-11.0,-4.0,-3.0,-1.0,1.01904296875,-0.42626953125,0.16357421875,-17.31707317073171,35.79268292682927,10.609756097560977
15_00_22_758,-1.0,0.0,8.0,23.0,3.0,0.0,1.0,-1.0,0.9873046875,-0.3955078125,0.16015625,-13.902439024390246,34.08536585365854,11.52439024390244
15_00_22_758,-4.0,0.0,-4.0,-7.0,-2.0,-3.0,0.0,0.0,0.9609375,-0.38427734375,0.15478515625,-9.390243902439025,30.60975609756098,11.402439024390246
15_00_22_758,2.0,-6.0,0.0,-15.0,-2.0,-1.0,-3.0,1.0,0.95068359375,-0.38525390625,0.15185546875,-4.329268292682928,26.402439024390247,10.975609756097562
15_00_22_758,2.0,-3.0,-4.0,-8.0,-4.0,-1.0,0.0,-1.0,0.95654296875,-0.404296875,0.15185546875,-2.25609756097561,22.25609756097561,10.426829268292684
15_00_22_758,-1.0,1.0,1.0,-9.0,-2.0,0.0,-1.0,-3.0,0.955078125,-0.42626953125,0.16259765625,-1.6463414634146343,18.475609756097562,11.219512195121952
15_00_22_758,0.0,0.0,-3.0,2.0,-1.0,1.0,-1.0,-1.0,0.9462890625,-0.4248046875,0.1748046875,1.5853658536585367,15.609756097560977,12.987804878048781
15_00_22_758,-2.0,-1.0,2.0,-6.0,-2.0,-3.0,-2.0,-2.0,0.939453125,-0.423828125,0.17138671875,5.487804878048781,13.719512195121952,14.26829268292683
15_00_22_758,-3.0,-2.0,-1.0,0.0,-2.0,-3.0,1.0,0.0,0.9248046875,-0.42236328125,0.169921875,5.7926829268292686,11.341463414634147,15.060975609756099
15_00_22_758,3.0,1.0,2.0,-6.0,0.0,-3.0,-1.0,0.0,0.91943359375,-0.42041015625,0.17529296875,5.2439024390243905,9.634146341463415,16.34146341463415
15_00_22_811,-4.0,3.0,7.0,25.0,4.0,0.0,-1.0,1.0,0.9873046875,-0.3955078125,0.16015625,-13.902439024390246,34.08536585365854,11.52439024390244
15_00_22_811,2.0,0.0,-6.0,-19.0,-3.0,-1.0,0.0,-3.0,0.9609375,-0.38427734375,0.15478515625,-9.390243902439025,30.60975609756098,11.402439024390246
15_00_22_811,0.0,0.0,4.0,-4.0,2.0,2.0,3.0,0.0,0.95068359375,-0.38525390625,0.15185546875,-4.329268292682928,26.402439024390247,10.975609756097562
15_00_22_811,-2.0,-3.0,6.0,24.0,3.0,-3.0,-2.0,-3.0,0.95654296875,-0.404296875,0.15185546875,-2.25609756097561,22.25609756097561,10.426829268292684
15_00_22_811,1.0,-1.0,-4.0,-25.0,-11.0,-4.0,-3.0,-1.0,0.955078125,-0.42626953125,0.16259765625,-1.6463414634146343,18.475609756097562,11.219512195121952
15_00_22_811,-1.0,0.0,8.0,23.0,3.0,0.0,1.0,-1.0,0.9462890625,-0.4248046875,0.1748046875,1.5853658536585367,15.609756097560977,12.987804878048781
15_00_22_811,-4.0,0.0,-4.0,-7.0,-2.0,-3.0,0.0,0.0,0.939453125,-0.423828125,0.17138671875,5.487804878048781,13.719512195121952,14.26829268292683
15_00_22_811,2.0,-6.0,0.0,-15.0,-2.0,-1.0,-3.0,1.0,0.9248046875,-0.42236328125,0.169921875,5.7926829268292686,11.341463414634147,15.060975609756099
15_00_22_875,-2.0,0.0,11.0,-5.0,-6.0,-3.0,3.0,0.0,0.8046875,-0.28955078125,0.22509765625,-25.182926829268293,34.146341463414636,14.51219512195122
15_00_22_875,1.0,-1.0,-5.0,-1.0,-2.0,-1.0,-3.0,0.0,0.8994140625,-0.30322265625,0.2109375,-23.29268292682927,34.87804878048781,8.536585365853659
15_00_22_875,-2.0,-4.0,6.0,15.0,5.0,3.0,-3.0,-2.0,1.00048828125,-0.36376953125,0.19580078125,-21.03658536585366,35.0,5.3048780487804885
15_00_22_875,-2.0,0.0,-1.0,-6.0,0.0,0.0,0.0,-4.0,1.0478515625,-0.41650390625,0.181640625,-19.512195121951223,35.36585365853659,5.487804878048781
15_00_22_875,-2.0,0.0,2.0,7.0,4.0,-1.0,0.0,-1.0,1.05078125,-0.43994140625,0.17724609375,-18.902439024390244,36.03658536585366,8.292682926829269
15_00_22_875,-1.0,-2.0,-3.0,7.0,1.0,0.0,1.0,-3.0,1.01904296875,-0.42626953125,0.16357421875,-17.31707317073171,35.79268292682927,10.609756097560977
15_00_22_875,-3.0,-1.0,6.0,-9.0,-4.0,-2.0,-2.0,1.0,0.9873046875,-0.3955078125,0.16015625,-13.902439024390246,34.08536585365854,11.52439024390244
15_00_22_875,-1.0,-1.0,2.0,-3.0,2.0,-1.0,-1.0,-1.0,0.9609375,-0.38427734375,0.15478515625,-9.390243902439025,30.60975609756098,11.402439024390246
15_00_22_875,2.0,6.0,3.0,18.0,9.0,3.0,-3.0,1.0,0.95068359375,-0.38525390625,0.15185546875,-4.329268292682928,26.402439024390247,10.975609756097562
15_00_22_875,-1.0,-3.0,-5.0,1.0,-3.0,-1.0,0.0,-4.0,0.95654296875,-0.404296875,0.15185546875,-2.25609756097561,22.25609756097561,10.426829268292684
15_00_22_930,0.0,1.0,-5.0,-3.0,-1.0,-1.0,3.0,0.0,0.7705078125,-0.38330078125,0.26611328125,-12.134146341463415,30.670731707317074,20.54878048780488
15_00_22_930,-2.0,1.0,-26.0,-1.0,1.0,-1.0,-2.0,0.0,0.7578125,-0.328125,0.2412109375,-22.25609756097561,33.29268292682927,19.75609756097561
15_00_22_930,0.0,-5.0,-31.0,-5.0,0.0,1.0,-1.0,-1.0,0.8046875,-0.28955078125,0.22509765625,-25.182926829268293,34.146341463414636,14.51219512195122
15_00_22_930,0.0,-2.0,13.0,7.0,2.0,-1.0,-1.0,0.0,0.8994140625,-0.30322265625,0.2109375,-23.29268292682927,34.87804878048781,8.536585365853659
15_00_22_930,1.0,1.0,-6.0,-4.0,-4.0,-4.0,1.0,0.0,1.00048828125,-0.36376953125,0.19580078125,-21.03658536585366,35.0,5.3048780487804885
15_00_22_930,0.0,-1.0,0.0,4.0,-2.0,-1.0,0.0,-2.0,1.0478515625,-0.41650390625,0.181640625,-19.512195121951223,35.36585365853659,5.487804878048781
15_00_22_930,-2.0,-2.0,9.0,-5.0,-3.0,-1.0,0.0,0.0,1.05078125,-0.43994140625,0.17724609375,-18.902439024390244,36.03658536585366,8.292682926829269
15_00_22_930,-1.0,0.0,-1.0,-12.0,0.0,-1.0,-3.0,-2.0,1.01904296875,-0.42626953125,0.16357421875,-17.31707317073171,35.79268292682927,10.609756097560977
15_00_22_930,-3.0,1.0,3.0,1.0,1.0,0.0,-2.0,1.0,0.9873046875,-0.3955078125,0.16015625,-13.902439024390246,34.08536585365854,11.52439024390244
15_00_22_994,0.0,-2.0,-8.0,-4.0,-1.0,-2.0,-3.0,0.0,0.88671875,-0.42822265625,0.28125,-1.0365853658536586,19.02439024390244,11.158536585365855
15_00_22_994,-2.0,-1.0,10.0,15.0,-1.0,0.0,-2.0,-1.0,0.88427734375,-0.421875,0.27490234375,0.48780487804878053,24.451219512195124,14.756097560975611
15_00_22_994,-3.0,0.0,-21.0,-10.0,-4.0,-3.0,-1.0,-1.0,0.83447265625,-0.41796875,0.26953125,-2.9268292682926833,27.865853658536587,18.414634146341466
15_00_22_994,-4.0,-2.0,4.0,-2.0,-2.0,0.0,-2.0,-3.0,0.7705078125,-0.38330078125,0.26611328125,-12.134146341463415,30.670731707317074,20.54878048780488
15_00_22_994,0.0,0.0,3.0,-24.0,0.0,1.0,0.0,0.0,0.7578125,-0.328125,0.2412109375,-22.25609756097561,33.29268292682927,19.75609756097561
15_00_22_994,-1.0,-4.0,13.0,0.0,2.0,-3.0,-2.0,-1.0,0.8046875,-0.28955078125,0.22509765625,-25.182926829268293,34.146341463414636,14.51219512195122
15_00_22_994,1.0,4.0,3.0,1.0,-4.0,-2.0,-3.0,-2.0,0.8994140625,-0.30322265625,0.2109375,-23.29268292682927,34.87804878048781,8.536585365853659
15_00_22_994,0.0,1.0,-5.0,-3.0,-1.0,-1.0,3.0,0.0,1.00048828125,-0.36376953125,0.19580078125,-21.03658536585366,35.0,5.3048780487804885
15_00_22_994,-2.0,1.0,-26.0,-1.0,1.0,-1.0,-2.0,0.0,1.0478515625,-0.41650390625,0.181640625,-19.512195121951223,35.36585365853659,5.487804878048781
15_00_22_994,0.0,-5.0,-31.0,-5.0,0.0,1.0,-1.0,-1.0,1.05078125,-0.43994140625,0.17724609375,-18.902439024390244,36.03658536585366,8.292682926829269
15_00_23_024,-1.0,-2.0,20.0,11.0,-2.0,0.0,-2.0,0.0,0.78857421875,-0.41064453125,0.32861328125,5.670731707317073,12.134146341463415,6.7682926829268295
15_00_23_024,0.0,1.0,-3.0,-33.0,-13.0,-2.0,-3.0,-1.0,0.82470703125,-0.40966796875,0.31982421875,-0.5487804878048781,12.439024390243903,7.378048780487806
15_00_23_024,0.0,-1.0,2.0,6.0,-2.0,-3.0,1.0,-5.0,0.861328125,-0.41796875,0.3076171875,-2.804878048780488,14.939024390243905,8.597560975609756
15_00_23_024,-1.0,1.0,17.0,2.0,5.0,2.0,-1.0,2.0,0.88671875,-0.42822265625,0.28125,-1.0365853658536586,19.02439024390244,11.158536585365855
15_00_23_024,-3.0,1.0,-5.0,-6.0,-6.0,3.0,2.0,-1.0,0.88427734375,-0.421875,0.27490234375,0.48780487804878053,24.451219512195124,14.756097560975611
15_00_23_024,-4.0,0.0,0.0,5.0,3.0,-1.0,0.0,-3.0,0.83447265625,-0.41796875,0.26953125,-2.9268292682926833,27.865853658536587,18.414634146341466
15_00_23_024,-2.0,1.0,-2.0,-14.0,0.0,-2.0,-3.0,2.0,0.7705078125,-0.38330078125,0.26611328125,-12.134146341463415,30.670731707317074,20.54878048780488
15_00_23_024,0.0,-5.0,4.0,-4.0,-5.0,-3.0,0.0,2.0,0.7578125,-0.328125,0.2412109375,-22.25609756097561,33.29268292682927,19.75609756097561
15_00_23_024,-4.0,3.0,4.0,-9.0,-3.0,2.0,0.0,-2.0,0.8046875,-0.28955078125,0.22509765625,-25.182926829268293,34.146341463414636,14.51219512195122
15_00_23_024,1.0,3.0,0.0,-1.0,-5.0,-1.0,3.0,1.0,0.8994140625,-0.30322265625,0.2109375,-23.29268292682927,34.87804878048781,8.536585365853659
15_00_23_104,-3.0,0.0,-20.0,9.0,1.0,-3.0,-2.0,0.0,0.78076171875,-0.4296875,0.31201171875,20.914634146341466,7.621951219512196,5.548780487804878
15_00_23_104,-1.0,-1.0,12.0,-1.0,-2.0,-4.0,-2.0,-3.0,0.77001953125,-0.42138671875,0.3232421875,13.414634146341465,10.609756097560977,5.975609756097562
15_00_23_104,0.0,-2.0,4.0,0.0,-3.0,-3.0,2.0,3.0,0.78857421875,-0.41064453125,0.32861328125,5.670731707317073,12.134146341463415,6.7682926829268295
15_00_23_104,-2.0,-3.0,5.0,-3.0,-2.0,-1.0,-4.0,-4.0,0.82470703125,-0.40966796875,0.31982421875,-0.5487804878048781,12.439024390243903,7.378048780487806
15_00_23_104,0.0,1.0,-11.0,-16.0,-4.0,-2.0,0.0,-1.0,0.861328125,-0.41796875,0.3076171875,-2.804878048780488,14.939024390243905,8.597560975609756
15_00_23_104,2.0,1.0,23.0,26.0,11.0,3.0,-2.0,1.0,0.88671875,-0.42822265625,0.28125,-1.0365853658536586,19.02439024390244,11.158536585365855
15_00_23_104,-1.0,-2.0,3.0,-6.0,-3.0,-1.0,1.0,-1.0,0.88427734375,-0.421875,0.27490234375,0.48780487804878053,24.451219512195124,14.756097560975611
15_00_23_104,-1.0,0.0,-9.0,-9.0,0.0,-3.0,-2.0,0.0,0.83447265625,-0.41796875,0.26953125,-2.9268292682926833,27.865853658536587,18.414634146341466
15_00_23_104,-1.0,-2.0,20.0,11.0,-2.0,0.0,-2.0,0.0,0.7705078125,-0.38330078125,0.26611328125,-12.134146341463415,30.670731707317074,20.54878048780488
15_00_23_104,0.0,1.0,-3.0,-33.0,-13.0,-2.0,-3.0,-1.0,0.7578125,-0.328125,0.2412109375,-22.25609756097561,33.29268292682927,19.75609756097561
15_00_23_159,1.0,-8.0,-3.0,35.0,0.0,-1.0,0.0,0.0,0.8203125,-0.40673828125,0.32763671875,5.487804878048781,9.756097560975611,4.085365853658537
15_00_23_159,-2.0,8.0,29.0,1.0,-6.0,-5.0,-1.0,-4.0,0.81298828125,-0.4052734375,0.333984375,11.951219512195124,9.573170731707318,3.231707317073171
15_00_23_159,-2.0,0.0,-3.0,-21.0,-7.0,-4.0,-3.0,-2.0,0.810546875,-0.40576171875,0.31640625,20.853658536585368,7.378048780487806,4.085365853658537
15_00_23_159,-1.0,3.0,-42.0,-6.0,-1.0,-5.0,-1.0,-2.0,0.8037109375,-0.4326171875,0.31884765625,24.695121951219516,5.914634146341464,4.390243902439025
15_00_23_159,4.0,5.0,41.0,10.0,13.0,8.0,1.0,-1.0,0.78076171875,-0.4296875,0.31201171875,20.914634146341466,7.621951219512196,5.548780487804878
15_00_23_159,4.0,-1.0,-1.0,3.0,-12.0,-3.0,2.0,0.0,0.77001953125,-0.42138671875,0.3232421875,13.414634146341465,10.609756097560977,5.975609756097562
15_00_23_159,-3.0,-3.0,21.0,-17.0,1.0,3.0,0.0,1.0,0.78857421875,-0.41064453125,0.32861328125,5.670731707317073,12.134146341463415,6.7682926829268295
15_00_23_159,0.0,-4.0,1.0,25.0,2.0,0.0,2.0,-1.0,0.82470703125,-0.40966796875,0.31982421875,-0.5487804878048781,12.439024390243903,7.378048780487806
15_00_23_159,1.0,0.0,-8.0,-23.0,-1.0,-1.0,-2.0,1.0,0.861328125,-0.41796875,0.3076171875,-2.804878048780488,14.939024390243905,8.597560975609756
15_00_23_159,-1.0,5.0,4.0,-4.0,-3.0,-3.0,-3.0,-1.0,0.88671875,-0.42822265625,0.28125,-1.0365853658536586,19.02439024390244,11.158536585365855
15_00_23_218,1.0,-1.0,-2.0,-10.0,-1.0,-1.0,-1.0,0.0,0.833984375,-0.4189453125,0.333984375,3.5975609756097566,8.414634146341465,3.963414634146342
15_00_23_218,-3.0,-15.0,-13.0,-10.0,-5.0,-4.0,-6.0,-3.0,0.833984375,-0.41357421875,0.3212890625,0.9146341463414634,8.658536585365855,3.9024390243902443
15_00_23_218,0.0,8.0,-34.0,3.0,4.0,2.0,0.0,1.0,0.8203125,-0.40673828125,0.32763671875,5.487804878048781,9.756097560975611,4.085365853658537
15_00_23_218,1.0,1.0,10.0,-5.0,-2.0,0.0,1.0,1.0,0.81298828125,-0.4052734375,0.333984375,11.951219512195124,9.573170731707318,3.231707317073171
15_00_23_218,1.0,1.0,7.0,7.0,2.0,-1.0,-3.0,-1.0,0.810546875,-0.40576171875,0.31640625,20.853658536585368,7.378048780487806,4.085365853658537
15_00_23_218,1.0,0.0,-43.0,-7.0,-1.0,1.0,-2.0,-2.0,0.8037109375,-0.4326171875,0.31884765625,24.695121951219516,5.914634146341464,4.390243902439025
15_00_23_218,0.0,-1.0,29.0,5.0,-4.0,-2.0,0.0,0.0,0.78076171875,-0.4296875,0.31201171875,20.914634146341466,7.621951219512196,5.548780487804878
15_00_23_218,-3.0,-1.0,-19.0,-25.0,-2.0,0.0,0.0,-3.0,0.77001953125,-0.42138671875,0.3232421875,13.414634146341465,10.609756097560977,5.975609756097562
15_00_23_218,2.0,5.0,28.0,7.0,6.0,5.0,1.0,3.0,0.78857421875,-0.41064453125,0.32861328125,5.670731707317073,12.134146341463415,6.7682926829268295
15_00_23_279,-2.0,-1.0,25.0,-17.0,-5.0,-3.0,-2.0,-2.0,0.81884765625,-0.3525390625,0.35498046875,12.195121951219512,6.890243902439025,10.487804878048781
15_00_23_279,-2.0,-6.0,-22.0,7.0,5.0,1.0,0.0,2.0,0.82763671875,-0.36474609375,0.35302734375,13.170731707317074,6.097560975609756,9.634146341463415
15_00_23_279,-1.0,-4.0,4.0,-6.0,-1.0,-1.0,-1.0,-2.0,0.822265625,-0.3779296875,0.34716796875,14.146341463414636,7.926829268292684,8.414634146341465
15_00_23_279,-1.0,-3.0,17.0,-7.0,-3.0,-3.0,-4.0,-2.0,0.82275390625,-0.39404296875,0.35693359375,9.329268292682928,9.02439024390244,6.158536585365854
15_00_23_279,-3.0,-5.0,-34.0,-4.0,-2.0,-5.0,-2.0,0.0,0.833984375,-0.4189453125,0.333984375,3.5975609756097566,8.414634146341465,3.963414634146342
15_00_23_279,0.0,6.0,51.0,8.0,-2.0,-3.0,-2.0,-4.0,0.833984375,-0.41357421875,0.3212890625,0.9146341463414634,8.658536585365855,3.9024390243902443
15_00_23_279,0.0,-1.0,-37.0,-4.0,2.0,-1.0,-2.0,0.0,0.8203125,-0.40673828125,0.32763671875,5.487804878048781,9.756097560975611,4.085365853658537
15_00_23_279,0.0,2.0,15.0,53.0,17.0,2.0,1.0,0.0,0.81298828125,-0.4052734375,0.333984375,11.951219512195124,9.573170731707318,3.231707317073171
15_00_23_279,-2.0,-4.0,2.0,-20.0,-5.0,-1.0,0.0,-2.0,0.810546875,-0.40576171875,0.31640625,20.853658536585368,7.378048780487806,4.085365853658537
15_00_23_279,2.0,-3.0,10.0,-3.0,-2.0,-1.0,-1.0,-1.0,0.8037109375,-0.4326171875,0.31884765625,24.695121951219516,5.914634146341464,4.390243902439025
15_00_23_314,-5.0,-7.0,4.0,-2.0,-4.0,-1.0,-1.0,4.0,0.77783203125,-0.361328125,0.3359375,18.231707317073173,3.4756097560975614,12.682926829268293
15_00_23_314,-2.0,-6.0,-1.0,1.0,-5.0,-1.0,1.0,-1.0,0.7978515625,-0.35205078125,0.34912109375,13.78048780487805,6.158536585365854,11.219512195121952
15_00_23_314,-2.0,0.0,6.0,15.0,2.0,-2.0,-2.0,-4.0,0.81884765625,-0.3525390625,0.35498046875,12.195121951219512,6.890243902439025,10.487804878048781
15_00_23_314,-1.0,2.0,26.0,-23.0,-4.0,-1.0,0.0,2.0,0.82763671875,-0.36474609375,0.35302734375,13.170731707317074,6.097560975609756,9.634146341463415
15_00_23_314,0.0,-1.0,12.0,19.0,3.0,1.0,-2.0,-14.0,0.822265625,-0.3779296875,0.34716796875,14.146341463414636,7.926829268292684,8.414634146341465
15_00_23_314,-3.0,-1.0,5.0,-8.0,0.0,0.0,-1.0,-2.0,0.82275390625,-0.39404296875,0.35693359375,9.329268292682928,9.02439024390244,6.158536585365854
15_00_23_314,-2.0,1.0,29.0,2.0,-3.0,-1.0,0.0,1.0,0.833984375,-0.4189453125,0.333984375,3.5975609756097566,8.414634146341465,3.963414634146342
15_00_23_314,-2.0,-1.0,23.0,0.0,-7.0,-3.0,0.0,-3.0,0.833984375,-0.41357421875,0.3212890625,0.9146341463414634,8.658536585365855,3.9024390243902443
15_00_23_314,-2.0,-1.0,25.0,-17.0,-5.0,-3.0,-2.0,-2.0,0.8203125,-0.40673828125,0.32763671875,5.487804878048781,9.756097560975611,4.085365853658537
15_00_23_314,-2.0,-6.0,-22.0,7.0,5.0,1.0,0.0,2.0,0.81298828125,-0.4052734375,0.333984375,11.951219512195124,9.573170731707318,3.231707317073171
15_00_23_390,-7.0,-7.0,-38.0,-4.0,-6.0,-5.0,-1.0,32.0,0.7763671875,-0.34130859375,0.32177734375,20.670731707317074,1.6463414634146343,12.926829268292684
15_00_23_390,-3.0,-4.0,16.0,21.0,1.0,-2.0,-1.0,1.0,0.77783203125,-0.361328125,0.3359375,18.231707317073173,3.4756097560975614,12.682926829268293
15_00_23_390,0.0,-1.0,5.0,-4.0,1.0,-2.0,0.0,2.0,0.7978515625,-0.35205078125,0.34912109375,13.78048780487805,6.158536585365854,11.219512195121952
15_00_23_390,8.0,8.0,-42.0,-5.0,2.0,1.0,1.0,-9.0,0.81884765625,-0.3525390625,0.35498046875,12.195121951219512,6.890243902439025,10.487804878048781
15_00_23_390,-5.0,-7.0,4.0,-2.0,-4.0,-1.0,-1.0,4.0,0.82763671875,-0.36474609375,0.35302734375,13.170731707317074,6.097560975609756,9.634146341463415
15_00_23_390,-2.0,-6.0,-1.0,1.0,-5.0,-1.0,1.0,-1.0,0.822265625,-0.3779296875,0.34716796875,14.146341463414636,7.926829268292684,8.414634146341465
15_00_23_390,-2.0,0.0,6.0,15.0,2.0,-2.0,-2.0,-4.0,0.82275390625,-0.39404296875,0.35693359375,9.329268292682928,9.02439024390244,6.158536585365854
15_00_23_390,-1.0,2.0,26.0,-23.0,-4.0,-1.0,0.0,2.0,0.833984375,-0.4189453125,0.333984375,3.5975609756097566,8.414634146341465,3.963414634146342
15_00_23_390,0.0,-1.0,12.0,19.0,3.0,1.0,-2.0,-14.0,0.833984375,-0.41357421875,0.3212890625,0.9146341463414634,8.658536585365855,3.9024390243902443
15_00_23_390,-3.0,-1.0,5.0,-8.0,0.0,0.0,-1.0,-2.0,0.8203125,-0.40673828125,0.32763671875,5.487804878048781,9.756097560975611,4.085365853658537
15_00_23_436,1.0,-10.0,6.0,-14.0,-8.0,-3.0,2.0,8.0,0.794921875,-0.345703125,0.30419921875,11.829268292682928,-2.5,12.317073170731708
15_00_23_436,-1.0,-1.0,-28.0,-21.0,0.0,-2.0,1.0,-6.0,0.7724609375,-0.31982421875,0.29833984375,16.646341463414636,0.6707317073170732,13.170731707317074
15_00_23_436,3.0,0.0,28.0,34.0,0.0,-1.0,-3.0,2.0,0.7763671875,-0.34130859375,0.32177734375,20.670731707317074,1.6463414634146343,12.926829268292684
15_00_23_436,-2.0,-5.0,-30.0,-10.0,-2.0,2.0,1.0,7.0,0.77783203125,-0.361328125,0.3359375,18.231707317073173,3.4756097560975614,12.682926829268293
15_00_23_436,-4.0,-12.0,-89.0,-29.0,-6.0,-5.0,-7.0,-20.0,0.7978515625,-0.35205078125,0.34912109375,13.78048780487805,6.158536585365854,11.219512195121952
15_00_23_436,-1.0,-4.0,-29.0,8.0,0.0,-4.0,1.0,8.0,0.81884765625,-0.3525390625,0.35498046875,12.195121951219512,6.890243902439025,10.487804878048781
15_00_23_436,-5.0,-3.0,17.0,-29.0,-9.0,-6.0,-6.0,-25.0,0.82763671875,-0.36474609375,0.35302734375,13.170731707317074,6.097560975609756,9.634146341463415
15_00_23_436,-1.0,0.0,40.0,12.0,-1.0,1.0,2.0,17.0,0.822265625,-0.3779296875,0.34716796875,14.146341463414636,7.926829268292684,8.414634146341465
15_00_23_488,-4.0,7.0,14.0,2.0,-3.0,-3.0,1.0,-13.0,1.02197265625,-0.42529296875,0.20947265625,-7.560975609756098,-27.195121951219516,-14.207317073170733
15_00_23_488,-1.0,-2.0,13.0,-6.0,1.0,-1.0,1.0,26.0,1.00244140625,-0.431640625,0.228515625,-4.51219512195122,-22.5609756097561,-5.914634146341464
15_00_23_488,-2.0,-6.0,-110.0,9.0,-1.0,-5.0,-5.0,-7.0,0.87939453125,-0.36767578125,0.259765625,8.170731707317074,-16.76829268292683,0.6707317073170732
15_00_23_488,1.0,4.0,11.0,-15.0,-5.0,1.0,0.0,-1.0,0.8056640625,-0.36865234375,0.27734375,12.073170731707318,-12.621951219512196,2.7439024390243905
15_00_23_488,4.0,0.0,15.0,36.0,9.0,7.0,3.0,6.0,0.8017578125,-0.38818359375,0.28076171875,6.463414634146342,-9.207317073170733,4.573170731707317
15_00_23_488,2.0,1.0,45.0,-1.0,-4.0,-6.0,-4.0,-11.0,0.794921875,-0.345703125,0.30419921875,11.829268292682928,-2.5,12.317073170731708
15_00_23_488,-1.0,0.0,-15.0,-7.0,-3.0,1.0,0.0,14.0,0.7724609375,-0.31982421875,0.29833984375,16.646341463414636,0.6707317073170732,13.170731707317074
15_00_23_488,-9.0,-7.0,44.0,-17.0,-11.0,-8.0,-6.0,-4.0,0.7763671875,-0.34130859375,0.32177734375,20.670731707317074,1.6463414634146343,12.926829268292684
15_00_23_488,-9.0,0.0,-67.0,-7.0,-3.0,1.0,-1.0,-2.0,0.77783203125,-0.361328125,0.3359375,18.231707317073173,3.4756097560975614,12.682926829268293
15_00_23_488,5.0,-1.0,18.0,6.0,4.0,-3.0,1.0,4.0,0.7978515625,-0.35205078125,0.34912109375,13.78048780487805,6.158536585365854,11.219512195121952
15_00_23_544,5.0,0.0,16.0,3.0,-7.0,-6.0,-7.0,36.0,0.88232421875,-0.3291015625,0.21484375,0.06097560975609757,-25.30487804878049,-13.719512195121952
15_00_23_544,-4.0,9.0,13.0,-11.0,3.0,-3.0,1.0,-9.0,0.93505859375,-0.37109375,0.21826171875,-0.5487804878048781,-27.195121951219516,-16.158536585365855
15_00_23_544,-20.0,-5.0,-37.0,-7.0,2.0,0.0,0.0,-6.0,1.02197265625,-0.42529296875,0.20947265625,-7.560975609756098,-27.195121951219516,-14.207317073170733
15_00_23_544,0.0,1.0,-11.0,10.0,1.0,-1.0,0.0,5.0,1.00244140625,-0.431640625,0.228515625,-4.51219512195122,-22.5609756097561,-5.914634146341464
15_00_23_544,-3.0,-4.0,13.0,-10.0,-4.0,-1.0,-2.0,3.0,0.87939453125,-0.36767578125,0.259765625,8.170731707317074,-16.76829268292683,0.6707317073170732
15_00_23_544,-2.0,2.0,5.0,23.0,3.0,3.0,4.0,-22.0,0.8056640625,-0.36865234375,0.27734375,12.073170731707318,-12.621951219512196,2.7439024390243905
15_00_23_544,-3.0,-10.0,12.0,-20.0,-6.0,-2.0,-2.0,-15.0,0.8017578125,-0.38818359375,0.28076171875,6.463414634146342,-9.207317073170733,4.573170731707317
15_00_23_544,-4.0,0.0,-14.0,-18.0,-7.0,-2.0,2.0,20.0,0.794921875,-0.345703125,0.30419921875,11.829268292682928,-2.5,12.317073170731708
15_00_23_544,-1.0,1.0,-6.0,2.0,-1.0,-1.0,-2.0,0.0,0.7724609375,-0.31982421875,0.29833984375,16.646341463414636,0.6707317073170732,13.170731707317074
15_00_23_544,24.0,-4.0,-39.0,-18.0,-4.0,-3.0,-2.0,2.0,0.7763671875,-0.34130859375,0.32177734375,20.670731707317074,1.6463414634146343,12.926829268292684
15_00_23_587,1.0,-6.0,-24.0,-23.0,-10.0,-6.0,2.0,3.0,0.96044921875,-0.35986328125,0.146484375,17.439024390243905,-22.80487804878049,-11.158536585365855
15_00_23_587,-9.0,5.0,74.0,4.0,3.0,-4.0,0.0,2.0,0.9580078125,-0.3759765625,0.14111328125,6.219512195121951,-23.78048780487805,-10.548780487804878
15_00_23_587,-5.0,-2.0,-20.0,0.0,2.0,0.0,-1.0,-12.0,0.8916015625,-0.34521484375,0.17626953125,1.524390243902439,-24.26829268292683,-11.402439024390246
15_00_23_587,-3.0,-1.0,2.0,8.0,-1.0,-2.0,-4.0,0.0,0.88232421875,-0.3291015625,0.21484375,0.06097560975609757,-25.30487804878049,-13.719512195121952
15_00_23_587,1.0,0.0,33.0,-2.0,4.0,0.0,1.0,2.0,0.93505859375,-0.37109375,0.21826171875,-0.5487804878048781,-27.195121951219516,-16.158536585365855
15_00_23_587,3.0,4.0,-32.0,-1.0,1.0,0.0,4.0,10.0,1.02197265625,-0.42529296875,0.20947265625,-7.560975609756098,-27.195121951219516,-14.207317073170733
15_00_23_587,1.0,-6.0,-105.0,-2.0,2.0,1.0,-4.0,-1.0,1.00244140625,-0.431640625,0.228515625,-4.51219512195122,-22.5609756097561,-5.914634146341464
15_00_23_587,-7.0,-4.0,41.0,24.0,4.0,2.0,-7.0,-38.0,0.87939453125,-0.36767578125,0.259765625,8.170731707317074,-16.76829268292683,0.6707317073170732
15_00_23_587,3.0,8.0,31.0,3.0,-1.0,0.0,0.0,6.0,0.8056640625,-0.36865234375,0.27734375,12.073170731707318,-12.621951219512196,2.7439024390243905
15_00_23_587,-9.0,-20.0,-22.0,-30.0,-17.0,-7.0,-7.0,-10.0,0.8017578125,-0.38818359375,0.28076171875,6.463414634146342,-9.207317073170733,4.573170731707317
15_00_23_654,-3.0,-3.0,-51.0,13.0,6.0,0.0,2.0,1.0,0.900390625,-0.314453125,0.1728515625,8.536585365853659,-23.10975609756098,-4.451219512195122
15_00_23_654,-2.0,-2.0,5.0,-36.0,-5.0,-3.0,-1.0,0.0,0.908203125,-0.31396484375,0.1689453125,19.695121951219512,-22.5609756097561,-7.073170731707318
15_00_23_654,-3.0,-7.0,46.0,34.0,-3.0,-1.0,-3.0,-3.0,0.96044921875,-0.35986328125,0.146484375,17.439024390243905,-22.80487804878049,-11.158536585365855
15_00_23_654,-1.0,-2.0,-28.0,-11.0,-1.0,0.0,-3.0,0.0,0.9580078125,-0.3759765625,0.14111328125,6.219512195121951,-23.78048780487805,-10.548780487804878
15_00_23_654,-5.0,-1.0,1.0,9.0,0.0,1.0,3.0,-30.0,0.8916015625,-0.34521484375,0.17626953125,1.524390243902439,-24.26829268292683,-11.402439024390246
15_00_23_654,13.0,-1.0,-18.0,3.0,-3.0,0.0,4.0,26.0,0.88232421875,-0.3291015625,0.21484375,0.06097560975609757,-25.30487804878049,-13.719512195121952
15_00_23_654,-15.0,2.0,2.0,2.0,4.0,2.0,-9.0,-8.0,0.93505859375,-0.37109375,0.21826171875,-0.5487804878048781,-27.195121951219516,-16.158536585365855
15_00_23_654,-6.0,-3.0,-1.0,-8.0,-5.0,0.0,-1.0,26.0,1.02197265625,-0.42529296875,0.20947265625,-7.560975609756098,-27.195121951219516,-14.207317073170733
15_00_23_654,-2.0,6.0,2.0,0.0,-1.0,1.0,3.0,-9.0,1.00244140625,-0.431640625,0.228515625,-4.51219512195122,-22.5609756097561,-5.914634146341464
15_00_23_654,-6.0,-3.0,20.0,0.0,-4.0,-3.0,0.0,3.0,0.87939453125,-0.36767578125,0.259765625,8.170731707317074,-16.76829268292683,0.6707317073170732
15_00_23_686,0.0,-8.0,-19.0,-5.0,1.0,1.0,-3.0,0.0,0.88671875,-0.46533203125,0.17431640625,0.9146341463414634,-29.39024390243903,-9.085365853658537
15_00_23_686,0.0,4.0,-5.0,-6.0,1.0,2.0,0.0,-3.0,0.9052734375,-0.37646484375,0.181640625,-2.8658536585365857,-24.75609756097561,-5.548780487804878
15_00_23_686,4.0,2.0,9.0,-15.0,-1.0,1.0,1.0,-4.0,0.900390625,-0.314453125,0.1728515625,8.536585365853659,-23.10975609756098,-4.451219512195122
15_00_23_686,-4.0,-4.0,12.0,22.0,-3.0,1.0,-3.0,-1.0,0.908203125,-0.31396484375,0.1689453125,19.695121951219512,-22.5609756097561,-7.073170731707318
15_00_23_686,0.0,-2.0,-6.0,-17.0,-4.0,1.0,-2.0,3.0,0.96044921875,-0.35986328125,0.146484375,17.439024390243905,-22.80487804878049,-11.158536585365855
15_00_23_686,0.0,-3.0,3.0,11.0,-1.0,-2.0,1.0,6.0,0.9580078125,-0.3759765625,0.14111328125,6.219512195121951,-23.78048780487805,-10.548780487804878
15_00_23_686,0.0,-3.0,3.0,-5.0,-1.0,1.0,3.0,6.0,0.8916015625,-0.34521484375,0.17626953125,1.524390243902439,-24.26829268292683,-11.402439024390246
15_00_23_686,1.0,1.0,8.0,11.0,0.0,-1.0,-3.0,7.0,0.88232421875,-0.3291015625,0.21484375,0.06097560975609757,-25.30487804878049,-13.719512195121952
15_00_23_686,-13.0,-5.0,-25.0,-11.0,-1.0,-2.0,-10.0,-74.0,0.93505859375,-0.37109375,0.21826171875,-0.5487804878048781,-27.195121951219516,-16.158536585365855
15_00_23_758,-4.0,-5.0,-26.0,-23.0,-7.0,-3.0,-2.0,-1.0,0.9091796875,-0.3740234375,0.09814453125,-6.036585365853659,-31.34146341463415,-10.182926829268293
15_00_23_758,-4.0,-4.0,11.0,0.0,1.0,0.0,-2.0,1.0,0.849609375,-0.328125,0.1044921875,5.365853658536586,-31.219512195121954,-10.426829268292684
15_00_23_758,-2.0,0.0,-15.0,-1.0,-1.0,-1.0,0.0,-12.0,0.8408203125,-0.337890625,0.12353515625,21.707317073170735,-32.25609756097561,-10.060975609756099
15_00_23_758,-3.0,-2.0,-22.0,-7.0,-3.0,-2.0,3.0,7.0,0.87841796875,-0.42724609375,0.1572265625,18.78048780487805,-32.19512195121951,-10.121951219512196
15_00_23_758,-4.0,0.0,33.0,-2.0,0.0,1.0,1.0,-2.0,0.88671875,-0.46533203125,0.17431640625,0.9146341463414634,-29.39024390243903,-9.085365853658537
15_00_23_758,2.0,-2.0,-17.0,-5.0,-3.0,-1.0,-5.0,8.0,0.9052734375,-0.37646484375,0.181640625,-2.8658536585365857,-24.75609756097561,-5.548780487804878
15_00_23_758,-11.0,-21.0,37.0,-36.0,-17.0,-10.0,-5.0,-7.0,0.900390625,-0.314453125,0.1728515625,8.536585365853659,-23.10975609756098,-4.451219512195122
15_00_23_758,2.0,4.0,26.0,18.0,9.0,4.0,1.0,-2.0,0.908203125,-0.31396484375,0.1689453125,19.695121951219512,-22.5609756097561,-7.073170731707318
15_00_23_758,-2.0,9.0,-8.0,20.0,7.0,-1.0,-2.0,-5.0,0.96044921875,-0.35986328125,0.146484375,17.439024390243905,-22.80487804878049,-11.158536585365855
15_00_23_758,-3.0,-10.0,-57.0,1.0,-3.0,0.0,-3.0,20.0,0.9580078125,-0.3759765625,0.14111328125,6.219512195121951,-23.78048780487805,-10.548780487804878
15_00_23_814,0.0,-1.0,11.0,-29.0,-15.0,-2.0,-1.0,0.0,0.92431640625,-0.31591796875,0.08251953125,16.03658536585366,-35.1219512195122,-8.658536585365855
15_00_23_814,-6.0,-8.0,8.0,-4.0,7.0,0.0,-4.0,-5.0,0.95654296875,-0.39013671875,0.09228515625,11.707317073170733,-34.69512195121951,-8.841463414634147
15_00_23_814,-2.0,-1.0,-1.0,-3.0,-13.0,-9.0,-4.0,0.0,0.9296875,-0.40673828125,0.11962890625,3.2926829268292686,-33.29268292682927,-9.695121951219512
15_00_23_814,1.0,8.0,-9.0,105.0,44.0,15.0,4.0,2.0,0.9091796875,-0.3740234375,0.09814453125,-6.036585365853659,-31.34146341463415,-10.182926829268293
15_00_23_814,-4.0,-12.0,44.0,-49.0,-14.0,-1.0,0.0,0.0,0.849609375,-0.328125,0.1044921875,5.365853658536586,-31.219512195121954,-10.426829268292684
15_00_23_814,1.0,-1.0,-1.0,1.0,-2.0,-5.0,-2.0,-3.0,0.8408203125,-0.337890625,0.12353515625,21.707317073170735,-32.25609756097561,-10.060975609756099
15_00_23_814,-4.0,-3.0,13.0,-19.0,-3.0,-4.0,-3.0,-4.0,0.87841796875,-0.42724609375,0.1572265625,18.78048780487805,-32.19512195121951,-10.121951219512196
15_00_23_814,2.0,-1.0,11.0,23.0,-3.0,-4.0,0.0,-2.0,0.88671875,-0.46533203125,0.17431640625,0.9146341463414634,-29.39024390243903,-9.085365853658537
15_00_23_814,-2.0,-4.0,-14.0,-13.0,0.0,-5.0,-3.0,-3.0,0.9052734375,-0.37646484375,0.181640625,-2.8658536585365857,-24.75609756097561,-5.548780487804878
15_00_23_814,-5.0,-6.0,-34.0,-26.0,-16.0,-3.0,4.0,-1.0,0.900390625,-0.314453125,0.1728515625,8.536585365853659,-23.10975609756098,-4.451219512195122
15_00_23_855,-2.0,0.0,-10.0,-22.0,-5.0,-3.0,-2.0,1.0,0.9609375,-0.31005859375,-0.01220703125,-23.04878048780488,-30.975609756097565,-1.0975609756097562
15_00_23_855,-2.0,0.0,4.0,2.0,0.0,-2.0,-2.0,0.0,0.8896484375,-0.25146484375,0.00146484375,4.634146341463415,-37.31707317073171,-5.121951219512195
15_00_23_855,0.0,3.0,17.0,-9.0,0.0,-1.0,0.0,3.0,0.92431640625,-0.31591796875,0.08251953125,16.03658536585366,-35.1219512195122,-8.658536585365855
15_00_23_855,-5.0,-5.0,-88.0,-5.0,-3.0,1.0,-3.0,1.0,0.95654296875,-0.39013671875,0.09228515625,11.707317073170733,-34.69512195121951,-8.841463414634147
15_00_23_855,0.0,3.0,30.0,5.0,3.0,1.0,1.0,-5.0,0.9296875,-0.40673828125,0.11962890625,3.2926829268292686,-33.29268292682927,-9.695121951219512
15_00_23_855,-2.0,-3.0,23.0,-1.0,-2.0,-3.0,-3.0,-3.0,0.9091796875,-0.3740234375,0.09814453125,-6.036585365853659,-31.34146341463415,-10.182926829268293
15_00_23_855,-1.0,-4.0,-23.0,-6.0,-6.0,-4.0,-1.0,-1.0,0.849609375,-0.328125,0.1044921875,5.365853658536586,-31.219512195121954,-10.426829268292684
15_00_23_855,-1.0,-2.0,35.0,-4.0,2.0,-1.0,-1.0,0.0,0.8408203125,-0.337890625,0.12353515625,21.707317073170735,-32.25609756097561,-10.060975609756099
15_00_23_855,-3.0,0.0,1.0,4.0,-3.0,-2.0,-3.0,3.0,0.87841796875,-0.42724609375,0.1572265625,18.78048780487805,-32.19512195121951,-10.121951219512196
15_00_23_855,1.0,0.0,-44.0,14.0,-1.0,0.0,1.0,-3.0,0.88671875,-0.46533203125,0.17431640625,0.9146341463414634,-29.39024390243903,-9.085365853658537
15_00_23_916,-1.0,-4.0,20.0,-44.0,-13.0,-4.0,2.0,0.0,0.90966796875,-0.3271484375,0.13037109375,20.853658536585368,-28.292682926829272,5.548780487804878
15_00_23_916,-1.0,11.0,32.0,21.0,7.0,2.0,2.0,0.0,0.92724609375,-0.41796875,0.1484375,4.451219512195122,-20.975609756097562,1.7682926829268295
15_00_23_916,9.0,-7.0,-102.0,-11.0,-6.0,-1.0,0.0,1.0,0.98486328125,-0.43115234375,0.0927734375,-16.890243902439025,-23.170731707317074,-1.3414634146341464
15_00_23_916,9.0,4.0,-2.0,18.0,9.0,7.0,5.0,4.0,0.9609375,-0.31005859375,-0.01220703125,-23.04878048780488,-30.975609756097565,-1.0975609756097562
15_00_23_916,-23.0,-11.0,-37.0,-13.0,8.0,0.0,-2.0,-2.0,0.8896484375,-0.25146484375,0.00146484375,4.634146341463415,-37.31707317073171,-5.121951219512195
15_00_23_916,-3.0,-4.0,-3.0,8.0,-7.0,1.0,0.0,1.0,0.92431640625,-0.31591796875,0.08251953125,16.03658536585366,-35.1219512195122,-8.658536585365855
15_00_23_916,-5.0,-2.0,-18.0,-23.0,-13.0,-4.0,-4.0,-4.0,0.95654296875,-0.39013671875,0.09228515625,11.707317073170733,-34.69512195121951,-8.841463414634147
15_00_23_916,-3.0,8.0,8.0,9.0,2.0,-1.0,-1.0,-2.0,0.9296875,-0.40673828125,0.11962890625,3.2926829268292686,-33.29268292682927,-9.695121951219512
15_00_23_916,-3.0,-9.0,11.0,-4.0,-1.0,-2.0,-1.0,-2.0,0.9091796875,-0.3740234375,0.09814453125,-6.036585365853659,-31.34146341463415,-10.182926829268293
15_00_23_916,1.0,-8.0,3.0,8.0,2.0,0.0,1.0,-1.0,0.849609375,-0.328125,0.1044921875,5.365853658536586,-31.219512195121954,-10.426829268292684
15_00_23_958,7.0,8.0,9.0,16.0,22.0,2.0,-10.0,-53.0,1.00048828125,-0.37109375,0.22021484375,-69.75609756097562,-16.402439024390244,-20.365853658536587
15_00_23_958,5.0,-5.0,-1.0,0.0,-5.0,1.0,27.0,24.0,1.05029296875,-0.1376953125,0.0654296875,-50.0609756097561,-15.426829268292684,-8.597560975609756
15_00_23_958,-10.0,3.0,7.0,-5.0,-1.0,10.0,9.0,9.0,1.005859375,-0.2109375,0.0107421875,-17.31707317073171,-30.000000000000004,7.01219512195122
15_00_23_958,-8.0,-15.0,40.0,-14.0,-15.0,-10.0,6.0,1.0,0.90966796875,-0.3271484375,0.13037109375,20.853658536585368,-28.292682926829272,5.548780487804878
15_00_23_958,6.0,10.0,120.0,49.0,23.0,-2.0,-7.0,8.0,0.92724609375,-0.41796875,0.1484375,4.451219512195122,-20.975609756097562,1.7682926829268295
15_00_23_958,35.0,17.0,28.0,-7.0,16.0,16.0,3.0,11.0,0.98486328125,-0.43115234375,0.0927734375,-16.890243902439025,-23.170731707317074,-1.3414634146341464
15_00_23_958,1.0,-13.0,-20.0,-20.0,-20.0,-10.0,-10.0,-12.0,0.9609375,-0.31005859375,-0.01220703125,-23.04878048780488,-30.975609756097565,-1.0975609756097562
15_00_23_958,-8.0,-8.0,-2.0,10.0,5.0,-4.0,-4.0,-7.0,0.8896484375,-0.25146484375,0.00146484375,4.634146341463415,-37.31707317073171,-5.121951219512195
15_00_23_958,-2.0,-7.0,-22.0,-21.0,-4.0,11.0,26.0,-1.0,0.92431640625,-0.31591796875,0.08251953125,16.03658536585366,-35.1219512195122,-8.658536585365855
15_00_23_958,3.0,6.0,2.0,-19.0,-8.0,-6.0,-16.0,-6.0,0.95654296875,-0.39013671875,0.09228515625,11.707317073170733,-34.69512195121951,-8.841463414634147
15_00_24_019,3.0,-13.0,-16.0,-48.0,6.0,-4.0,-2.0,5.0,1.0966796875,-0.37548828125,0.0986328125,49.024390243902445,-28.658536585365855,-9.573170731707318
15_00_24_019,-20.0,-10.0,-29.0,39.0,11.0,-1.0,-5.0,-36.0,0.96728515625,-0.560546875,0.1748046875,-16.646341463414636,-29.695121951219516,-14.939024390243905
15_00_24_019,9.0,5.0,-20.0,-50.0,-11.0,-3.0,8.0,49.0,1.00048828125,-0.37109375,0.22021484375,-69.75609756097562,-16.402439024390244,-20.365853658536587
15_00_24_019,2.0,-1.0,38.0,44.0,5.0,0.0,9.0,15.0,1.05029296875,-0.1376953125,0.0654296875,-50.0609756097561,-15.426829268292684,-8.597560975609756
15_00_24_019,13.0,0.0,-25.0,6.0,11.0,2.0,5.0,2.0,1.005859375,-0.2109375,0.0107421875,-17.31707317073171,-30.000000000000004,7.01219512195122
15_00_24_019,7.0,12.0,13.0,-17.0,-17.0,-4.0,0.0,1.0,0.90966796875,-0.3271484375,0.13037109375,20.853658536585368,-28.292682926829272,5.548780487804878
15_00_24_019,-51.0,-8.0,-14.0,-27.0,-6.0,1.0,-8.0,-30.0,0.92724609375,-0.41796875,0.1484375,4.451219512195122,-20.975609756097562,1.7682926829268295
15_00_24_019,38.0,4.0,7.0,66.0,31.0,17.0,55.0,20.0,0.98486328125,-0.43115234375,0.0927734375,-16.890243902439025,-23.170731707317074,-1.3414634146341464
15_00_24_019,27.0,7.0,-17.0,-60.0,-21.0,-10.0,20.0,40.0,0.9609375,-0.31005859375,-0.01220703125,-23.04878048780488,-30.975609756097565,-1.0975609756097562
15_00_24_019,-17.0,-5.0,-11.0,-13.0,-13.0,-6.0,-67.0,-23.0,0.8896484375,-0.25146484375,0.00146484375,4.634146341463415,-37.31707317073171,-5.121951219512195
15_00_24_073,-44.0,20.0,-2.0,127.0,49.0,24.0,6.0,17.0,0.94287109375,-0.5166015625,-0.00146484375,-25.0609756097561,-16.70731707317073,-7.8048780487804885
15_00_24_073,-5.0,1.0,0.0,-83.0,-58.0,-40.0,-42.0,-8.0,1.02001953125,-0.25634765625,-0.0537109375,-25.365853658536587,-10.30487804878049,-17.865853658536587
15_00_24_073,29.0,-16.0,-31.0,-69.0,-16.0,-12.0,11.0,-21.0,1.10302734375,-0.185546875,0.0556640625,35.0,-15.060975609756099,-11.463414634146343
15_00_24_073,-13.0,0.0,5.0,33.0,35.0,6.0,18.0,36.0,1.0966796875,-0.37548828125,0.0986328125,49.024390243902445,-28.658536585365855,-9.573170731707318
15_00_24_073,-17.0,-3.0,1.0,28.0,4.0,9.0,-37.0,-60.0,0.96728515625,-0.560546875,0.1748046875,-16.646341463414636,-29.695121951219516,-14.939024390243905
15_00_24_073,10.0,1.0,-13.0,-50.0,2.0,54.0,48.0,2.0,1.00048828125,-0.37109375,0.22021484375,-69.75609756097562,-16.402439024390244,-20.365853658536587
15_00_24_073,-33.0,-1.0,44.0,-12.0,-24.0,-24.0,-93.0,22.0,1.05029296875,-0.1376953125,0.0654296875,-50.0609756097561,-15.426829268292684,-8.597560975609756
15_00_24_073,-1.0,-28.0,-66.0,6.0,-2.0,-27.0,2.0,6.0,1.005859375,-0.2109375,0.0107421875,-17.31707317073171,-30.000000000000004,7.01219512195122
15_00_24_073,-25.0,-6.0,-43.0,104.0,10.0,8.0,-2.0,-10.0,0.90966796875,-0.3271484375,0.13037109375,20.853658536585368,-28.292682926829272,5.548780487804878
15_00_24_073,9.0,18.0,-20.0,-72.0,-10.0,-6.0,-5.0,-3.0,0.92724609375,-0.41796875,0.1484375,4.451219512195122,-20.975609756097562,1.7682926829268295
15_00_24_124,13.0,-14.0,-45.0,-128.0,19.0,33.0,7.0,-13.0,1.05517578125,-0.158203125,0.12939453125,-9.695121951219512,1.5853658536585367,-8.658536585365855
15_00_24_124,5.0,19.0,64.0,127.0,40.0,10.0,20.0,26.0,1.1669921875,-0.1181640625,0.04833984375,15.975609756097562,-6.036585365853659,-13.353658536585368
15_00_24_124,-7.0,-4.0,-11.0,28.0,-13.0,-1.0,8.0,-4.0,1.03173828125,-0.35498046875,-0.09423828125,24.451219512195124,-19.75609756097561,-5.731707317073171
15_00_24_124,2.0,-5.0,-21.0,-94.0,-35.0,-21.0,10.0,6.0,0.94287109375,-0.5166015625,-0.00146484375,-25.0609756097561,-16.70731707317073,-7.8048780487804885
15_00_24_124,-15.0,3.0,27.0,115.0,70.0,20.0,-24.0,-11.0,1.02001953125,-0.25634765625,-0.0537109375,-25.365853658536587,-10.30487804878049,-17.865853658536587
15_00_24_124,11.0,8.0,0.0,-46.0,-36.0,-6.0,-22.0,-21.0,1.10302734375,-0.185546875,0.0556640625,35.0,-15.060975609756099,-11.463414634146343
15_00_24_124,-1.0,-9.0,-12.0,0.0,-8.0,-11.0,7.0,14.0,1.0966796875,-0.37548828125,0.0986328125,49.024390243902445,-28.658536585365855,-9.573170731707318
15_00_24_124,-1.0,-9.0,-6.0,29.0,2.0,-1.0,22.0,4.0,0.96728515625,-0.560546875,0.1748046875,-16.646341463414636,-29.695121951219516,-14.939024390243905
15_00_24_124,7.0,5.0,13.0,15.0,-8.0,-3.0,4.0,34.0,1.00048828125,-0.37109375,0.22021484375,-69.75609756097562,-16.402439024390244,-20.365853658536587
15_00_24_124,3.0,2.0,1.0,-40.0,1.0,-1.0,-16.0,-22.0,1.05029296875,-0.1376953125,0.0654296875,-50.0609756097561,-15.426829268292684,-8.597560975609756
15_00_24_178,0.0,-14.0,8.0,127.0,78.0,21.0,48.0,42.0,0.96240234375,-0.2265625,0.078125,-19.390243902439025,7.01219512195122,1.7682926829268295
15_00_24_178,0.0,2.0,-2.0,-47.0,-60.0,-8.0,13.0,12.0,0.9970703125,-0.21826171875,0.16552734375,-22.073170731707318,-0.30487804878048785,-0.5487804878048781
15_00_24_178,1.0,5.0,-6.0,-99.0,-11.0,-15.0,-5.0,1.0,1.05517578125,-0.158203125,0.12939453125,-9.695121951219512,1.5853658536585367,-8.658536585365855
15_00_24_178,-18.0,-5.0,23.0,64.0,-16.0,-18.0,-100.0,-68.0,1.1669921875,-0.1181640625,0.04833984375,15.975609756097562,-6.036585365853659,-13.353658536585368
15_00_24_178,14.0,7.0,19.0,127.0,21.0,3.0,49.0,46.0,1.03173828125,-0.35498046875,-0.09423828125,24.451219512195124,-19.75609756097561,-5.731707317073171
15_00_24_178,-48.0,-16.0,-47.0,-128.0,-31.0,1.0,7.0,11.0,0.94287109375,-0.5166015625,-0.00146484375,-25.0609756097561,-16.70731707317073,-7.8048780487804885
15_00_24_178,36.0,11.0,61.0,127.0,39.0,20.0,45.0,52.0,1.02001953125,-0.25634765625,-0.0537109375,-25.365853658536587,-10.30487804878049,-17.865853658536587
15_00_24_178,-10.0,-10.0,-37.0,-95.0,-33.0,-25.0,-25.0,-79.0,1.10302734375,-0.185546875,0.0556640625,35.0,-15.060975609756099,-11.463414634146343
15_00_24_178,6.0,-2.0,-4.0,36.0,-4.0,-4.0,-10.0,61.0,1.0966796875,-0.37548828125,0.0986328125,49.024390243902445,-28.658536585365855,-9.573170731707318
15_00_24_178,4.0,2.0,-11.0,-83.0,-51.0,-26.0,-61.0,-29.0,0.96728515625,-0.560546875,0.1748046875,-16.646341463414636,-29.695121951219516,-14.939024390243905
15_00_24_224,6.0,6.0,21.0,100.0,91.0,87.0,-3.0,-5.0,0.939453125,-0.3369140625,0.0712890625,-14.085365853658537,7.134146341463415,4.451219512195122
15_00_24_224,3.0,-2.0,-45.0,12.0,-8.0,31.0,21.0,5.0,1.0048828125,-0.3505859375,0.0,-26.463414634146343,3.048780487804878,0.7317073170731708
15_00_24_224,18.0,28.0,34.0,-128.0,-5.0,-24.0,26.0,15.0,0.951171875,-0.29541015625,-0.001953125,-24.451219512195124,6.646341463414635,1.2195121951219514
15_00_24_224,5.0,-6.0,-7.0,92.0,25.0,-27.0,-23.0,4.0,0.96240234375,-0.2265625,0.078125,-19.390243902439025,7.01219512195122,1.7682926829268295
15_00_24_224,-2.0,-16.0,-13.0,-54.0,-122.0,-64.0,-16.0,-4.0,0.9970703125,-0.21826171875,0.16552734375,-22.073170731707318,-0.30487804878048785,-0.5487804878048781
15_00_24_224,-9.0,-23.0,-21.0,72.0,0.0,-26.0,18.0,-6.0,1.05517578125,-0.158203125,0.12939453125,-9.695121951219512,1.5853658536585367,-8.658536585365855
15_00_24_224,6.0,15.0,9.0,-128.0,-12.0,-37.0,-2.0,-13.0,1.1669921875,-0.1181640625,0.04833984375,15.975609756097562,-6.036585365853659,-13.353658536585368
15_00_24_224,4.0,1.0,19.0,106.0,127.0,127.0,-36.0,36.0,1.03173828125,-0.35498046875,-0.09423828125,24.451219512195124,-19.75609756097561,-5.731707317073171
15_00_24_224,17.0,7.0,-3.0,-103.0,-35.0,29.0,-112.0,-52.0,0.94287109375,-0.5166015625,-0.00146484375,-25.0609756097561,-16.70731707317073,-7.8048780487804885
15_00_24_224,1.0,-4.0,-1.0,86.0,41.0,-60.0,30.0,22.0,1.02001953125,-0.25634765625,-0.0537109375,-25.365853658536587,-10.30487804878049,-17.865853658536587
15_00_24_298,-4.0,11.0,18.0,-128.0,-128.0,-128.0,-10.0,10.0,1.05078125,-0.0732421875,0.10693359375,-6.52439024390244,6.036585365853659,22.195121951219512
15_00_24_298,-7.0,-8.0,-15.0,-128.0,-128.0,62.0,-1.0,0.0,0.9130859375,-0.29296875,0.1572265625,-16.402439024390244,4.51219512195122,10.548780487804878
15_00_24_298,-2.0,-12.0,28.0,127.0,127.0,127.0,-43.0,26.0,0.80517578125,-0.31201171875,0.12109375,-21.52439024390244,4.573170731707317,3.7195121951219514
15_00_24_298,21.0,37.0,33.0,118.0,127.0,1.0,-1.0,48.0,0.939453125,-0.3369140625,0.0712890625,-14.085365853658537,7.134146341463415,4.451219512195122
15_00_24_298,-20.0,-9.0,-20.0,-25.0,-128.0,-82.0,4.0,-45.0,1.0048828125,-0.3505859375,0.0,-26.463414634146343,3.048780487804878,0.7317073170731708
15_00_24_298,5.0,1.0,21.0,-87.0,-44.0,-47.0,2.0,-38.0,0.951171875,-0.29541015625,-0.001953125,-24.451219512195124,6.646341463414635,1.2195121951219514
15_00_24_298,10.0,2.0,-12.0,-26.0,-43.0,-8.0,29.0,81.0,0.96240234375,-0.2265625,0.078125,-19.390243902439025,7.01219512195122,1.7682926829268295
15_00_24_298,-5.0,8.0,0.0,60.0,38.0,-3.0,-22.0,-16.0,0.9970703125,-0.21826171875,0.16552734375,-22.073170731707318,-0.30487804878048785,-0.5487804878048781
15_00_24_298,15.0,5.0,48.0,97.0,109.0,127.0,3.0,7.0,1.05517578125,-0.158203125,0.12939453125,-9.695121951219512,1.5853658536585367,-8.658536585365855
15_00_24_298,-15.0,-4.0,-34.0,-128.0,-111.0,-128.0,-6.0,-13.0,1.1669921875,-0.1181640625,0.04833984375,15.975609756097562,-6.036585365853659,-13.353658536585368
15_00_24_340,-45.0,-14.0,-36.0,127.0,119.0,127.0,34.0,48.0,1.09130859375,-0.494140625,0.03271484375,5.670731707317073,11.463414634146343,21.585365853658537
15_00_24_340,-20.0,8.0,23.0,-12.0,-62.0,-41.0,-10.0,-15.0,0.953125,-0.47021484375,0.1005859375,-16.158536585365855,10.30487804878049,10.670731707317074
15_00_24_340,16.0,4.0,-12.0,-30.0,-128.0,-128.0,83.0,-19.0,0.99658203125,-0.13525390625,0.13330078125,-13.29268292682927,11.76829268292683,16.219512195121954
15_00_24_340,1.0,-2.0,19.0,69.0,127.0,127.0,75.0,46.0,1.05078125,-0.0732421875,0.10693359375,-6.52439024390244,6.036585365853659,22.195121951219512
15_00_24_340,12.0,13.0,4.0,59.0,127.0,32.0,1.0,20.0,0.9130859375,-0.29296875,0.1572265625,-16.402439024390244,4.51219512195122,10.548780487804878
15_00_24_340,-7.0,0.0,26.0,127.0,127.0,-45.0,5.0,-24.0,0.80517578125,-0.31201171875,0.12109375,-21.52439024390244,4.573170731707317,3.7195121951219514
15_00_24_340,-11.0,2.0,-13.0,-44.0,-128.0,-48.0,20.0,26.0,0.939453125,-0.3369140625,0.0712890625,-14.085365853658537,7.134146341463415,4.451219512195122
15_00_24_340,-38.0,0.0,18.0,-1.0,-9.0,-56.0,-43.0,-37.0,1.0048828125,-0.3505859375,0.0,-26.463414634146343,3.048780487804878,0.7317073170731708
15_00_24_340,106.0,-14.0,-7.0,52.0,127.0,69.0,62.0,85.0,0.951171875,-0.29541015625,-0.001953125,-24.451219512195124,6.646341463414635,1.2195121951219514
15_00_24_340,-21.0,3.0,-29.0,-85.0,-128.0,-71.0,-111.0,-66.0,0.96240234375,-0.2265625,0.078125,-19.390243902439025,7.01219512195122,1.7682926829268295
15_00_24_390,3.0,28.0,15.0,-70.0,-71.0,-128.0,-77.0,-77.0,1.01611328125,-0.341796875,0.0419921875,-8.902439024390244,14.695121951219514,19.390243902439025
15_00_24_390,6.0,-7.0,-46.0,-128.0,-128.0,-128.0,-128.0,-102.0,0.98681640625,-0.26220703125,0.044921875,6.2804878048780495,15.54878048780488,25.48780487804878
15_00_24_390,-39.0,0.0,-36.0,-30.0,127.0,127.0,127.0,-80.0,1.09130859375,-0.494140625,0.03271484375,5.670731707317073,11.463414634146343,21.585365853658537
15_00_24_390,-13.0,-5.0,13.0,127.0,127.0,66.0,-52.0,-44.0,0.953125,-0.47021484375,0.1005859375,-16.158536585365855,10.30487804878049,10.670731707317074
15_00_24_390,-13.0,-3.0,24.0,-128.0,-128.0,19.0,11.0,7.0,0.99658203125,-0.13525390625,0.13330078125,-13.29268292682927,11.76829268292683,16.219512195121954
15_00_24_390,9.0,-2.0,-33.0,-71.0,125.0,56.0,32.0,71.0,1.05078125,-0.0732421875,0.10693359375,-6.52439024390244,6.036585365853659,22.195121951219512
15_00_24_390,63.0,6.0,-10.0,-112.0,-128.0,-128.0,23.0,-6.0,0.9130859375,-0.29296875,0.1572265625,-16.402439024390244,4.51219512195122,10.548780487804878
15_00_24_390,-16.0,-9.0,14.0,-128.0,127.0,-128.0,62.0,107.0,0.80517578125,-0.31201171875,0.12109375,-21.52439024390244,4.573170731707317,3.7195121951219514
15_00_24_390,-38.0,-10.0,1.0,127.0,-128.0,16.0,-64.0,64.0,0.939453125,-0.3369140625,0.0712890625,-14.085365853658537,7.134146341463415,4.451219512195122
15_00_24_390,-76.0,-24.0,-65.0,-128.0,88.0,127.0,-128.0,-128.0,1.0048828125,-0.3505859375,0.0,-26.463414634146343,3.048780487804878,0.7317073170731708
15_00_24_453,31.0,17.0,32.0,127.0,127.0,127.0,127.0,68.0,1.1015625,-0.40380859375,0.09814453125,19.207317073170735,9.695121951219512,39.63414634146342
15_00_24_453,10.0,8.0,-2.0,-78.0,-128.0,-128.0,-39.0,91.0,1.14404296875,-0.5107421875,0.0888671875,5.182926829268293,12.987804878048781,29.81707317073171
15_00_24_453,22.0,30.0,-47.0,56.0,67.0,-54.0,-109.0,-93.0,1.01611328125,-0.341796875,0.0419921875,-8.902439024390244,14.695121951219514,19.390243902439025
15_00_24_453,-10.0,-19.0,-52.0,-120.0,-65.0,99.0,16.0,-61.0,0.98681640625,-0.26220703125,0.044921875,6.2804878048780495,15.54878048780488,25.48780487804878
15_00_24_453,27.0,-9.0,25.0,127.0,114.0,-40.0,43.0,51.0,1.09130859375,-0.494140625,0.03271484375,5.670731707317073,11.463414634146343,21.585365853658537
15_00_24_453,-21.0,-28.0,17.0,46.0,127.0,127.0,14.0,-67.0,0.953125,-0.47021484375,0.1005859375,-16.158536585365855,10.30487804878049,10.670731707317074
15_00_24_453,-6.0,32.0,-24.0,91.0,-128.0,-107.0,-16.0,94.0,0.99658203125,-0.13525390625,0.13330078125,-13.29268292682927,11.76829268292683,16.219512195121954
15_00_24_453,97.0,27.0,17.0,-1.0,-75.0,-128.0,-46.0,-128.0,1.05078125,-0.0732421875,0.10693359375,-6.52439024390244,6.036585365853659,22.195121951219512
15_00_24_453,47.0,3.0,1.0,-19.0,127.0,127.0,27.0,29.0,0.9130859375,-0.29296875,0.1572265625,-16.402439024390244,4.51219512195122,10.548780487804878
15_00_24_496,-28.0,4.0,-51.0,-128.0,-128.0,-128.0,-118.0,28.0,1.01708984375,-0.49853515625,0.0712890625,1.8902439024390245,22.98780487804878,49.75609756097561
15_00_24_496,-26.0,17.0,-17.0,-126.0,-128.0,-128.0,91.0,-31.0,0.953125,-0.51171875,0.06103515625,1.3414634146341464,19.32926829268293,40.79268292682927
15_00_24_496,61.0,24.0,3.0,-95.0,127.0,127.0,78.0,24.0,1.09228515625,-0.47509765625,0.0703125,10.426829268292684,15.487804878048783,38.170731707317074
15_00_24_496,24.0,24.0,23.0,11.0,104.0,127.0,49.0,-128.0,1.1015625,-0.40380859375,0.09814453125,19.207317073170735,9.695121951219512,39.63414634146342
15_00_24_496,-25.0,-17.0,17.0,13.0,-128.0,-128.0,50.0,85.0,1.14404296875,-0.5107421875,0.0888671875,5.182926829268293,12.987804878048781,29.81707317073171
15_00_24_496,9.0,-30.0,-46.0,-128.0,-128.0,-128.0,49.0,-8.0,1.01611328125,-0.341796875,0.0419921875,-8.902439024390244,14.695121951219514,19.390243902439025
15_00_24_496,5.0,19.0,-15.0,-128.0,-75.0,127.0,-8.0,10.0,0.98681640625,-0.26220703125,0.044921875,6.2804878048780495,15.54878048780488,25.48780487804878
15_00_24_496,5.0,-5.0,-19.0,-128.0,-32.0,-128.0,65.0,6.0,1.09130859375,-0.494140625,0.03271484375,5.670731707317073,11.463414634146343,21.585365853658537
15_00_24_496,-8.0,27.0,27.0,86.0,-42.0,-34.0,-119.0,-76.0,0.953125,-0.47021484375,0.1005859375,-16.158536585365855,10.30487804878049,10.670731707317074
15_00_24_562,22.0,-8.0,6.0,42.0,29.0,93.0,76.0,-60.0,0.83056640625,-0.529296875,0.04736328125,-11.829268292682928,36.28048780487805,54.146341463414636
15_00_24_562,-40.0,-36.0,-36.0,-128.0,-128.0,-128.0,-13.0,-56.0,0.84814453125,-0.5546875,0.18896484375,-16.646341463414636,33.90243902439025,57.865853658536594
15_00_24_562,26.0,29.0,82.0,127.0,93.0,81.0,70.0,42.0,1.01904296875,-0.4091796875,0.10791015625,3.7195121951219514,32.987804878048784,55.365853658536594
15_00_24_562,61.0,20.0,1.0,-32.0,127.0,127.0,-5.0,79.0,1.01708984375,-0.49853515625,0.0712890625,1.8902439024390245,22.98780487804878,49.75609756097561
15_00_24_562,-19.0,7.0,-4.0,59.0,-128.0,-128.0,-116.0,-87.0,0.953125,-0.51171875,0.06103515625,1.3414634146341464,19.32926829268293,40.79268292682927
15_00_24_562,-7.0,-2.0,32.0,127.0,127.0,127.0,-83.0,-4.0,1.09228515625,-0.47509765625,0.0703125,10.426829268292684,15.487804878048783,38.170731707317074
15_00_24_562,2.0,0.0,-9.0,-23.0,-128.0,-128.0,35.0,-85.0,1.1015625,-0.40380859375,0.09814453125,19.207317073170735,9.695121951219512,39.63414634146342
15_00_24_562,6.0,10.0,-34.0,46.0,-53.0,-38.0,119.0,74.0,1.14404296875,-0.5107421875,0.0888671875,5.182926829268293,12.987804878048781,29.81707317073171
15_00_24_562,-74.0,-57.0,24.0,10.0,127.0,127.0,11.0,18.0,1.01611328125,-0.341796875,0.0419921875,-8.902439024390244,14.695121951219514,19.390243902439025
15_00_24_562,-28.0,4.0,-51.0,-128.0,-128.0,-128.0,-118.0,28.0,0.98681640625,-0.26220703125,0.044921875,6.2804878048780495,15.54878048780488,25.48780487804878
15_00_24_606,-22.0,1.0,11.0,-64.0,127.0,127.0,60.0,4.0,0.89794921875,-0.54150390625,0.203125,-39.390243902439025,50.304878048780495,56.646341463414636
15_00_24_606,22.0,71.0,7.0,-73.0,70.0,127.0,4.0,91.0,0.8388671875,-0.439453125,0.09423828125,-33.35365853658537,48.10975609756098,56.951219512195124
15_00_24_606,-6.0,-4.0,-7.0,33.0,32.0,88.0,76.0,-100.0,1.0068359375,-0.447265625,-0.0654296875,-14.695121951219514,45.1219512195122,60.67073170731708
15_00_24_606,-40.0,-38.0,-12.0,-81.0,-128.0,-128.0,-128.0,-74.0,0.83056640625,-0.529296875,0.04736328125,-11.829268292682928,36.28048780487805,54.146341463414636
15_00_24_606,31.0,1.0,-35.0,127.0,-128.0,-56.0,-128.0,122.0,0.84814453125,-0.5546875,0.18896484375,-16.646341463414636,33.90243902439025,57.865853658536594
15_00_24_606,28.0,-2.0,31.0,-43.0,127.0,127.0,80.0,-128.0,1.01904296875,-0.4091796875,0.10791015625,3.7195121951219514,32.987804878048784,55.365853658536594
15_00_24_606,-2.0,49.0,50.0,21.0,127.0,53.0,26.0,125.0,1.01708984375,-0.49853515625,0.0712890625,1.8902439024390245,22.98780487804878,49.75609756097561
15_00_24_606,-25.0,-17.0,27.0,72.0,-128.0,-116.0,0.0,12.0,0.953125,-0.51171875,0.06103515625,1.3414634146341464,19.32926829268293,40.79268292682927
15_00_24_606,-7.0,-7.0,-32.0,-92.0,-128.0,-128.0,107.0,-12.0,1.09228515625,-0.47509765625,0.0703125,10.426829268292684,15.487804878048783,38.170731707317074
15_00_24_606,9.0,25.0,18.0,24.0,127.0,127.0,-64.0,24.0,1.1015625,-0.40380859375,0.09814453125,19.207317073170735,9.695121951219512,39.63414634146342
15_00_24_665,5.0,-1.0,-2.0,6.0,29.0,-128.0,98.0,127.0,0.65869140625,-0.70263671875,0.2060546875,-52.987804878048784,54.268292682926834,49.63414634146342
15_00_24_665,2.0,-14.0,-3.0,-128.0,-128.0,-128.0,-29.0,13.0,0.9384765625,-0.515625,-0.017578125,-45.243902439024396,63.71951219512196,48.90243902439025
15_00_24_665,2.0,1.0,-12.0,36.0,25.0,-4.0,62.0,-12.0,1.04052734375,-0.5498046875,0.078125,-34.146341463414636,55.00000000000001,58.90243902439025
15_00_24_665,-128.0,-43.0,-3.0,-19.0,-88.0,-78.0,82.0,-10.0,0.89794921875,-0.54150390625,0.203125,-39.390243902439025,50.304878048780495,56.646341463414636
15_00_24_665,64.0,27.0,-34.0,-128.0,-108.0,-96.0,-63.0,58.0,0.8388671875,-0.439453125,0.09423828125,-33.35365853658537,48.10975609756098,56.951219512195124
15_00_24_665,-62.0,55.0,115.0,-27.0,82.0,127.0,-128.0,-15.0,1.0068359375,-0.447265625,-0.0654296875,-14.695121951219514,45.1219512195122,60.67073170731708
15_00_24_665,4.0,-14.0,-46.0,19.0,-128.0,-128.0,-128.0,-123.0,0.83056640625,-0.529296875,0.04736328125,-11.829268292682928,36.28048780487805,54.146341463414636
15_00_24_665,-15.0,1.0,33.0,127.0,-128.0,-128.0,-15.0,-52.0,0.84814453125,-0.5546875,0.18896484375,-16.646341463414636,33.90243902439025,57.865853658536594
15_00_24_665,22.0,18.0,11.0,-79.0,127.0,127.0,85.0,49.0,1.01904296875,-0.4091796875,0.10791015625,3.7195121951219514,32.987804878048784,55.365853658536594
15_00_24_665,9.0,14.0,15.0,9.0,-128.0,18.0,127.0,51.0,1.01708984375,-0.49853515625,0.0712890625,1.8902439024390245,22.98780487804878,49.75609756097561
15_00_24_714,6.0,15.0,-25.0,-41.0,-88.0,-44.0,62.0,25.0,0.6982421875,-0.8408203125,0.2470703125,-35.97560975609756,48.35365853658537,50.91463414634147
15_00_24_714,0.0,-14.0,-23.0,127.0,55.0,-101.0,30.0,-83.0,0.65869140625,-0.70263671875,0.2060546875,-52.987804878048784,54.268292682926834,49.63414634146342
15_00_24_714,-30.0,-26.0,37.0,-59.0,-52.0,91.0,33.0,-128.0,0.9384765625,-0.515625,-0.017578125,-45.243902439024396,63.71951219512196,48.90243902439025
15_00_24_714,-13.0,-5.0,60.0,127.0,127.0,127.0,127.0,87.0,1.04052734375,-0.5498046875,0.078125,-34.146341463414636,55.00000000000001,58.90243902439025
15_00_24_714,-21.0,-104.0,-36.0,-117.0,-128.0,-128.0,-128.0,-123.0,0.89794921875,-0.54150390625,0.203125,-39.390243902439025,50.304878048780495,56.646341463414636
15_00_24_714,-27.0,-5.0,-28.0,-40.0,127.0,127.0,-15.0,-32.0,0.8388671875,-0.439453125,0.09423828125,-33.35365853658537,48.10975609756098,56.951219512195124
15_00_24_714,-8.0,50.0,21.0,127.0,127.0,-111.0,70.0,65.0,1.0068359375,-0.447265625,-0.0654296875,-14.695121951219514,45.1219512195122,60.67073170731708
15_00_24_714,-36.0,33.0,31.0,48.0,127.0,-44.0,103.0,55.0,0.83056640625,-0.529296875,0.04736328125,-11.829268292682928,36.28048780487805,54.146341463414636
15_00_24_714,-28.0,64.0,31.0,-56.0,-128.0,127.0,14.0,-128.0,0.84814453125,-0.5546875,0.18896484375,-16.646341463414636,33.90243902439025,57.865853658536594
15_00_24_774,-25.0,-22.0,-71.0,-119.0,-128.0,39.0,-95.0,-82.0,0.619140625,-0.8115234375,0.31884765625,-26.646341463414636,52.50000000000001,67.8658536585366
15_00_24_774,-122.0,10.0,6.0,90.0,33.0,-33.0,127.0,50.0,0.4599609375,-0.94580078125,0.43115234375,-39.57317073170732,47.804878048780495,54.085365853658544
15_00_24_774,90.0,29.0,53.0,127.0,127.0,101.0,127.0,115.0,0.68115234375,-0.6171875,0.26611328125,-33.23170731707317,54.57317073170732,59.451219512195124
15_00_24_774,7.0,24.0,33.0,-91.0,127.0,127.0,50.0,-53.0,1.0,-0.6748046875,0.1181640625,-28.902439024390247,55.73170731707317,65.3048780487805
15_00_24_774,-40.0,-82.0,-68.0,-5.0,-128.0,-17.0,-63.0,127.0,0.6982421875,-0.8408203125,0.2470703125,-35.97560975609756,48.35365853658537,50.91463414634147
15_00_24_774,-13.0,22.0,3.0,-39.0,-128.0,-128.0,-5.0,-128.0,0.65869140625,-0.70263671875,0.2060546875,-52.987804878048784,54.268292682926834,49.63414634146342
15_00_24_774,48.0,31.0,17.0,4.0,127.0,127.0,-24.0,123.0,0.9384765625,-0.515625,-0.017578125,-45.243902439024396,63.71951219512196,48.90243902439025
15_00_24_774,-8.0,-45.0,-16.0,-60.0,65.0,-128.0,-44.0,92.0,1.04052734375,-0.5498046875,0.078125,-34.146341463414636,55.00000000000001,58.90243902439025
15_00_24_774,3.0,-6.0,-69.0,-61.0,-128.0,108.0,127.0,-98.0,0.89794921875,-0.54150390625,0.203125,-39.390243902439025,50.304878048780495,56.646341463414636
15_00_24_863,2.0,8.0,-4.0,100.0,127.0,87.0,-12.0,33.0,0.5576171875,-0.76904296875,0.25927734375,-11.463414634146343,49.085365853658544,76.28048780487805
15_00_24_863,-13.0,-57.0,-5.0,0.0,-128.0,-112.0,46.0,-15.0,0.63671875,-0.8310546875,0.29541015625,-23.963414634146343,52.37804878048781,71.95121951219512
15_00_24_863,-102.0,24.0,25.0,-128.0,-75.0,-115.0,12.0,44.0,0.55078125,-0.8017578125,0.37451171875,-17.134146341463417,51.951219512195124,71.82926829268294
15_00_24_863,6.0,-38.0,-48.0,-128.0,-128.0,127.0,127.0,-128.0,0.49951171875,-0.78369140625,0.3359375,-29.146341463414636,53.84146341463415,65.0
15_00_24_863,30.0,9.0,-26.0,-29.0,-128.0,-128.0,-59.0,25.0,0.669921875,-0.64208984375,0.18994140625,-25.243902439024392,61.585365853658544,64.08536585365854
15_00_24_863,-21.0,32.0,50.0,127.0,127.0,127.0,4.0,21.0,0.619140625,-0.8115234375,0.31884765625,-26.646341463414636,52.50000000000001,67.8658536585366
15_00_24_863,40.0,-3.0,18.0,-67.0,98.0,127.0,127.0,78.0,0.4599609375,-0.94580078125,0.43115234375,-39.57317073170732,47.804878048780495,54.085365853658544
15_00_24_863,-20.0,9.0,7.0,-25.0,-128.0,-128.0,-70.0,-38.0,0.68115234375,-0.6171875,0.26611328125,-33.23170731707317,54.57317073170732,59.451219512195124
15_00_24_863,9.0,3.0,4.0,-59.0,9.0,127.0,124.0,46.0,1.0,-0.6748046875,0.1181640625,-28.902439024390247,55.73170731707317,65.3048780487805
15_00_24_863,8.0,4.0,7.0,-33.0,-77.0,91.0,-67.0,-67.0,0.6982421875,-0.8408203125,0.2470703125,-35.97560975609756,48.35365853658537,50.91463414634147
15_00_24_912,-1.0,5.0,26.0,-59.0,-3.0,127.0,-43.0,-128.0,0.46533203125,-0.8720703125,0.24755859375,-22.743902439024392,43.78048780487805,74.14634146341464
15_00_24_912,-5.0,3.0,-15.0,-29.0,-128.0,-90.0,-128.0,11.0,0.505859375,-0.73779296875,0.23046875,-11.52439024390244,52.01219512195122,69.32926829268293
15_00_24_912,10.0,10.0,-13.0,-77.0,-128.0,-128.0,20.0,13.0,0.5576171875,-0.76904296875,0.25927734375,-11.463414634146343,49.085365853658544,76.28048780487805
15_00_24_912,1.0,-7.0,16.0,-96.0,110.0,127.0,-128.0,8.0,0.63671875,-0.8310546875,0.29541015625,-23.963414634146343,52.37804878048781,71.95121951219512
15_00_24_912,4.0,28.0,4.0,103.0,127.0,63.0,54.0,14.0,0.55078125,-0.8017578125,0.37451171875,-17.134146341463417,51.951219512195124,71.82926829268294
15_00_24_912,11.0,-88.0,-5.0,35.0,127.0,45.0,69.0,-29.0,0.49951171875,-0.78369140625,0.3359375,-29.146341463414636,53.84146341463415,65.0
15_00_24_912,-30.0,25.0,-3.0,-128.0,-128.0,-128.0,56.0,-8.0,0.669921875,-0.64208984375,0.18994140625,-25.243902439024392,61.585365853658544,64.08536585365854
15_00_24_912,-13.0,-36.0,-34.0,-72.0,2.0,127.0,48.0,-92.0,0.619140625,-0.8115234375,0.31884765625,-26.646341463414636,52.50000000000001,67.8658536585366
15_00_24_912,14.0,3.0,-11.0,-9.0,-128.0,-128.0,127.0,0.0,0.4599609375,-0.94580078125,0.43115234375,-39.57317073170732,47.804878048780495,54.085365853658544
15_00_24_912,60.0,39.0,36.0,112.0,127.0,127.0,127.0,127.0,0.68115234375,-0.6171875,0.26611328125,-33.23170731707317,54.57317073170732,59.451219512195124
15_00_24_977,18.0,-22.0,3.0,127.0,81.0,60.0,-128.0,-7.0,0.375,-0.7373046875,0.1708984375,-26.03658536585366,47.19512195121952,68.41463414634147
15_00_24_977,-44.0,-113.0,-77.0,-95.0,-128.0,-128.0,-60.0,-33.0,0.5380859375,-0.8505859375,0.17041015625,-25.670731707317074,45.00000000000001,72.6829268292683
15_00_24_977,45.0,59.0,14.0,-118.0,80.0,8.0,-11.0,5.0,0.490234375,-0.8037109375,0.17431640625,-24.146341463414636,42.43902439024391,72.43902439024392
15_00_24_977,16.0,13.0,48.0,127.0,127.0,127.0,56.0,-6.0,0.46533203125,-0.8720703125,0.24755859375,-22.743902439024392,43.78048780487805,74.14634146341464
15_00_24_977,-9.0,-16.0,-18.0,-66.0,-128.0,96.0,114.0,-57.0,0.505859375,-0.73779296875,0.23046875,-11.52439024390244,52.01219512195122,69.32926829268293
15_00_24_977,-13.0,-13.0,2.0,-128.0,-128.0,-112.0,-128.0,-30.0,0.5576171875,-0.76904296875,0.25927734375,-11.463414634146343,49.085365853658544,76.28048780487805
15_00_24_977,57.0,39.0,-22.0,-128.0,-128.0,-128.0,-128.0,-76.0,0.63671875,-0.8310546875,0.29541015625,-23.963414634146343,52.37804878048781,71.95121951219512
15_00_24_977,-7.0,-33.0,-73.0,-52.0,45.0,-40.0,127.0,122.0,0.55078125,-0.8017578125,0.37451171875,-17.134146341463417,51.951219512195124,71.82926829268294
15_00_24_977,-7.0,14.0,27.0,127.0,90.0,127.0,127.0,-29.0,0.49951171875,-0.78369140625,0.3359375,-29.146341463414636,53.84146341463415,65.0
15_00_24_977,-35.0,-21.0,17.0,82.0,127.0,-86.0,57.0,127.0,0.669921875,-0.64208984375,0.18994140625,-25.243902439024392,61.585365853658544,64.08536585365854
15_00_25_015,-4.0,2.0,0.0,-57.0,-128.0,-128.0,-16.0,-8.0,0.35009765625,-0.79638671875,0.38720703125,-8.109756097560977,40.0,66.46341463414635
15_00_25_015,-17.0,-22.0,-72.0,-42.0,27.0,127.0,-17.0,39.0,0.46337890625,-0.93212890625,0.40185546875,-32.6829268292683,41.58536585365854,84.51219512195122
15_00_25_015,28.0,-3.0,32.0,63.0,46.0,-128.0,-4.0,58.0,0.24609375,-1.0322265625,0.27880859375,-45.426829268292686,39.81707317073171,66.09756097560977
15_00_25_015,-16.0,-18.0,-37.0,127.0,-93.0,112.0,77.0,-88.0,0.375,-0.7373046875,0.1708984375,-26.03658536585366,47.19512195121952,68.41463414634147
15_00_25_015,-35.0,-5.0,84.0,127.0,127.0,74.0,127.0,5.0,0.5380859375,-0.8505859375,0.17041015625,-25.670731707317074,45.00000000000001,72.6829268292683
15_00_25_015,86.0,38.0,-5.0,-128.0,-128.0,70.0,102.0,42.0,0.490234375,-0.8037109375,0.17431640625,-24.146341463414636,42.43902439024391,72.43902439024392
15_00_25_015,-40.0,-47.0,-76.0,-123.0,-128.0,-72.0,-128.0,-61.0,0.46533203125,-0.8720703125,0.24755859375,-22.743902439024392,43.78048780487805,74.14634146341464
15_00_25_015,34.0,22.0,38.0,-8.0,127.0,127.0,127.0,12.0,0.505859375,-0.73779296875,0.23046875,-11.52439024390244,52.01219512195122,69.32926829268293
15_00_25_015,19.0,16.0,28.0,-128.0,-128.0,-128.0,-33.0,28.0,0.5576171875,-0.76904296875,0.25927734375,-11.463414634146343,49.085365853658544,76.28048780487805
15_00_25_015,-12.0,9.0,-11.0,-90.0,-44.0,127.0,37.0,-30.0,0.63671875,-0.8310546875,0.29541015625,-23.963414634146343,52.37804878048781,71.95121951219512
15_00_25_098,-24.0,7.0,-17.0,-128.0,-128.0,-128.0,54.0,74.0,0.31591796875,-0.7705078125,0.3603515625,2.1341463414634148,31.03658536585366,56.15853658536586
15_00_25_098,56.0,15.0,12.0,85.0,127.0,127.0,-3.0,67.0,0.29541015625,-1.0732421875,0.3134765625,-21.34146341463415,27.25609756097561,65.48780487804879
15_00_25_098,-24.0,-25.0,-14.0,75.0,127.0,21.0,-128.0,-36.0,0.146484375,-0.9765625,0.2158203125,-32.5609756097561,32.6219512195122,46.768292682926834
15_00_25_098,-6.0,3.0,13.0,-128.0,-128.0,-128.0,87.0,22.0,0.29736328125,-0.7509765625,0.322265625,-8.658536585365855,38.53658536585366,54.87804878048781
15_00_25_098,19.0,23.0,-18.0,-32.0,-128.0,46.0,23.0,-14.0,0.35009765625,-0.79638671875,0.38720703125,-8.109756097560977,40.0,66.46341463414635
15_00_25_098,25.0,9.0,8.0,127.0,127.0,127.0,36.0,36.0,0.46337890625,-0.93212890625,0.40185546875,-32.6829268292683,41.58536585365854,84.51219512195122
15_00_25_098,-31.0,-18.0,-22.0,24.0,-63.0,-128.0,97.0,22.0,0.24609375,-1.0322265625,0.27880859375,-45.426829268292686,39.81707317073171,66.09756097560977
15_00_25_098,-14.0,-27.0,-6.0,-111.0,-128.0,-128.0,-110.0,-29.0,0.375,-0.7373046875,0.1708984375,-26.03658536585366,47.19512195121952,68.41463414634147
15_00_25_098,40.0,34.0,19.0,12.0,116.0,127.0,100.0,-13.0,0.5380859375,-0.8505859375,0.17041015625,-25.670731707317074,45.00000000000001,72.6829268292683
15_00_25_098,-12.0,-19.0,5.0,127.0,127.0,117.0,119.0,74.0,0.490234375,-0.8037109375,0.17431640625,-24.146341463414636,42.43902439024391,72.43902439024392
15_00_25_160,-12.0,-43.0,-24.0,-92.0,38.0,127.0,8.0,25.0,0.25732421875,-0.912109375,0.2109375,7.560975609756098,-1.829268292682927,44.57317073170732
15_00_25_160,41.0,67.0,54.0,127.0,74.0,127.0,35.0,32.0,0.29931640625,-1.07861328125,0.33837890625,-15.121951219512196,13.902439024390246,32.926829268292686
15_00_25_160,-22.0,-15.0,-25.0,-55.0,-128.0,-128.0,106.0,-47.0,0.25244140625,-0.794921875,0.47900390625,-0.7317073170731708,26.707317073170735,38.41463414634147
15_00_25_160,-6.0,-24.0,-41.0,-44.0,127.0,127.0,-128.0,-78.0,0.31591796875,-0.7705078125,0.3603515625,2.1341463414634148,31.03658536585366,56.15853658536586
15_00_25_160,-5.0,14.0,-14.0,-90.0,-92.0,66.0,127.0,20.0,0.29541015625,-1.0732421875,0.3134765625,-21.34146341463415,27.25609756097561,65.48780487804879
15_00_25_160,-10.0,-23.0,-31.0,-29.0,127.0,-86.0,50.0,2.0,0.146484375,-0.9765625,0.2158203125,-32.5609756097561,32.6219512195122,46.768292682926834
15_00_25_160,4.0,12.0,16.0,95.0,-128.0,-128.0,72.0,66.0,0.29736328125,-0.7509765625,0.322265625,-8.658536585365855,38.53658536585366,54.87804878048781
15_00_25_160,4.0,-3.0,-19.0,12.0,127.0,127.0,12.0,12.0,0.35009765625,-0.79638671875,0.38720703125,-8.109756097560977,40.0,66.46341463414635
15_00_25_160,22.0,42.0,23.0,-128.0,-118.0,46.0,-30.0,-9.0,0.46337890625,-0.93212890625,0.40185546875,-32.6829268292683,41.58536585365854,84.51219512195122
15_00_25_160,-7.0,-15.0,1.0,21.0,-61.0,127.0,47.0,-6.0,0.24609375,-1.0322265625,0.27880859375,-45.426829268292686,39.81707317073171,66.09756097560977
15_00_25_218,21.0,41.0,44.0,19.0,100.0,126.0,-38.0,-11.0,0.26025390625,-1.06201171875,0.19482421875,-8.78048780487805,-3.414634146341464,24.207317073170735
15_00_25_218,-11.0,-29.0,-24.0,-128.0,-128.0,-111.0,20.0,15.0,0.203125,-0.8759765625,0.31689453125,4.390243902439025,14.26829268292683,17.378048780487806
15_00_25_218,4.0,-5.0,10.0,44.0,118.0,127.0,-30.0,-43.0,0.15087890625,-0.71240234375,0.24560546875,23.231707317073173,11.097560975609756,32.987804878048784
15_00_25_218,-15.0,-6.0,-15.0,-32.0,-7.0,11.0,58.0,23.0,0.25732421875,-0.912109375,0.2109375,7.560975609756098,-1.829268292682927,44.57317073170732
15_00_25_218,8.0,15.0,0.0,-60.0,-82.0,-107.0,-36.0,-36.0,0.29931640625,-1.07861328125,0.33837890625,-15.121951219512196,13.902439024390246,32.926829268292686
15_00_25_218,22.0,3.0,10.0,127.0,127.0,48.0,-128.0,35.0,0.25244140625,-0.794921875,0.47900390625,-0.7317073170731708,26.707317073170735,38.41463414634147
15_00_25_218,19.0,37.0,1.0,-128.0,127.0,127.0,127.0,-14.0,0.31591796875,-0.7705078125,0.3603515625,2.1341463414634148,31.03658536585366,56.15853658536586
15_00_25_218,15.0,15.0,53.0,127.0,-128.0,-94.0,29.0,45.0,0.29541015625,-1.0732421875,0.3134765625,-21.34146341463415,27.25609756097561,65.48780487804879
15_00_25_218,-14.0,-42.0,-45.0,-128.0,-57.0,-128.0,-60.0,-56.0,0.146484375,-0.9765625,0.2158203125,-32.5609756097561,32.6219512195122,46.768292682926834
15_00_25_218,-30.0,-14.0,10.0,117.0,115.0,-40.0,-91.0,13.0,0.29736328125,-0.7509765625,0.322265625,-8.658536585365855,38.53658536585366,54.87804878048781
15_00_25_264,-48.0,-2.0,13.0,-128.0,-128.0,-108.0,28.0,9.0,0.0888671875,-0.7978515625,0.3271484375,8.536585365853659,15.487804878048783,14.756097560975611
15_00_25_264,24.0,-12.0,-16.0,0.0,41.0,2.0,102.0,17.0,0.07080078125,-0.87060546875,0.21875,16.03658536585366,2.378048780487805,25.54878048780488
15_00_25_264,-1.0,-5.0,-19.0,-14.0,-128.0,69.0,-58.0,-37.0,0.26025390625,-1.06201171875,0.19482421875,-8.78048780487805,-3.414634146341464,24.207317073170735
15_00_25_264,7.0,-9.0,58.0,127.0,17.0,-128.0,-105.0,15.0,0.203125,-0.8759765625,0.31689453125,4.390243902439025,14.26829268292683,17.378048780487806
15_00_25_264,-44.0,-28.0,-49.0,-36.0,-77.0,-80.0,-53.0,-26.0,0.15087890625,-0.71240234375,0.24560546875,23.231707317073173,11.097560975609756,32.987804878048784
15_00_25_264,28.0,0.0,14.0,45.0,127.0,127.0,127.0,36.0,0.25732421875,-0.912109375,0.2109375,7.560975609756098,-1.829268292682927,44.57317073170732
15_00_25_264,0.0,0.0,16.0,-18.0,-90.0,22.0,-54.0,-13.0,0.29931640625,-1.07861328125,0.33837890625,-15.121951219512196,13.902439024390246,32.926829268292686
15_00_25_264,-28.0,-26.0,-50.0,-96.0,-128.0,-128.0,9.0,86.0,0.25244140625,-0.794921875,0.47900390625,-0.7317073170731708,26.707317073170735,38.41463414634147
15_00_25_264,21.0,41.0,44.0,19.0,100.0,126.0,-38.0,-11.0,0.31591796875,-0.7705078125,0.3603515625,2.1341463414634148,31.03658536585366,56.15853658536586
15_00_25_264,-11.0,-29.0,-24.0,-128.0,-128.0,-111.0,20.0,15.0,0.29541015625,-1.0732421875,0.3134765625,-21.34146341463415,27.25609756097561,65.48780487804879
15_00_25_324,-5.0,38.0,32.0,-11.0,70.0,127.0,18.0,-27.0,0.05029296875,-1.01513671875,0.3193359375,5.548780487804878,13.658536585365855,2.378048780487805
15_00_25_324,-51.0,-89.0,-67.0,-128.0,-128.0,-128.0,-128.0,-58.0,0.10888671875,-0.939453125,0.2138671875,6.036585365853659,2.1341463414634148,8.109756097560977
15_00_25_324,99.0,62.0,68.0,112.0,127.0,127.0,81.0,82.0,0.32470703125,-0.9521484375,0.234375,-15.243902439024392,5.731707317073171,4.329268292682928
15_00_25_324,-35.0,-32.0,-78.0,-128.0,127.0,61.0,8.0,30.0,0.0888671875,-0.7978515625,0.3271484375,8.536585365853659,15.487804878048783,14.756097560975611
15_00_25_324,-4.0,-11.0,-18.0,-115.0,-128.0,-128.0,-100.0,-99.0,0.07080078125,-0.87060546875,0.21875,16.03658536585366,2.378048780487805,25.54878048780488
