Application:, Trigno Discover (2.0.1.2)
Date/Time:, 5/14/2025 12:53:45 PM
Collection Length (seconds):, 35.0865
Forearm 2 (83169), , , , , , , , Forearm 1 (82633), , , , , , , , Biceps (83254), , , , , , , , Triceps (83087)
sensor mode: 45, , , , , , , , sensor mode: 45, , , , , , , , sensor mode: 45, , , , , , , , sensor mode: 45
EMG 1 Time Series (s), EMG 1 (mV), ACC X Time Series (s), ACC X (G), ACC Y Time Series (s), ACC Y (G), ACC Z Time Series (s), ACC Z (G), EMG 1 Time Series (s), EMG 1 (mV), ACC X Time Series (s), ACC X (G), ACC Y Time Series (s), ACC Y (G), ACC Z Time Series (s), ACC Z (G), EMG 1 Time Series (s), EMG 1 (mV), ACC X Time Series (s), ACC X (G), ACC Y Time Series (s), ACC Y (G), ACC Z Time Series (s), ACC Z (G), EMG 1 Time Series (s), EMG 1 (mV), ACC X Time Series (s), ACC X (G), ACC Y Time Series (s), ACC Y (G), ACC Z Time Series (s), ACC Z (G)
, 1925.9259 Hz, , 74.0741 Hz, , 74.0741 Hz, , 74.0741 Hz, , 1925.9259 Hz, , 74.0741 Hz, , 74.0741 Hz, , 74.0741 Hz, , 1925.9259 Hz, , 74.0741 Hz, , 74.0741 Hz, , 74.0741 Hz, , 1925.9259 Hz, , 74.0741 Hz, , 74.0741 Hz, , 74.0741 Hz
, 0.0005192307692307692 s, , 0.0135 s, , 0.0135 s, , 0.0135 s, , 0.0005192307692307692 s, , 0.0135 s, , 0.0135 s, , 0.0135 s, , 0.0005192307692307692 s, , 0.0135 s, , 0.0135 s, , 0.0135 s, , 0.0005192307692307692 s, , 0.0135 s, , 0.0135 s, , 0.0135 s, , Type, Name, Label, Time (s), , Pair, E1, E2, T1, T2, V1, V2, Sensor, Channel, Units, Delta T, RMS, PKPK, Peak Value, TPK, Integral
0, 0.01561, 0, -0.2363281, 0, -1.0009766, 0, 0.1401367, 0, -0.0035248, 0, 0.3046875, 0, -0.9462891, 0, -0.2285156, 0, -0.0129244, 0, 0.1176758, 0, -1.0166016, 0, -0.0004883, 0, 0.0038605, 0, -0.2358398, 0, -0.9765625, 0, 0.0883789, , , , , , , , , , , , , , , , , , , , , , 
0.0005192, 0.0206455, 0.0135, -0.2397461, 0.0135, -0.9951172, 0.0135, 0.1337891, 0.0005192, -0.005539, 0.0135, 0.309082, 0.0135, -0.9414062, 0.0135, -0.2407227, 0.0005192, -0.0135958, 0.0135, 0.1166992, 0.0135, -1.0126953, 0.0135, -0.0019531, 0.0005192, 0.0041962, 0.0135, -0.2412109, 0.0135, -0.9760742, 0.0135, 0.0932617, , , , , , , , , , , , , , , , , , , , , , 
0.0010385, 0.0224918, 0.027, -0.2250977, 0.027, -0.9921875, 0.027, 0.140625, 0.0010385, -0.005539, 0.027, 0.3061523, 0.027, -0.9438477, 0.027, -0.2485352, 0.0010385, -0.0115816, 0.027, 0.1342773, 0.027, -1.0107422, 0.027, -0.0029297, 0.0010385, 0.0018463, 0.027, -0.2211914, 0.027, -0.9829102, 0.027, 0.0991211, , , , , , , , , , , , , , , , , , , , , , 
0.0015577, 0.0223239, 0.0405, -0.2177734, 0.0405, -0.9951172, 0.0405, 0.1489258, 0.0015577, -0.0048676, 0.0405, 0.2983398, 0.0405, -0.9462891, 0.0405, -0.2480469, 0.0015577, -0.0099031, 0.0405, 0.1660156, 0.0405, -1.0068359, 0.0405, 0.003418, 0.0015577, -0.0008392, 0.0405, -0.1982422, 0.0405, -0.9868164, 0.0405, 0.1088867, , , , , , , , , , , , , , , , , , , , , , 
0.0020769, 0.0209812, 0.054, -0.2216797, 0.054, -0.9926758, 0.054, 0.1416016, 0.0020769, -0.0048676, 0.054, 0.3017578, 0.054, -0.9443359, 0.054, -0.2421875, 0.0020769, -0.0124208, 0.054, 0.1845703, 0.054, -0.9956055, 0.054, 0.0014648, 0.0020769, -0.0001678, 0.054, -0.1904297, 0.054, -0.9868164, 0.054, 0.1098633, , , , , , , , , , , , , , , , , , , , , , 
0.0025962, 0.0182956, 0.0675, -0.2202148, 0.0675, -0.9882812, 0.0675, 0.1362305, 0.0025962, -0.0052033, 0.0675, 0.3027344, 0.0675, -0.9375, 0.0675, -0.2441406, 0.0025962, -0.0139315, 0.0675, 0.1962891, 0.0675, -0.9897461, 0.0675, -0.0073242, 0.0025962, 0.0038605, 0.0675, -0.1806641, 0.0675, -0.980957, 0.0675, 0.1069336, , , , , , , , , , , , , , , , , , , , , , 
0.0031154, 0.0193027, 0.081, -0.2119141, 0.081, -0.987793, 0.081, 0.1342773, 0.0031154, -0.0068818, 0.081, 0.2978516, 0.081, -0.9360352, 0.081, -0.2485352, 0.0031154, -0.0130922, 0.081, 0.1982422, 0.081, -0.9897461, 0.081, -0.0092773, 0.0031154, 0.0052033, 0.081, -0.168457, 0.081, -0.9819336, 0.081, 0.1025391, , , , , , , , , , , , , , , , , , , , , , 
0.0036346, 0.021149, 0.0945, -0.2099609, 0.0945, -0.9887695, 0.0945, 0.1381836, 0.0036346, -0.0075532, 0.0945, 0.2954102, 0.0945, -0.9379883, 0.0945, -0.2460938, 0.0036346, -0.012253, 0.0945, 0.184082, 0.0945, -0.9907227, 0.0945, -0.0092773, 0.0036346, 0.0015106, 0.0945, -0.1655273, 0.0945, -0.9775391, 0.0945, 0.0986328, , , , , , , , , , , , , , , , , , , , , , 
0.0041538, 0.0169528, 0.108, -0.2158203, 0.108, -0.9824219, 0.108, 0.1391602, 0.0041538, -0.0062104, 0.108, 0.2993164, 0.108, -0.9355469, 0.108, -0.2402344, 0.0041538, -0.0142672, 0.108, 0.1645508, 0.108, -0.9887695, 0.108, -0.0136719, 0.0041538, -0.0065461, 0.108, -0.1796875, 0.108, -0.9741211, 0.108, 0.0922852, , , , , , , , , , , , , , , , , , , , , , 
0.0046731, 0.0115816, 0.1215, -0.2280273, 0.1215, -0.9775391, 0.1215, 0.1333008, 0.0046731, -0.0062104, 0.1215, 0.3071289, 0.1215, -0.9223633, 0.1215, -0.2426758, 0.0046731, -0.0162814, 0.1215, 0.15625, 0.1215, -0.9926758, 0.1215, -0.0112305, 0.0046731, -0.0162814, 0.1215, -0.1918945, 0.1215, -0.972168, 0.1215, 0.0849609, , , , , , , , , , , , , , , , , , , , , , 
0.0051923, 0.0112459, 0.135, -0.2387695, 0.135, -0.9814453, 0.135, 0.1352539, 0.0051923, -0.0077211, 0.135, 0.3168945, 0.135, -0.921875, 0.135, -0.2333984, 0.0051923, -0.0149386, 0.135, 0.1381836, 0.135, -0.9990234, 0.135, -0.0048828, 0.0051923, -0.024506, 0.135, -0.2075195, 0.135, -0.9633789, 0.135, 0.0844727, , , , , , , , , , , , , , , , , , , , , , 
0.0057115, 0.0112459, 0.1485, -0.2329102, 0.1485, -0.9863281, 0.1485, 0.1416016, 0.0057115, -0.0077211, 0.1485, 0.3266602, 0.1485, -0.9291992, 0.1485, -0.2241211, 0.0057115, -0.0127565, 0.1485, 0.1220703, 0.1485, -1.0004883, 0.1485, -0.0112305, 0.0057115, -0.0276951, 0.1485, -0.2109375, 0.1485, -0.965332, 0.1485, 0.0874023, , , , , , , , , , , , , , , , , , , , , , 
0.0062308, 0.0078889, 0.162, -0.2211914, 0.162, -0.9819336, 0.162, 0.1469727, 0.0062308, -0.0065461, 0.162, 0.3305664, 0.162, -0.9272461, 0.162, -0.2270508, 0.0062308, -0.012253, 0.162, 0.1357422, 0.162, -0.9985352, 0.162, -0.0141602, 0.0062308, -0.0270237, 0.162, -0.1958008, 0.162, -0.9785156, 0.162, 0.081543, , , , , , , , , , , , , , , , , , , , , , 
0.00675, 0.0041962, 0.1755, -0.2260742, 0.1755, -0.9892578, 0.1755, 0.1362305, 0.00675, -0.0058747, 0.1755, 0.340332, 0.1755, -0.9316406, 0.1755, -0.2299805, 0.00675, -0.0125887, 0.1755, 0.1547852, 0.1755, -1.0078125, 0.1755, -0.0029297, 0.00675, -0.0256809, 0.1755, -0.1889648, 0.1755, -0.9833984, 0.1755, 0.0810547, , , , , , , , , , , , , , , , , , , , , , 
0.0072692, 0.0028534, 0.189, -0.2333984, 0.189, -0.9941406, 0.189, 0.1425781, 0.0072692, -0.005539, 0.189, 0.3320312, 0.189, -0.9399414, 0.189, -0.2319336, 0.0072692, -0.0109102, 0.189, 0.1625977, 0.189, -1.0078125, 0.189, 0.0024414, 0.0072692, -0.0206455, 0.189, -0.1845703, 0.189, -0.9838867, 0.189, 0.0810547, , , , , , , , , , , , , , , , , , , , , , 
0.0077885, 0.0063783, 0.2025, -0.2285156, 0.2025, -0.9887695, 0.2025, 0.1499023, 0.0077885, -0.0072175, 0.2025, 0.3183594, 0.2025, -0.9433594, 0.2025, -0.230957, 0.0077885, -0.0109102, 0.2025, 0.1782227, 0.2025, -1.0048828, 0.2025, 0.0024414, 0.0077885, -0.0132601, 0.2025, -0.1816406, 0.2025, -0.9858398, 0.2025, 0.0791016, , , , , , , , , , , , , , , , , , , , , , 
0.0083077, 0.0035248, 0.216, -0.234375, 0.216, -0.9887695, 0.216, 0.1337891, 0.0083077, -0.0082246, 0.216, 0.3164062, 0.216, -0.9414062, 0.216, -0.2304688, 0.0083077, -0.0115816, 0.216, 0.1860352, 0.216, -1.0043945, 0.216, 0.0068359, 0.0083077, -0.0062104, 0.216, -0.1767578, 0.216, -0.9868164, 0.216, 0.0854492, , , , , , , , , , , , , , , , , , , , , , 
0.0088269, -0.0008392, 0.2295, -0.2270508, 0.2295, -0.9892578, 0.2295, 0.1362305, 0.0088269, -0.0085603, 0.2295, 0.3232422, 0.2295, -0.9355469, 0.2295, -0.2333984, 0.0088269, -0.0093996, 0.2295, 0.1708984, 0.2295, -1.0019531, 0.2295, 0.0029297, 0.0088269, 0.0023499, 0.2295, -0.1923828, 0.2295, -0.9819336, 0.2295, 0.0927734, , , , , , , , , , , , , , , , , , , , , , 
0.0093462, -0.0018463, 0.243, -0.222168, 0.243, -0.9912109, 0.243, 0.1455078, 0.0093462, -0.0109102, 0.243, 0.3115234, 0.243, -0.9389648, 0.243, -0.2416992, 0.0093462, -0.0068818, 0.243, 0.1586914, 0.243, -0.9990234, 0.243, -0.0024414, 0.0093462, 0.0117494, 0.243, -0.2036133, 0.243, -0.9790039, 0.243, 0.0888672, , , , , , , , , , , , , , , , , , , , , , 
0.0098654, -0.0008392, 0.2565, -0.2270508, 0.2565, -0.9946289, 0.2565, 0.1489258, 0.0098654, -0.0132601, 0.2565, 0.3095703, 0.2565, -0.9345703, 0.2565, -0.2431641, 0.0098654, -0.0068818, 0.2565, 0.1523438, 0.2565, -1, 0.2565, -0.0029297, 0.0098654, 0.0203098, 0.2565, -0.2094727, 0.2565, -0.980957, 0.2565, 0.0917969, , , , , , , , , , , , , , , , , , , , , , 
0.0103846, -0.0018463, 0.27, -0.2294922, 0.27, -0.9897461, 0.27, 0.1489258, 0.0103846, -0.0119173, 0.27, 0.3212891, 0.27, -0.9316406, 0.27, -0.25, 0.0103846, -0.005539, 0.27, 0.1376953, 0.27, -1.0019531, 0.27, -0.0043945, 0.0103846, 0.0298772, 0.27, -0.215332, 0.27, -0.980957, 0.27, 0.0961914, , , , , , , , , , , , , , , , , , , , , , 
0.0109038, -0.0035248, 0.2835, -0.2265625, 0.2835, -0.9838867, 0.2835, 0.1489258, 0.0109038, -0.0105745, 0.2835, 0.328125, 0.2835, -0.9296875, 0.2835, -0.2421875, 0.0109038, -0.0041962, 0.2835, 0.1347656, 0.2835, -0.9985352, 0.2835, 0.0014648, 0.0109038, 0.0391089, 0.2835, -0.2192383, 0.2835, -0.9741211, 0.2835, 0.0893555, , , , , , , , , , , , , , , , , , , , , , 
0.0114231, -0.0041962, 0.297, -0.2338867, 0.297, -0.9829102, 0.297, 0.1469727, 0.0114231, -0.0105745, 0.297, 0.3242188, 0.297, -0.9272461, 0.297, -0.2333984, 0.0114231, -0.0048676, 0.297, 0.1445312, 0.297, -0.9975586, 0.297, 0.0058594, 0.0114231, 0.0451514, 0.297, -0.2197266, 0.297, -0.9677734, 0.297, 0.0908203, , , , , , , , , , , , , , , , , , , , , , 
0.0119423, 0.0003357, 0.3105, -0.2299805, 0.3105, -0.9775391, 0.3105, 0.1489258, 0.0119423, -0.0102388, 0.3105, 0.3203125, 0.3105, -0.9233398, 0.3105, -0.2368164, 0.0119423, -0.0041962, 0.3105, 0.1513672, 0.3105, -0.9916992, 0.3105, 0.0068359, 0.0119423, 0.0488441, 0.3105, -0.2104492, 0.3105, -0.965332, 0.3105, 0.0864258, , , , , , , , , , , , , , , , , , , , , , 
0.0124615, 0.0038605, 0.324, -0.2270508, 0.324, -0.9692383, 0.324, 0.140625, 0.0124615, -0.0109102, 0.324, 0.3144531, 0.324, -0.9179688, 0.324, -0.2373047, 0.0124615, -0.0025177, 0.324, 0.1616211, 0.324, -0.987793, 0.324, 0.0068359, 0.0124615, 0.0532082, 0.324, -0.1977539, 0.324, -0.9702148, 0.324, 0.0820312, , , , , , , , , , , , , , , , , , , , , , 
0.0129808, 0.0038605, 0.3375, -0.2299805, 0.3375, -0.9741211, 0.3375, 0.1391602, 0.0129808, -0.008896, 0.3375, 0.3154297, 0.3375, -0.9194336, 0.3375, -0.2368164, 0.0129808, -0.0018463, 0.3375, 0.1699219, 0.3375, -0.9941406, 0.3375, 0.0112305, 0.0129808, 0.0572366, 0.3375, -0.1982422, 0.3375, -0.9765625, 0.3375, 0.0795898, , , , , , , , , , , , , , , , , , , , , , 
0.0135, 0.0052033, 0.351, -0.2353516, 0.351, -0.9858398, 0.351, 0.1494141, 0.0135, -0.0058747, 0.351, 0.3222656, 0.351, -0.9277344, 0.351, -0.237793, 0.0135, -0.0010071, 0.351, 0.1586914, 0.351, -1.0024414, 0.351, 0.0107422, 0.0135, 0.0587472, 0.351, -0.2006836, 0.351, -0.9775391, 0.351, 0.0800781, , , , , , , , , , , , , , , , , , , , , , 
0.0140192, 0.0090639, 0.3645, -0.2353516, 0.3645, -0.9887695, 0.3645, 0.1450195, 0.0140192, -0.0065461, 0.3645, 0.331543, 0.3645, -0.934082, 0.3645, -0.2294922, 0.0140192, -0.0011749, 0.3645, 0.1445312, 0.3645, -0.9995117, 0.3645, 0.0063477, 0.0140192, 0.0542153, 0.3645, -0.2026367, 0.3645, -0.9780273, 0.3645, 0.0751953, , , , , , , , , , , , , , , , , , , , , , 
0.0145385, 0.012253, 0.378, -0.2270508, 0.378, -0.980957, 0.378, 0.1347656, 0.0145385, -0.0077211, 0.378, 0.3442383, 0.378, -0.9321289, 0.378, -0.2226562, 0.0145385, -0.0006714, 0.378, 0.144043, 0.378, -1.0009766, 0.378, 0.0083008, 0.0145385, 0.0454871, 0.378, -0.2016602, 0.378, -0.9755859, 0.378, 0.0703125, , , , , , , , , , , , , , , , , , , , , , 
0.0150577, 0.0142672, 0.3915, -0.2275391, 0.3915, -0.9853516, 0.3915, 0.1450195, 0.0150577, -0.0082246, 0.3915, 0.3374023, 0.3915, -0.9301758, 0.3915, -0.2231445, 0.0150577, -0.0008392, 0.3915, 0.1455078, 0.3915, -1.0004883, 0.3915, 0.0083008, 0.0150577, 0.0372625, 0.3915, -0.2026367, 0.3915, -0.9750977, 0.3915, 0.0717773, , , , , , , , , , , , , , , , , , , , , , 
0.0155769, 0.0172885, 0.405, -0.2280273, 0.405, -0.9819336, 0.405, 0.1508789, 0.0155769, -0.0075532, 0.405, 0.3232422, 0.405, -0.9311523, 0.405, -0.2280273, 0.0155769, -0.0011749, 0.405, 0.1533203, 0.405, -0.996582, 0.405, 0.0092773, 0.0155769, 0.0307164, 0.405, -0.2075195, 0.405, -0.9736328, 0.405, 0.0791016, , , , , , , , , , , , , , , , , , , , , , 
0.0160962, 0.0213169, 0.4185, -0.2373047, 0.4185, -0.9750977, 0.4185, 0.1450195, 0.0160962, -0.0070497, 0.4185, 0.3217773, 0.4185, -0.9243164, 0.4185, -0.2324219, 0.0160962, -0.0031891, 0.4185, 0.1591797, 0.4185, -0.9912109, 0.4185, 0.0131836, 0.0160962, 0.0243381, 0.4185, -0.2119141, 0.4185, -0.9736328, 0.4185, 0.0849609, , , , , , , , , , , , , , , , , , , , , , 
0.0166154, 0.0243381, 0.432, -0.2441406, 0.432, -0.9711914, 0.432, 0.1333008, 0.0166154, -0.0085603, 0.432, 0.3212891, 0.432, -0.9204102, 0.432, -0.2280273, 0.0166154, -0.0058747, 0.432, 0.1508789, 0.432, -0.9912109, 0.432, 0.015625, 0.0166154, 0.0182956, 0.432, -0.2255859, 0.432, -0.9697266, 0.432, 0.0878906, , , , , , , , , , , , , , , , , , , , , , 
0.0171346, 0.0283665, 0.4455, -0.2431641, 0.4455, -0.9731445, 0.4455, 0.1435547, 0.0171346, -0.0095674, 0.4455, 0.3183594, 0.4455, -0.925293, 0.4455, -0.2216797, 0.0171346, -0.0058747, 0.4455, 0.1352539, 0.4455, -0.9921875, 0.4455, 0.0151367, 0.0171346, 0.0139315, 0.4455, -0.230957, 0.4455, -0.9667969, 0.4455, 0.0810547, , , , , , , , , , , , , , , , , , , , , , 
0.0176538, 0.0305486, 0.459, -0.2441406, 0.459, -0.9731445, 0.459, 0.1450195, 0.0176538, -0.0090639, 0.459, 0.3198242, 0.459, -0.9243164, 0.459, -0.2192383, 0.0176538, -0.0063783, 0.459, 0.125, 0.459, -0.9941406, 0.459, 0.0136719, 0.0176538, 0.0109102, 0.459, -0.2324219, 0.459, -0.9643555, 0.459, 0.0786133, , , , , , , , , , , , , , , , , , , , , , 
0.0181731, 0.0283665, 0.4725, -0.2402344, 0.4725, -0.9716797, 0.4725, 0.1333008, 0.0181731, -0.0072175, 0.4725, 0.328125, 0.4725, -0.9228516, 0.4725, -0.2192383, 0.0181731, -0.0072175, 0.4725, 0.1235352, 0.4725, -0.9956055, 0.4725, 0.0117188, 0.0181731, 0.0068818, 0.4725, -0.2241211, 0.4725, -0.9658203, 0.4725, 0.0805664, , , , , , , , , , , , , , , , , , , , , , 
0.0186923, 0.0250095, 0.486, -0.237793, 0.486, -0.9682617, 0.486, 0.137207, 0.0186923, -0.0062104, 0.486, 0.3286133, 0.486, -0.9233398, 0.486, -0.222168, 0.0186923, -0.0095674, 0.486, 0.1435547, 0.486, -0.9921875, 0.486, 0.0097656, 0.0186923, 0.0031891, 0.486, -0.2119141, 0.486, -0.9702148, 0.486, 0.0766602, , , , , , , , , , , , , , , , , , , , , , 
0.0192115, 0.0231632, 0.4995, -0.2407227, 0.4995, -0.9677734, 0.4995, 0.1362305, 0.0192115, -0.0068818, 0.4995, 0.3164062, 0.4995, -0.925293, 0.4995, -0.2148438, 0.0192115, -0.0104067, 0.4995, 0.1601562, 0.4995, -0.9863281, 0.4995, 0.0166016, 0.0192115, 0.0028534, 0.4995, -0.2084961, 0.4995, -0.972168, 0.4995, 0.078125, , , , , , , , , , , , , , , , , , , , , , 
0.0197308, 0.0240024, 0.513, -0.2382812, 0.513, -0.9707031, 0.513, 0.1376953, 0.0197308, -0.0068818, 0.513, 0.324707, 0.513, -0.9208984, 0.513, -0.2197266, 0.0197308, -0.0102388, 0.513, 0.1635742, 0.513, -0.9853516, 0.513, 0.019043, 0.0197308, 0.0018463, 0.513, -0.2060547, 0.513, -0.9663086, 0.513, 0.0791016, , , , , , , , , , , , , , , , , , , , , , 
0.02025, 0.0246738, 0.5265, -0.2319336, 0.5265, -0.9667969, 0.5265, 0.128418, 0.02025, -0.0082246, 0.5265, 0.3271484, 0.5265, -0.9243164, 0.5265, -0.2172852, 0.02025, -0.0102388, 0.5265, 0.1552734, 0.5265, -0.9897461, 0.5265, 0.0195312, 0.02025, 0.0001678, 0.5265, -0.2143555, 0.5265, -0.9609375, 0.5265, 0.0776367, , , , , , , , , , , , , , , , , , , , , , 
0.0207692, 0.0240024, 0.54, -0.2299805, 0.54, -0.9677734, 0.54, 0.1347656, 0.0207692, -0.0095674, 0.54, 0.3193359, 0.54, -0.9291992, 0.54, -0.2167969, 0.0207692, -0.0104067, 0.54, 0.1430664, 0.54, -0.9868164, 0.54, 0.0126953, 0.0207692, 0.0001678, 0.54, -0.2119141, 0.54, -0.9570312, 0.54, 0.0756836, , , , , , , , , , , , , , , , , , , , , , 
0.0212885, 0.0265202, 0.5535, -0.2363281, 0.5535, -0.9633789, 0.5535, 0.1376953, 0.0212885, -0.0082246, 0.5535, 0.3081055, 0.5535, -0.9233398, 0.5535, -0.2202148, 0.0212885, -0.0105745, 0.5535, 0.1484375, 0.5535, -0.9853516, 0.5535, 0.0161133, 0.0212885, 0.0025177, 0.5535, -0.2080078, 0.5535, -0.9633789, 0.5535, 0.0825195, , , , , , , , , , , , , , , , , , , , , , 
0.0218077, 0.0253452, 0.567, -0.2392578, 0.567, -0.965332, 0.567, 0.1411133, 0.0218077, -0.005539, 0.567, 0.3046875, 0.567, -0.921875, 0.567, -0.2255859, 0.0218077, -0.0129244, 0.567, 0.1552734, 0.567, -0.9868164, 0.567, 0.0307617, 0.0218077, 0.0052033, 0.567, -0.2172852, 0.567, -0.9682617, 0.567, 0.0874023, , , , , , , , , , , , , , , , , , , , , , 
0.0223269, 0.0206455, 0.5805, -0.2485352, 0.5805, -0.9643555, 0.5805, 0.1352539, 0.0223269, -0.0052033, 0.5805, 0.3085938, 0.5805, -0.9238281, 0.5805, -0.2285156, 0.0223269, -0.012253, 0.5805, 0.1552734, 0.5805, -0.9882812, 0.5805, 0.0317383, 0.0223269, 0.0062104, 0.5805, -0.2333984, 0.5805, -0.9677734, 0.5805, 0.090332, , , , , , , , , , , , , , , , , , , , , , 
0.0228462, 0.0184634, 0.594, -0.2543945, 0.594, -0.9599609, 0.594, 0.1386719, 0.0228462, -0.0072175, 0.594, 0.3120117, 0.594, -0.9257812, 0.594, -0.2285156, 0.0228462, -0.0090639, 0.594, 0.1503906, 0.594, -0.9907227, 0.594, 0.043457, 0.0228462, 0.005539, 0.594, -0.2485352, 0.594, -0.965332, 0.594, 0.0927734, , , , , , , , , , , , , , , , , , , , , , 
0.0233654, 0.0206455, 0.6075, -0.2578125, 0.6075, -0.9643555, 0.6075, 0.1489258, 0.0233654, -0.0075532, 0.6075, 0.324707, 0.6075, -0.9272461, 0.6075, -0.21875, 0.0233654, -0.0085603, 0.6075, 0.1445312, 0.6075, -0.9975586, 0.6075, 0.0507812, 0.0233654, 0.0031891, 0.6075, -0.2636719, 0.6075, -0.9638672, 0.6075, 0.0986328, , , , , , , , , , , , , , , , , , , , , , 
0.0238846, 0.0219883, 0.621, -0.2509766, 0.621, -0.9589844, 0.621, 0.1523438, 0.0238846, -0.005539, 0.621, 0.3334961, 0.621, -0.9296875, 0.621, -0.2133789, 0.0238846, -0.0099031, 0.621, 0.1362305, 0.621, -0.9912109, 0.621, 0.0483398, 0.0238846, -0.0015106, 0.621, -0.2661133, 0.621, -0.9526367, 0.621, 0.1010742, , , , , , , , , , , , , , , , , , , , , , 
0.0244038, 0.0176242, 0.6345, -0.2416992, 0.6345, -0.9423828, 0.6345, 0.1655273, 0.0244038, -0.0048676, 0.6345, 0.3388672, 0.6345, -0.9091797, 0.6345, -0.2260742, 0.0244038, -0.0112459, 0.6345, 0.1416016, 0.6345, -0.9741211, 0.6345, 0.0541992, 0.0244038, -0.0112459, 0.6345, -0.2626953, 0.6345, -0.9472656, 0.6345, 0.0986328, , , , , , , , , , , , , , , , , , , , , , 
0.0249231, 0.0129244, 0.648, -0.2392578, 0.648, -0.940918, 0.648, 0.1757812, 0.0249231, -0.0057069, 0.648, 0.3388672, 0.648, -0.890625, 0.648, -0.2475586, 0.0249231, -0.0119173, 0.648, 0.1484375, 0.648, -0.972168, 0.648, 0.0610352, 0.0249231, -0.0193027, 0.648, -0.2719727, 0.648, -0.9433594, 0.648, 0.1005859, , , , , , , , , , , , , , , , , , , , , , 
0.0254423, 0.0082246, 0.6615, -0.2470703, 0.6615, -0.9355469, 0.6615, 0.1762695, 0.0254423, -0.005539, 0.6615, 0.3300781, 0.6615, -0.8911133, 0.6615, -0.2524414, 0.0254423, -0.0105745, 0.6615, 0.1538086, 0.6615, -0.9672852, 0.6615, 0.0761719, 0.0254423, -0.0196384, 0.6615, -0.2783203, 0.6615, -0.9414062, 0.6615, 0.1025391, , , , , , , , , , , , , , , , , , , , , , 
0.0259615, 0.0046998, 0.675, -0.2539062, 0.675, -0.9267578, 0.675, 0.1835938, 0.0259615, -0.0058747, 0.675, 0.3271484, 0.675, -0.8969727, 0.675, -0.2402344, 0.0259615, -0.0109102, 0.675, 0.1552734, 0.675, -0.9599609, 0.675, 0.090332, 0.0259615, -0.0191348, 0.675, -0.2861328, 0.675, -0.9316406, 0.675, 0.1025391, , , , , , , , , , , , , , , , , , , , , , 
0.0264808, 0.0035248, 0.6885, -0.2543945, 0.6885, -0.9140625, 0.6885, 0.1894531, 0.0264808, -0.005539, 0.6885, 0.3549805, 0.6885, -0.8803711, 0.6885, -0.2333984, 0.0264808, -0.0119173, 0.6885, 0.1567383, 0.6885, -0.9506836, 0.6885, 0.1025391, 0.0264808, -0.0203098, 0.6885, -0.2958984, 0.6885, -0.9179688, 0.6885, 0.0961914, , , , , , , , , , , , , , , , , , , , , , 
0.027, 0.0038605, 0.702, -0.2475586, 0.702, -0.9086914, 0.702, 0.2089844, 0.027, -0.005539, 0.702, 0.3964844, 0.702, -0.8637695, 0.702, -0.2397461, 0.027, -0.0129244, 0.702, 0.1582031, 0.702, -0.9438477, 0.702, 0.1123047, 0.027, -0.0176242, 0.702, -0.3066406, 0.702, -0.9106445, 0.702, 0.0966797, , , , , , , , , , , , , , , , , , , , , , 
0.0275192, 0.0062104, 0.7155, -0.2592773, 0.7155, -0.9038086, 0.7155, 0.21875, 0.0275192, -0.005539, 0.7155, 0.4077148, 0.7155, -0.8618164, 0.7155, -0.2421875, 0.0275192, -0.0142672, 0.7155, 0.1484375, 0.7155, -0.9472656, 0.7155, 0.1318359, 0.0275192, -0.0104067, 0.7155, -0.3291016, 0.7155, -0.9121094, 0.7155, 0.1000977, , , , , , , , , , , , , , , , , , , , , , 
0.0280385, 0.0052033, 0.729, -0.2851562, 0.729, -0.8945312, 0.729, 0.2124023, 0.0280385, -0.0072175, 0.729, 0.4101562, 0.729, -0.8608398, 0.729, -0.2265625, 0.0280385, -0.0125887, 0.729, 0.1298828, 0.729, -0.9477539, 0.729, 0.1494141, 0.0280385, -0.0041962, 0.729, -0.3564453, 0.729, -0.9023438, 0.729, 0.1000977, , , , , , , , , , , , , , , , , , , , , , 
0.0285577, 0.0016785, 0.7425, -0.2954102, 0.7425, -0.8950195, 0.7425, 0.2192383, 0.0285577, -0.0077211, 0.7425, 0.4106445, 0.7425, -0.8574219, 0.7425, -0.2231445, 0.0285577, -0.0105745, 0.7425, 0.128418, 0.7425, -0.9472656, 0.7425, 0.1621094, 0.0285577, -0.0001678, 0.7425, -0.3701172, 0.7425, -0.8930664, 0.7425, 0.0996094, , , , , , , , , , , , , , , , , , , , , , 
0.0290769, -0.0008392, 0.756, -0.2768555, 0.756, -0.8959961, 0.756, 0.222168, 0.0290769, -0.0085603, 0.756, 0.4223633, 0.756, -0.8496094, 0.756, -0.2294922, 0.0290769, -0.011078, 0.756, 0.1391602, 0.756, -0.9321289, 0.756, 0.1474609, 0.0290769, 0.0038605, 0.756, -0.3676758, 0.756, -0.8867188, 0.756, 0.1000977, , , , , , , , , , , , , , , , , , , , , , 
0.0295962, -0.0003357, 0.7695, -0.2495117, 0.7695, -0.8916016, 0.7695, 0.2270508, 0.0295962, -0.0102388, 0.7695, 0.4335938, 0.7695, -0.8393555, 0.7695, -0.215332, 0.0295962, -0.0114137, 0.7695, 0.1420898, 0.7695, -0.9213867, 0.7695, 0.1420898, 0.0295962, 0.0102388, 0.7695, -0.34375, 0.7695, -0.8833008, 0.7695, 0.1010742, , , , , , , , , , , , , , , , , , , , , , 
0.0301154, 0.0045319, 0.783, -0.2504883, 0.783, -0.8598633, 0.783, 0.2163086, 0.0301154, -0.0112459, 0.783, 0.4287109, 0.783, -0.8193359, 0.783, -0.2060547, 0.0301154, -0.0117494, 0.783, 0.1445312, 0.783, -0.902832, 0.783, 0.1333008, 0.0301154, 0.017792, 0.783, -0.3222656, 0.783, -0.8696289, 0.783, 0.0981445, , , , , , , , , , , , , , , , , , , , , , 
0.0306346, 0.0105745, 0.7965, -0.2768555, 0.7965, -0.828125, 0.7965, 0.2055664, 0.0306346, -0.0115816, 0.7965, 0.4023438, 0.7965, -0.7958984, 0.7965, -0.2080078, 0.0306346, -0.012253, 0.7965, 0.1362305, 0.7965, -0.8886719, 0.7965, 0.1328125, 0.0306346, 0.0290379, 0.7965, -0.3144531, 0.7965, -0.8447266, 0.7965, 0.0859375, , , , , , , , , , , , , , , , , , , , , , 
0.0311538, 0.0109102, 0.81, -0.2836914, 0.81, -0.8110352, 0.81, 0.1918945, 0.0311538, -0.0109102, 0.81, 0.3535156, 0.81, -0.7734375, 0.81, -0.2167969, 0.0311538, -0.0115816, 0.81, 0.1245117, 0.81, -0.8647461, 0.81, 0.1303711, 0.0311538, 0.040116, 0.81, -0.3139648, 0.81, -0.8276367, 0.81, 0.0849609, , , , , , , , , , , , , , , , , , , , , , 
0.0316731, 0.0099031, 0.8235, -0.2470703, 0.8235, -0.800293, 0.8235, 0.1831055, 0.0316731, -0.0095674, 0.8235, 0.3364258, 0.8235, -0.75, 0.8235, -0.2202148, 0.0316731, -0.008896, 0.8235, 0.1259766, 0.8235, -0.828125, 0.8235, 0.1230469, 0.0316731, 0.0471656, 0.8235, -0.3198242, 0.8235, -0.800293, 0.8235, 0.081543, , , , , , , , , , , , , , , , , , , , , , 
0.0321923, 0.0092317, 0.837, -0.2207031, 0.837, -0.7958984, 0.837, 0.1855469, 0.0321923, -0.0062104, 0.837, 0.3378906, 0.837, -0.7402344, 0.837, -0.2197266, 0.0321923, -0.0062104, 0.837, 0.125, 0.837, -0.7993164, 0.837, 0.1098633, 0.0321923, 0.0515297, 0.837, -0.3129883, 0.837, -0.7822266, 0.837, 0.0766602, , , , , , , , , , , , , , , , , , , , , , 
0.0327115, 0.0104067, 0.8505, -0.2231445, 0.8505, -0.765625, 0.8505, 0.1586914, 0.0327115, -0.0050355, 0.8505, 0.3496094, 0.8505, -0.7329102, 0.8505, -0.1948242, 0.0327115, -0.0045319, 0.8505, 0.1152344, 0.8505, -0.7910156, 0.8505, 0.0947266, 0.0327115, 0.0552224, 0.8505, -0.2885742, 0.8505, -0.7661133, 0.8505, 0.0708008, , , , , , , , , , , , , , , , , , , , , , 
0.0332308, 0.0129244, 0.864, -0.2226562, 0.864, -0.7270508, 0.864, 0.1337891, 0.0332308, -0.0070497, 0.864, 0.3427734, 0.864, -0.7167969, 0.864, -0.1635742, 0.0332308, -0.002182, 0.864, 0.1079102, 0.864, -0.7636719, 0.864, 0.0869141, 0.0332308, 0.0575723, 0.864, -0.246582, 0.864, -0.7373047, 0.864, 0.0634766, , , , , , , , , , , , , , , , , , , , , , 
0.03375, 0.0162814, 0.8775, -0.1870117, 0.8775, -0.6928711, 0.8775, 0.1230469, 0.03375, -0.0085603, 0.8775, 0.3173828, 0.8775, -0.6708984, 0.8775, -0.1640625, 0.03375, -0.0015106, 0.8775, 0.1235352, 0.8775, -0.7138672, 0.8775, 0.0737305, 0.03375, 0.0548867, 0.8775, -0.2119141, 0.8775, -0.7021484, 0.8775, 0.0634766, , , , , , , , , , , , , , , , , , , , , , 
0.0342692, 0.0166171, 0.891, -0.1513672, 0.891, -0.6645508, 0.891, 0.1157227, 0.0342692, -0.008896, 0.891, 0.2714844, 0.891, -0.6303711, 0.891, -0.1796875, 0.0342692, -0.0025177, 0.891, 0.1396484, 0.891, -0.659668, 0.891, 0.0556641, 0.0342692, 0.0471656, 0.891, -0.1962891, 0.891, -0.6674805, 0.891, 0.0629883, , , , , , , , , , , , , , , , , , , , , , 
0.0347885, 0.0198062, 0.9045, -0.1479492, 0.9045, -0.6518555, 0.9045, 0.1103516, 0.0347885, -0.0070497, 0.9045, 0.2353516, 0.9045, -0.6005859, 0.9045, -0.1855469, 0.0347885, -0.0035248, 0.9045, 0.1425781, 0.9045, -0.6381836, 0.9045, 0.043457, 0.0347885, 0.0382696, 0.9045, -0.1850586, 0.9045, -0.6347656, 0.9045, 0.0585938, , , , , , , , , , , , , , , , , , , , , , 
0.0353077, 0.0199741, 0.918, -0.1606445, 0.918, -0.628418, 0.918, 0.0874023, 0.0353077, -0.005539, 0.918, 0.2197266, 0.918, -0.581543, 0.918, -0.1669922, 0.0353077, -0.0062104, 0.918, 0.1342773, 0.918, -0.6152344, 0.918, 0.0224609, 0.0353077, 0.0317235, 0.918, -0.1601562, 0.918, -0.6054688, 0.918, 0.0473633, , , , , , , , , , , , , , , , , , , , , , 
0.0358269, 0.0196384, 0.9315, -0.1674805, 0.9315, -0.6113281, 0.9315, 0.0639648, 0.0358269, -0.005539, 0.9315, 0.215332, 0.9315, -0.5625, 0.9315, -0.1416016, 0.0358269, -0.0083925, 0.9315, 0.1142578, 0.9315, -0.6069336, 0.9315, 0.0053711, 0.0358269, 0.0273594, 0.9315, -0.1274414, 0.9315, -0.5820312, 0.9315, 0.0361328, , , , , , , , , , , , , , , , , , , , , , 
0.0363462, 0.0209812, 0.945, -0.1606445, 0.945, -0.5917969, 0.945, 0.0498047, 0.0363462, -0.0052033, 0.945, 0.2114258, 0.945, -0.5527344, 0.945, -0.1176758, 0.0363462, -0.0068818, 0.945, 0.0888672, 0.945, -0.597168, 0.945, -0.0131836, 0.0363462, 0.0236667, 0.945, -0.1035156, 0.945, -0.5654297, 0.945, 0.0263672, , , , , , , , , , , , , , , , , , , , , , 
0.0368654, 0.0240024, 0.9585, -0.1513672, 0.9585, -0.5805664, 0.9585, 0.0322266, 0.0368654, -0.0062104, 0.9585, 0.2070312, 0.9585, -0.550293, 0.9585, -0.1123047, 0.0368654, -0.005539, 0.9585, 0.0737305, 0.9585, -0.581543, 0.9585, -0.0263672, 0.0368654, 0.0193027, 0.9585, -0.0908203, 0.9585, -0.559082, 0.9585, 0.0224609, , , , , , , , , , , , , , , , , , , , , , 
0.0373846, 0.0216526, 0.972, -0.140625, 0.972, -0.5839844, 0.972, 0.0185547, 0.0373846, -0.0068818, 0.972, 0.1923828, 0.972, -0.5546875, 0.972, -0.1147461, 0.0373846, -0.0058747, 0.972, 0.0805664, 0.972, -0.578125, 0.972, -0.0356445, 0.0373846, 0.0152743, 0.972, -0.0727539, 0.972, -0.5629883, 0.972, 0.012207, , , , , , , , , , , , , , , , , , , , , , 
0.0379038, 0.0162814, 0.9855, -0.152832, 0.9855, -0.5961914, 0.9855, 0.0092773, 0.0379038, -0.0050355, 0.9855, 0.1713867, 0.9855, -0.5673828, 0.9855, -0.1079102, 0.0379038, -0.0068818, 0.9855, 0.0913086, 0.9855, -0.5908203, 0.9855, -0.0419922, 0.0379038, 0.0125887, 0.9855, -0.0615234, 0.9855, -0.5820312, 0.9855, 0.0024414, , , , , , , , , , , , , , , , , , , , , , 
0.0384231, 0.0164492, 0.999, -0.1601562, 0.999, -0.5957031, 0.999, -0.0058594, 0.0384231, -0.005539, 0.999, 0.1640625, 0.999, -0.5693359, 0.999, -0.0922852, 0.0384231, -0.005539, 0.999, 0.0932617, 0.999, -0.5942383, 0.999, -0.0488281, 0.0384231, 0.012253, 0.999, -0.0439453, 0.999, -0.5922852, 0.999, -0.0092773, , , , , , , , , , , , , , , , , , , , , , 
0.0389423, 0.0213169, 1.0125, -0.168457, 1.0125, -0.6103516, 1.0125, -0.0024414, 0.0389423, -0.0072175, 1.0125, 0.168457, 1.0125, -0.5629883, 1.0125, -0.0932617, 0.0389423, -0.0048676, 1.0125, 0.0878906, 1.0125, -0.609375, 1.0125, -0.0600586, 0.0389423, 0.0119173, 1.0125, -0.03125, 1.0125, -0.597168, 1.0125, -0.0292969, , , , , , , , , , , , , , , , , , , , , , 
0.0394615, 0.0240024, 1.026, -0.1787109, 1.026, -0.6508789, 1.026, -0.0112305, 0.0394615, -0.0075532, 1.026, 0.1777344, 1.026, -0.590332, 1.026, -0.0927734, 0.0394615, -0.0045319, 1.026, 0.0800781, 1.026, -0.6308594, 1.026, -0.0654297, 0.0394615, 0.008896, 1.026, -0.0141602, 1.026, -0.6225586, 1.026, -0.0483398, , , , , , , , , , , , , , , , , , , , , , 
0.0399808, 0.0193027, 1.0395, -0.1865234, 1.0395, -0.6694336, 1.0395, -0.0371094, 0.0399808, -0.008896, 1.0395, 0.1762695, 1.0395, -0.6352539, 1.0395, -0.074707, 0.0399808, -0.0043641, 1.0395, 0.0585938, 1.0395, -0.6811523, 1.0395, -0.0771484, 0.0399808, 0.0072175, 1.0395, 0.0112305, 1.0395, -0.6538086, 1.0395, -0.0708008, , , , , , , , , , , , , , , , , , , , , , 
0.0405, 0.0152743, 1.053, -0.1591797, 1.053, -0.6787109, 1.053, -0.0410156, 0.0405, -0.0102388, 1.053, 0.1713867, 1.053, -0.6425781, 1.053, -0.0742188, 0.0405, -0.0045319, 1.053, 0.0336914, 1.053, -0.6914062, 1.053, -0.1123047, 0.0405, 0.0065461, 1.053, 0.0400391, 1.053, -0.6733398, 1.053, -0.0688477, , , , , , , , , , , , , , , , , , , , , , 
0.0410192, 0.018967, 1.0665, -0.1352539, 1.0665, -0.6870117, 1.0665, -0.034668, 0.0410192, -0.0099031, 1.0665, 0.1699219, 1.0665, -0.6323242, 1.0665, -0.0786133, 0.0410192, -0.0062104, 1.0665, 0.0151367, 1.0665, -0.671875, 1.0665, -0.1474609, 0.0410192, 0.0046998, 1.0665, 0.0717773, 1.0665, -0.6708984, 1.0665, -0.0576172, , , , , , , , , , , , , , , , , , , , , , 
0.0415385, 0.0287022, 1.08, -0.1181641, 1.08, -0.6977539, 1.08, -0.0405273, 0.0415385, -0.0085603, 1.08, 0.1630859, 1.08, -0.6347656, 1.08, -0.0742188, 0.0415385, -0.0077211, 1.08, 0.0170898, 1.08, -0.6484375, 1.08, -0.1918945, 0.0415385, 0.0043641, 1.08, 0.0976562, 1.08, -0.6625977, 1.08, -0.0571289, , , , , , , , , , , , , , , , , , , , , , 
0.0420577, 0.0377661, 1.0935, -0.1518555, 1.0935, -0.715332, 1.0935, -0.0458984, 0.0420577, -0.0085603, 1.0935, 0.1474609, 1.0935, -0.6665039, 1.0935, -0.0874023, 0.0420577, -0.0075532, 1.0935, 0.0488281, 1.0935, -0.668457, 1.0935, -0.2211914, 0.0420577, 0.0045319, 1.0935, 0.1137695, 1.0935, -0.6889648, 1.0935, -0.0600586, , , , , , , , , , , , , , , , , , , , , , 
0.0425769, 0.0357519, 1.107, -0.168457, 1.107, -0.7597656, 1.107, -0.0610352, 0.0425769, -0.0102388, 1.107, 0.1542969, 1.107, -0.7099609, 1.107, -0.0874023, 0.0425769, -0.0078889, 1.107, 0.0795898, 1.107, -0.7285156, 1.107, -0.2138672, 0.0425769, 0.0062104, 1.107, 0.1264648, 1.107, -0.7045898, 1.107, -0.0625, , , , , , , , , , , , , , , , , , , , , , 
0.0430962, 0.0260166, 1.1205, -0.1806641, 1.1205, -0.7954102, 1.1205, -0.0786133, 0.0430962, -0.0112459, 1.1205, 0.1689453, 1.1205, -0.7416992, 1.1205, -0.0737305, 0.0430962, -0.0072175, 1.1205, 0.0932617, 1.1205, -0.7739258, 1.1205, -0.2045898, 0.0430962, 0.0099031, 1.1205, 0.1533203, 1.1205, -0.7275391, 1.1205, -0.0644531, , , , , , , , , , , , , , , , , , , , , , 
0.0436154, 0.0172885, 1.134, -0.2016602, 1.134, -0.8105469, 1.134, -0.0708008, 0.0436154, -0.0102388, 1.134, 0.1542969, 1.134, -0.7504883, 1.134, -0.0800781, 0.0436154, -0.0072175, 1.134, 0.0751953, 1.134, -0.7734375, 1.134, -0.2211914, 0.0436154, 0.0070497, 1.134, 0.1743164, 1.134, -0.7402344, 1.134, -0.0507812, , , , , , , , , , , , , , , , , , , , , , 
0.0441346, 0.0125887, 1.1475, -0.1669922, 1.1475, -0.8110352, 1.1475, -0.0605469, 0.0441346, -0.0085603, 1.1475, 0.1381836, 1.1475, -0.7543945, 1.1475, -0.1035156, 0.0441346, -0.0065461, 1.1475, 0.0493164, 1.1475, -0.7548828, 1.1475, -0.2592773, 0.0441346, -0.0040284, 1.1475, 0.1850586, 1.1475, -0.7646484, 1.1475, -0.0463867, , , , , , , , , , , , , , , , , , , , , , 
0.0446538, 0.0132601, 1.161, -0.1523438, 1.161, -0.8344727, 1.161, -0.0454102, 0.0446538, -0.008896, 1.161, 0.1293945, 1.161, -0.784668, 1.161, -0.1088867, 0.0446538, -0.005539, 1.161, 0.0541992, 1.161, -0.7578125, 1.161, -0.277832, 0.0446538, -0.012253, 1.161, 0.1972656, 1.161, -0.8046875, 1.161, -0.0473633, , , , , , , , , , , , , , , , , , , , , , 
0.0451731, 0.0159457, 1.1745, -0.1948242, 1.1745, -0.8579102, 1.1745, -0.0571289, 0.0451731, -0.0109102, 1.1745, 0.1582031, 1.1745, -0.8256836, 1.1745, -0.0874023, 0.0451731, -0.0046998, 1.1745, 0.0712891, 1.1745, -0.796875, 1.1745, -0.2954102, 0.0451731, -0.0162814, 1.1745, 0.199707, 1.1745, -0.8364258, 1.1745, -0.0390625, , , , , , , , , , , , , , , , , , , , , , 
0.0456923, 0.0132601, 1.188, -0.2348633, 1.188, -0.8920898, 1.188, -0.0820312, 0.0456923, -0.0104067, 1.188, 0.1875, 1.188, -0.8500977, 1.188, -0.0703125, 0.0456923, -0.0068818, 1.188, 0.0703125, 1.188, -0.8657227, 1.188, -0.2773438, 0.0456923, -0.0209812, 1.188, 0.1772461, 1.188, -0.8549805, 1.188, -0.03125, , , , , , , , , , , , , , , , , , , , , , 
0.0462115, 0.0095674, 1.2015, -0.2124023, 1.2015, -0.9487305, 1.2015, -0.0761719, 0.0462115, -0.0090639, 1.2015, 0.1875, 1.2015, -0.8613281, 1.2015, -0.0737305, 0.0462115, -0.0082246, 1.2015, 0.0732422, 1.2015, -0.9208984, 1.2015, -0.2426758, 0.0462115, -0.024506, 1.2015, 0.1616211, 1.2015, -0.8759766, 1.2015, -0.0449219, , , , , , , , , , , , , , , , , , , , , , 
0.0467308, 0.0092317, 1.215, -0.1728516, 1.215, -0.9946289, 1.215, -0.0498047, 0.0467308, -0.0075532, 1.215, 0.1757812, 1.215, -0.9057617, 1.215, -0.0991211, 0.0467308, -0.0083925, 1.215, 0.0869141, 1.215, -0.9365234, 1.215, -0.2460938, 0.0467308, -0.023331, 1.215, 0.1845703, 1.215, -0.8984375, 1.215, -0.0698242, , , , , , , , , , , , , , , , , , , , , , 
0.04725, 0.0082246, 1.2285, -0.1723633, 1.2285, -0.9892578, 1.2285, -0.0458984, 0.04725, -0.0068818, 1.2285, 0.1791992, 1.2285, -0.965332, 1.2285, -0.109375, 0.04725, -0.0092317, 1.2285, 0.0859375, 1.2285, -0.9130859, 1.2285, -0.2836914, 0.04725, -0.0203098, 1.2285, 0.2236328, 1.2285, -0.9213867, 1.2285, -0.0546875, , , , , , , , , , , , , , , , , , , , , , 
0.0477692, 0.0050355, 1.242, -0.1713867, 1.242, -0.9775391, 1.242, -0.0488281, 0.0477692, -0.0075532, 1.242, 0.171875, 1.242, -0.9770508, 1.242, -0.1103516, 0.0477692, -0.0099031, 1.242, 0.0957031, 1.242, -0.9013672, 1.242, -0.300293, 0.0477692, -0.0142672, 1.242, 0.2441406, 1.242, -0.9365234, 1.242, -0.0258789, , , , , , , , , , , , , , , , , , , , , , 
0.0482885, 0.0031891, 1.2555, -0.1733398, 1.2555, -0.9716797, 1.2555, -0.0644531, 0.0482885, -0.0095674, 1.2555, 0.1425781, 1.2555, -0.9492188, 1.2555, -0.1333008, 0.0482885, -0.0095674, 1.2555, 0.1293945, 1.2555, -0.8925781, 1.2555, -0.3300781, 0.0482885, -0.0068818, 1.2555, 0.246582, 1.2555, -0.9384766, 1.2555, -0.0161133, , , , , , , , , , , , , , , , , , , , , , 
0.0488077, -0.0001678, 1.269, -0.1933594, 1.269, -1.0004883, 1.269, -0.0415039, 0.0488077, -0.011078, 1.269, 0.1455078, 1.269, -0.9458008, 1.269, -0.140625, 0.0488077, -0.0104067, 1.269, 0.171875, 1.269, -0.9116211, 1.269, -0.3608398, 0.0488077, 0.0028534, 1.269, 0.2568359, 1.269, -0.9443359, 1.269, -0.0009766, , , , , , , , , , , , , , , , , , , , , , 
0.0493269, -0.0041962, 1.2825, -0.2495117, 1.2825, -1.0488281, 1.2825, -0.0185547, 0.0493269, -0.0099031, 1.2825, 0.1865234, 1.2825, -0.9951172, 1.2825, -0.0961914, 0.0493269, -0.0104067, 1.2825, 0.1914062, 1.2825, -0.9882812, 1.2825, -0.3164062, 0.0493269, 0.0130922, 1.2825, 0.2749023, 1.2825, -0.9677734, 1.2825, 0.0053711, , , , , , , , , , , , , , , , , , , , , , 
0.0498462, -0.0082246, 1.296, -0.2885742, 1.296, -1.0820312, 1.296, -0.0180664, 0.0498462, -0.0073854, 1.296, 0.2485352, 1.296, -1.0478516, 1.296, -0.0732422, 0.0498462, -0.0095674, 1.296, 0.1958008, 1.296, -1.034668, 1.296, -0.2856445, 0.0498462, 0.0219883, 1.296, 0.2832031, 1.296, -1.0161133, 1.296, -0.0117188, , , , , , , , , , , , , , , , , , , , , , 
0.0503654, -0.0075532, 1.3095, -0.3496094, 1.3095, -1.0761719, 1.3095, -0.0209961, 0.0503654, -0.0062104, 1.3095, 0.2856445, 1.3095, -1.0771484, 1.3095, -0.0688477, 0.0503654, -0.0085603, 1.3095, 0.1738281, 1.3095, -1.0820312, 1.3095, -0.2797852, 0.0503654, 0.0293736, 1.3095, 0.2792969, 1.3095, -1.0537109, 1.3095, -0.0249023, , , , , , , , , , , , , , , , , , , , , , 
0.0508846, -0.0038605, 1.323, -0.375, 1.323, -1.0566406, 1.323, -0.0073242, 0.0508846, -0.0070497, 1.323, 0.2866211, 1.323, -1.0756836, 1.323, -0.0712891, 0.0508846, -0.0062104, 1.323, 0.1376953, 1.323, -1.0766602, 1.323, -0.3032227, 0.0508846, 0.0360876, 1.323, 0.2587891, 1.323, -1.0742188, 1.323, -0.0224609, , , , , , , , , , , , , , , , , , , , , , 
0.0514038, -0.0008392, 1.3365, -0.3217773, 1.3365, -1.0703125, 1.3365, 0.0131836, 0.0514038, -0.0078889, 1.3365, 0.2788086, 1.3365, -1.0512695, 1.3365, -0.0717773, 0.0514038, -0.0052033, 1.3365, 0.1074219, 1.3365, -1.081543, 1.3365, -0.3027344, 0.0514038, 0.0428016, 1.3365, 0.2338867, 1.3365, -1.0839844, 1.3365, -0.0146484, , , , , , , , , , , , , , , , , , , , , , 
0.0519231, 0.0011749, 1.35, -0.2988281, 1.35, -1.0996094, 1.35, -0.0063477, 0.0519231, -0.0065461, 1.35, 0.2851562, 1.35, -1.0458984, 1.35, -0.0664062, 0.0519231, -0.0048676, 1.35, 0.1005859, 1.35, -1.0825195, 1.35, -0.2871094, 0.0519231, 0.0493477, 1.35, 0.2045898, 1.35, -1.0927734, 1.35, -0.0053711, , , , , , , , , , , , , , , , , , , , , , 
0.0524423, 0.0058747, 1.3635, -0.3657227, 1.3635, -1.1386719, 1.3635, -0.0185547, 0.0524423, -0.0058747, 1.3635, 0.3125, 1.3635, -1.0878906, 1.3635, -0.0263672, 0.0524423, -0.0048676, 1.3635, 0.1079102, 1.3635, -1.1040039, 1.3635, -0.2724609, 0.0524423, 0.0535439, 1.3635, 0.1865234, 1.3635, -1.1108398, 1.3635, 0.0029297, , , , , , , , , , , , , , , , , , , , , , 
0.0529615, 0.0139315, 1.377, -0.5151367, 1.377, -1.1474609, 1.377, -0.0058594, 0.0529615, -0.0062104, 1.377, 0.3608398, 1.377, -1.1445312, 1.377, -0.0161133, 0.0529615, -0.0057069, 1.377, 0.0976562, 1.377, -1.128418, 1.377, -0.2915039, 0.0529615, 0.0575723, 1.377, 0.1958008, 1.377, -1.1201172, 1.377, 0, , , , , , , , , , , , , , , , , , , , , , 
0.0534808, 0.0186313, 1.3905, -0.6000977, 1.3905, -1.1469727, 1.3905, 0.0400391, 0.0534808, -0.0058747, 1.3905, 0.3583984, 1.3905, -1.1635742, 1.3905, -0.0395508, 0.0534808, -0.005539, 1.3905, 0.1210938, 1.3905, -1.1499023, 1.3905, -0.3027344, 0.0534808, 0.0592508, 1.3905, 0.2084961, 1.3905, -1.1547852, 1.3905, -0.0107422, , , , , , , , , , , , , , , , , , , , , , 
0.054, 0.0193027, 1.404, -0.5737305, 1.404, -1.1582031, 1.404, 0.0581055, 0.054, -0.005539, 1.404, 0.3530273, 1.404, -1.1621094, 1.404, -0.0356445, 0.054, -0.0041962, 1.404, 0.1933594, 1.404, -1.1791992, 1.404, -0.2832031, 0.054, 0.0525368, 1.404, 0.2124023, 1.404, -1.1757812, 1.404, -0.0102539, , , , , , , , , , , , , , , , , , , , , , 
0.0545192, 0.0179599, 1.4175, -0.4389648, 1.4175, -1.1689453, 1.4175, 0.0507812, 0.0545192, -0.0058747, 1.4175, 0.4121094, 1.4175, -1.1518555, 1.4175, -0.0078125, 0.0545192, -0.0015106, 1.4175, 0.2124023, 1.4175, -1.1879883, 1.4175, -0.2724609, 0.0545192, 0.0411231, 1.4175, 0.2250977, 1.4175, -1.2070312, 1.4175, 0.0029297, , , , , , , , , , , , , , , , , , , , , , 
0.0550385, 0.0181277, 1.431, -0.3535156, 1.431, -1.1660156, 1.431, 0.0600586, 0.0550385, -0.0048676, 1.431, 0.5, 1.431, -1.1469727, 1.431, 0.0083008, 0.0550385, -0.0016785, 1.431, 0.1928711, 1.431, -1.1713867, 1.431, -0.2871094, 0.0550385, 0.0323949, 1.431, 0.2456055, 1.431, -1.1855469, 1.431, 0.0195312, , , , , , , , , , , , , , , , , , , , , , 
0.0555577, 0.0216526, 1.4445, -0.4233398, 1.4445, -1.1469727, 1.4445, 0.0834961, 0.0555577, -0.0048676, 1.4445, 0.5229492, 1.4445, -1.1342773, 1.4445, 0.0170898, 0.0555577, -0.0045319, 1.4445, 0.1533203, 1.4445, -1.1513672, 1.4445, -0.2949219, 0.0555577, 0.0270237, 1.4445, 0.2514648, 1.4445, -1.1508789, 1.4445, 0.015625, , , , , , , , , , , , , , , , , , , , , , 
0.0560769, 0.0290379, 1.458, -0.5351562, 1.458, -1.1425781, 1.458, 0.0908203, 0.0560769, -0.0062104, 1.458, 0.4946289, 1.458, -1.1298828, 1.458, 0.0087891, 0.0560769, -0.0041962, 1.458, 0.1499023, 1.458, -1.1879883, 1.458, -0.2719727, 0.0560769, 0.0246738, 1.458, 0.2441406, 1.458, -1.1645508, 1.458, -0.0063477, , , , , , , , , , , , , , , , , , , , , , 
0.0565962, 0.0320592, 1.4715, -0.574707, 1.4715, -1.1430664, 1.4715, 0.0483398, 0.0565962, -0.0078889, 1.4715, 0.4277344, 1.4715, -1.1362305, 1.4715, -0.0092773, 0.0565962, -0.0038605, 1.4715, 0.1508789, 1.4715, -1.215332, 1.4715, -0.2807617, 0.0565962, 0.0250095, 1.4715, 0.2333984, 1.4715, -1.2104492, 1.4715, -0.0200195, , , , , , , , , , , , , , , , , , , , , , 
0.0571154, 0.0276951, 1.485, -0.5722656, 1.485, -1.1611328, 1.485, 0.0541992, 0.0571154, -0.0082246, 1.485, 0.434082, 1.485, -1.1469727, 1.485, 0.0048828, 0.0571154, -0.0043641, 1.485, 0.1494141, 1.485, -1.2114258, 1.485, -0.2939453, 0.0571154, 0.0229953, 1.485, 0.2416992, 1.485, -1.2177734, 1.485, -0.0039062, , , , , , , , , , , , , , , , , , , , , , 
0.0576346, 0.0263523, 1.4985, -0.5327148, 1.4985, -1.1884766, 1.4985, 0.0751953, 0.0576346, -0.0082246, 1.4985, 0.4892578, 1.4985, -1.1645508, 1.4985, 0.0297852, 0.0576346, -0.0058747, 1.4985, 0.168457, 1.4985, -1.206543, 1.4985, -0.3085938, 0.0576346, 0.017792, 1.4985, 0.2612305, 1.4985, -1.1982422, 1.4985, -0.012207, , , , , , , , , , , , , , , , , , , , , , 
0.0581538, 0.0271916, 1.512, -0.5170898, 1.512, -1.2197266, 1.512, 0.1040039, 0.0581538, -0.0082246, 1.512, 0.5146484, 1.512, -1.1733398, 1.512, 0.0356445, 0.0581538, -0.0082246, 1.512, 0.1738281, 1.512, -1.2133789, 1.512, -0.3198242, 0.0581538, 0.0117494, 1.512, 0.2827148, 1.512, -1.2080078, 1.512, -0.0239258, , , , , , , , , , , , , , , , , , , , , , 
0.0586731, 0.0258488, 1.5255, -0.5234375, 1.5255, -1.2124023, 1.5255, 0.1015625, 0.0586731, -0.0072175, 1.5255, 0.5566406, 1.5255, -1.1826172, 1.5255, 0.0385742, 0.0586731, -0.0095674, 1.5255, 0.1484375, 1.5255, -1.2324219, 1.5255, -0.3193359, 0.0586731, 0.0092317, 1.5255, 0.3134766, 1.5255, -1.2553711, 1.5255, -0.0175781, , , , , , , , , , , , , , , , , , , , , , 
0.0591923, 0.0260166, 1.539, -0.5810547, 1.539, -1.2006836, 1.539, 0.1137695, 0.0591923, -0.0068818, 1.539, 0.6259766, 1.539, -1.2094727, 1.539, 0.0761719, 0.0591923, -0.0095674, 1.539, 0.1567383, 1.539, -1.2617188, 1.539, -0.3095703, 0.0591923, 0.0085603, 1.539, 0.3203125, 1.539, -1.2861328, 1.539, -0.012207, , , , , , , , , , , , , , , , , , , , , , 
0.0597115, 0.0250095, 1.5525, -0.6245117, 1.5525, -1.190918, 1.5525, 0.0844727, 0.0597115, -0.0085603, 1.5525, 0.6220703, 1.5525, -1.2016602, 1.5525, 0.0605469, 0.0597115, -0.0095674, 1.5525, 0.1723633, 1.5525, -1.2895508, 1.5525, -0.3134766, 0.0597115, 0.0077211, 1.5525, 0.315918, 1.5525, -1.296875, 1.5525, -0.0195312, , , , , , , , , , , , , , , , , , , , , , 
0.0602308, 0.0199741, 1.566, -0.6391602, 1.566, -1.1987305, 1.566, 0.0742188, 0.0602308, -0.0109102, 1.566, 0.5668945, 1.566, -1.2133789, 1.566, 0.0849609, 0.0602308, -0.010071, 1.566, 0.2094727, 1.566, -1.3408203, 1.566, -0.3110352, 0.0602308, 0.0072175, 1.566, 0.3017578, 1.566, -1.3320312, 1.566, -0.0327148, , , , , , , , , , , , , , , , , , , , , , 
0.06075, 0.0125887, 1.5795, -0.6826172, 1.5795, -1.234375, 1.5795, 0.0942383, 0.06075, -0.0099031, 1.5795, 0.5493164, 1.5795, -1.2338867, 1.5795, 0.1069336, 0.06075, -0.0104067, 1.5795, 0.2592773, 1.5795, -1.3842773, 1.5795, -0.2900391, 0.06075, 0.008896, 1.5795, 0.2963867, 1.5795, -1.3759766, 1.5795, -0.0166016, , , , , , , , , , , , , , , , , , , , , , 
0.0612692, 0.0125887, 1.593, -0.7597656, 1.593, -1.2509766, 1.593, 0.0678711, 0.0612692, -0.0062104, 1.593, 0.5771484, 1.593, -1.2861328, 1.593, 0.1650391, 0.0612692, -0.0099031, 1.593, 0.2631836, 1.593, -1.3837891, 1.593, -0.2597656, 0.0612692, 0.0099031, 1.593, 0.3217773, 1.593, -1.3798828, 1.593, 0.0058594, , , , , , , , , , , , , , , , , , , , , , 
0.0617885, 0.0166171, 1.6065, -0.8085938, 1.6065, -1.2265625, 1.6065, 0.0698242, 0.0617885, -0.005539, 1.6065, 0.6347656, 1.6065, -1.315918, 1.6065, 0.2167969, 0.0617885, -0.008896, 1.6065, 0.3144531, 1.6065, -1.3671875, 1.6065, -0.2958984, 0.0617885, 0.0078889, 1.6065, 0.3496094, 1.6065, -1.3823242, 1.6065, 0.0107422, , , , , , , , , , , , , , , , , , , , , , 
0.0623077, 0.0146029, 1.62, -0.8154297, 1.62, -1.199707, 1.62, 0.1113281, 0.0623077, -0.0075532, 1.62, 0.7207031, 1.62, -1.2856445, 1.62, 0.2338867, 0.0623077, -0.0085603, 1.62, 0.3222656, 1.62, -1.4023438, 1.62, -0.3354492, 0.0623077, 0.0038605, 1.62, 0.3354492, 1.62, -1.4121094, 1.62, 0.0136719, , , , , , , , , , , , , , , , , , , , , , 
0.0628269, 0.0099031, 1.6335, -0.831543, 1.6335, -1.1591797, 1.6335, 0.0869141, 0.0628269, -0.0085603, 1.6335, 0.8022461, 1.6335, -1.2519531, 1.6335, 0.2807617, 0.0628269, -0.008896, 1.6335, 0.2861328, 1.6335, -1.4833984, 1.6335, -0.300293, 0.0628269, 0.0015106, 1.6335, 0.3417969, 1.6335, -1.4379883, 1.6335, 0.0410156, , , , , , , , , , , , , , , , , , , , , , 
0.0633462, 0.0068818, 1.647, -0.9379883, 1.647, -1.0898438, 1.647, 0.0791016, 0.0633462, -0.0090639, 1.647, 0.8100586, 1.647, -1.2353516, 1.647, 0.3027344, 0.0633462, -0.0087282, 1.647, 0.2880859, 1.647, -1.5405273, 1.647, -0.2275391, 0.0633462, 0.0003357, 1.647, 0.3833008, 1.647, -1.4443359, 1.647, 0.0644531, , , , , , , , , , , , , , , , , , , , , , 
0.0638654, 0.0028534, 1.6605, -1.0786133, 1.6605, -1.0449219, 1.6605, 0.0131836, 0.0638654, -0.0095674, 1.6605, 0.7124023, 1.6605, -1.2983398, 1.6605, 0.3837891, 0.0638654, -0.0095674, 1.6605, 0.3217773, 1.6605, -1.5620117, 1.6605, -0.2104492, 0.0638654, -0.0048676, 1.6605, 0.3745117, 1.6605, -1.4936523, 1.6605, 0.0307617, , , , , , , , , , , , , , , , , , , , , , 
0.0643846, -0.0001678, 1.674, -1.1171875, 1.674, -1.2739258, 1.674, -0.0463867, 0.0643846, -0.0082246, 1.674, 0.8740234, 1.674, -1.4931641, 1.674, 0.5180664, 0.0643846, -0.0093996, 1.674, 0.3505859, 1.674, -1.5703125, 1.674, -0.2304688, 0.0643846, -0.0139315, 1.674, 0.2949219, 1.674, -1.6118164, 1.674, -0.0053711, , , , , , , , , , , , , , , , , , , , , , 
0.0649038, -0.0008392, 1.6875, -0.7915039, 1.6875, -1.6391602, 1.6875, 0.0263672, 0.0649038, -0.0068818, 1.6875, 0.9516602, 1.6875, -1.5473633, 1.6875, -0.4301758, 0.0649038, -0.0068818, 1.6875, 0.409668, 1.6875, -1.5019531, 1.6875, -0.472168, 0.0649038, -0.0219883, 1.6875, 0.3466797, 1.6875, -1.6572266, 1.6875, -0.0546875, , , , , , , , , , , , , , , , , , , , , , 
0.0654231, -0.0005035, 1.701, -0.3637695, 1.701, -1.7626953, 1.701, 0.7509766, 0.0654231, -0.0062104, 1.701, 0.7973633, 1.701, -1.3642578, 1.701, -0.7246094, 0.0654231, -0.0082246, 1.701, 0.3754883, 1.701, -1.3974609, 1.701, -0.5087891, 0.0654231, -0.0256809, 1.701, 0.4775391, 1.701, -1.4555664, 1.701, -0.0947266, , , , , , , , , , , , , , , , , , , , , , 
0.0659423, 0.0025177, 1.7145, -0.425293, 1.7145, -1.1884766, 1.7145, 0.5097656, 0.0659423, -0.0062104, 1.7145, 0.6606445, 1.7145, -0.8271484, 1.7145, 0.1601562, 0.0659423, -0.0109102, 1.7145, 0.1147461, 1.7145, -1.3276367, 1.7145, -0.3295898, 0.0659423, -0.0256809, 1.7145, 0.5024414, 1.7145, -1.3017578, 1.7145, -0.0908203, , , , , , , , , , , , , , , , , , , , , , 
0.0664615, 0.0052033, 1.728, -0.9990234, 1.728, -0.3457031, 1.728, 0.1103516, 0.0664615, -0.0058747, 1.728, 0.6699219, 1.728, -0.7280273, 1.728, 0.5102539, 0.0664615, -0.0129244, 1.728, 0.0283203, 1.728, -1.2988281, 1.728, -0.0532227, 0.0664615, -0.0250095, 1.728, 0.3583984, 1.728, -1.0996094, 1.728, -0.0654297, , , , , , , , , , , , , , , , , , , , , , 
0.0669808, 0.0025177, 1.7415, -1.2861328, 1.7415, -0.0302734, 1.7415, -0.0722656, 0.0669808, -0.0082246, 1.7415, 1.1098633, 1.7415, -0.6572266, 1.7415, 0.2998047, 0.0669808, -0.0135958, 1.7415, 0.5410156, 1.7415, -1.5068359, 1.7415, 0.0205078, 0.0669808, -0.0229953, 1.7415, -0.0209961, 1.7415, -1.2290039, 1.7415, -0.0390625, , , , , , , , , , , , , , , , , , , , , , 
0.0675, 0.0016785, 1.755, -1.2324219, 1.755, -0.1826172, 1.755, -0.0893555, 0.0675, -0.008896, 1.755, 1.1264648, 1.755, -0.5732422, 1.755, 0.2509766, 0.0675, -0.0125887, 1.755, 0.3681641, 1.755, -1.4267578, 1.755, -0.3027344, 0.0675, -0.0169528, 1.755, -0.1845703, 1.755, -1.4853516, 1.755, 0.003418, , , , , , , , , , , , , , , , , , , , , , 
0.0680192, 0.0099031, 1.7685, -1.0708008, 1.7685, -1.0073242, 1.7685, 0.3901367, 0.0680192, -0.0082246, 1.7685, 0.5966797, 1.7685, -0.7045898, 1.7685, 0.2270508, 0.0680192, -0.0119173, 1.7685, -0.1757812, 1.7685, -1.1933594, 1.7685, -0.2114258, 0.0680192, -0.0072175, 1.7685, 0.081543, 1.7685, -1.4716797, 1.7685, 0.1650391, , , , , , , , , , , , , , , , , , , , , , 
0.0685385, 0.0164492, 1.782, -0.6782227, 1.782, -1.2373047, 1.782, 0.3798828, 0.0685385, -0.0062104, 1.782, 0.581543, 1.782, -0.9370117, 1.782, -0.0019531, 0.0685385, -0.0102388, 1.782, -0.0097656, 1.782, -1.1186523, 1.782, -0.2524414, 0.0685385, 0.0005035, 1.782, 0.1416016, 1.782, -1.1630859, 1.782, 0.0830078, , , , , , , , , , , , , , , , , , , , , , 
0.0690577, 0.0105745, 1.7955, -0.4921875, 1.7955, -1.0375977, 1.7955, 0.4868164, 0.0690577, -0.0048676, 1.7955, 0.8183594, 1.7955, -1.0766602, 1.7955, 0.0292969, 0.0690577, -0.0104067, 1.7955, 0.4418945, 1.7955, -1.2172852, 1.7955, -0.2954102, 0.0690577, 0.0072175, 1.7955, 0.0571289, 1.7955, -0.9814453, 1.7955, -0.0424805, , , , , , , , , , , , , , , , , , , , , , 
0.0695769, 0.0038605, 1.809, -0.7138672, 1.809, -0.8979492, 1.809, 0.5336914, 0.0695769, -0.0062104, 1.809, 1.1757812, 1.809, -1.0927734, 1.809, 0.0952148, 0.0695769, -0.0099031, 1.809, 0.5185547, 1.809, -1.2734375, 1.809, -0.2973633, 0.0695769, 0.0137636, 1.809, 0.2729492, 1.809, -1.2001953, 1.809, 0.1030273, , , , , , , , , , , , , , , , , , , , , , 
0.0700962, 0.0028534, 1.8225, -0.9394531, 1.8225, -1.0112305, 1.8225, 0.3554688, 0.0700962, -0.0082246, 1.8225, 1.2407227, 1.8225, -1.1162109, 1.8225, 0.0795898, 0.0700962, -0.0078889, 1.8225, 0.4672852, 1.8225, -1.3168945, 1.8225, -0.3525391, 0.0700962, 0.0213169, 1.8225, 0.4873047, 1.8225, -1.5219727, 1.8225, 0.1381836, , , , , , , , , , , , , , , , , , , , , , 
0.0706154, 0.0058747, 1.836, -1.0419922, 1.836, -1.1762695, 1.836, 0.453125, 0.0706154, -0.008896, 1.836, 1.0839844, 1.836, -1.1850586, 1.836, 0.0053711, 0.0706154, -0.0063783, 1.836, 0.4101562, 1.836, -1.347168, 1.836, -0.3071289, 0.0706154, 0.030045, 1.836, 0.4648438, 1.836, -1.5952148, 1.836, 0.1264648, , , , , , , , , , , , , , , , , , , , , , 
0.0711346, 0.0077211, 1.8495, -0.8237305, 1.8495, -1.1333008, 1.8495, 0.5024414, 0.0711346, -0.0092317, 1.8495, 0.7397461, 1.8495, -1.1533203, 1.8495, -0.0610352, 0.0711346, -0.0068818, 1.8495, 0.4741211, 1.8495, -1.2802734, 1.8495, -0.3115234, 0.0711346, 0.0374304, 1.8495, 0.3916016, 1.8495, -1.4130859, 1.8495, 0.2148438, , , , , , , , , , , , , , , , , , , , , , 
0.0716538, 0.0058747, 1.863, -0.6845703, 1.863, -1.0673828, 1.863, 0.3691406, 0.0716538, -0.0095674, 1.863, 0.5771484, 1.863, -1.1762695, 1.863, 0.0195312, 0.0716538, -0.0062104, 1.863, 0.5620117, 1.863, -1.3266602, 1.863, -0.3349609, 0.0716538, 0.0448157, 1.863, 0.3466797, 1.863, -1.3374023, 1.863, 0.2011719, , , , , , , , , , , , , , , , , , , , , , 
0.0721731, 0.0052033, 1.8765, -0.8017578, 1.8765, -1.125, 1.8765, 0.2412109, 0.0721731, -0.0099031, 1.8765, 0.7080078, 1.8765, -1.2827148, 1.8765, 0.1933594, 0.0721731, -0.0048676, 1.8765, 0.4345703, 1.8765, -1.4331055, 1.8765, -0.3383789, 0.0721731, 0.0481727, 1.8765, 0.2231445, 1.8765, -1.3808594, 1.8765, 0.1240234, , , , , , , , , , , , , , , , , , , , , , 
0.0726923, 0.0070497, 1.89, -0.9189453, 1.89, -1.1948242, 1.89, 0.1201172, 0.0726923, -0.0115816, 1.89, 0.9047852, 1.89, -1.3110352, 1.89, 0.1948242, 0.0726923, -0.0035248, 1.89, 0.1914062, 1.89, -1.3950195, 1.89, -0.3789062, 0.0726923, 0.0518654, 1.89, 0.1879883, 1.89, -1.515625, 1.89, 0.0541992, , , , , , , , , , , , , , , , , , , , , , 
0.0732115, 0.0119173, 1.9035, -0.9121094, 1.9035, -1.2148438, 1.9035, 0.121582, 0.0732115, -0.0119173, 1.9035, 0.7607422, 1.9035, -1.2993164, 1.9035, 0.1494141, 0.0732115, -0.0030213, 1.9035, 0.0981445, 1.9035, -1.2651367, 1.9035, -0.4194336, 0.0732115, 0.0555581, 1.9035, 0.2197266, 1.9035, -1.4599609, 1.9035, -0.0078125, , , , , , , , , , , , , , , , , , , , , , 
0.0737308, 0.0149386, 1.917, -0.7573242, 1.917, -1.2382812, 1.917, 0.1660156, 0.0737308, -0.0102388, 1.917, 0.5112305, 1.917, -1.2744141, 1.917, 0.1450195, 0.0737308, -0.0028534, 1.917, 0.1254883, 1.917, -1.2285156, 1.917, -0.4204102, 0.0737308, 0.0533761, 1.917, 0.2612305, 1.917, -1.2861328, 1.917, -0.0493164, , , , , , , , , , , , , , , , , , , , , , 
0.07425, 0.0132601, 1.9305, -0.6386719, 1.9305, -1.2285156, 1.9305, 0.2202148, 0.07425, -0.0085603, 1.9305, 0.5639648, 1.9305, -1.2104492, 1.9305, 0.2045898, 0.07425, -0.0052033, 1.9305, 0.1899414, 1.9305, -1.3051758, 1.9305, -0.3876953, 0.07425, 0.0448157, 1.9305, 0.3100586, 1.9305, -1.2700195, 1.9305, -0.0341797, , , , , , , , , , , , , , , , , , , , , , 
0.0747692, 0.0166171, 1.944, -0.7744141, 1.944, -1.1264648, 1.944, 0.2148438, 0.0747692, -0.008896, 1.944, 0.7001953, 1.944, -1.1796875, 1.944, 0.2016602, 0.0747692, -0.0057069, 1.944, 0.25, 1.944, -1.3603516, 1.944, -0.3745117, 0.0747692, 0.0359197, 1.944, 0.394043, 1.944, -1.3842773, 1.944, -0.0205078, , , , , , , , , , , , , , , , , , , , , , 
0.0752885, 0.0229953, 1.9575, -0.9716797, 1.9575, -1.0458984, 1.9575, 0.2314453, 0.0752885, -0.0090639, 1.9575, 0.9477539, 1.9575, -1.140625, 1.9575, 0.2114258, 0.0752885, -0.0065461, 1.9575, 0.3837891, 1.9575, -1.4038086, 1.9575, -0.3295898, 0.0752885, 0.0290379, 1.9575, 0.4858398, 1.9575, -1.4492188, 1.9575, -0.0820312, , , , , , , , , , , , , , , , , , , , , , 
0.0758077, 0.0203098, 1.971, -0.8793945, 1.971, -1.0629883, 1.971, 0.1469727, 0.0758077, -0.0082246, 1.971, 0.8916016, 1.971, -1.1323242, 1.971, 0.2163086, 0.0758077, -0.0085603, 1.971, 0.3930664, 1.971, -1.3144531, 1.971, -0.3710938, 0.0758077, 0.0236667, 1.971, 0.4658203, 1.971, -1.3461914, 1.971, -0.0463867, , , , , , , , , , , , , , , , , , , , , , 
0.0763269, 0.0169528, 1.9845, -0.7626953, 1.9845, -1.0634766, 1.9845, 0.2265625, 0.0763269, -0.0062104, 1.9845, 0.7050781, 1.9845, -1.1186523, 1.9845, 0.2255859, 0.0763269, -0.0078889, 1.9845, 0.2695312, 1.9845, -1.2138672, 1.9845, -0.3808594, 0.0763269, 0.0199741, 1.9845, 0.390625, 1.9845, -1.2119141, 1.9845, -0.0239258, , , , , , , , , , , , , , , , , , , , , , 
0.0768462, 0.018967, 1.998, -0.8032227, 1.998, -1.0087891, 1.998, 0.2709961, 0.0768462, -0.0048676, 1.998, 0.6977539, 1.998, -1.0561523, 1.998, 0.1694336, 0.0768462, -0.0068818, 1.998, 0.2314453, 1.998, -1.230957, 1.998, -0.3852539, 0.0768462, 0.0162814, 1.998, 0.3237305, 1.998, -1.1933594, 1.998, -0.0458984, , , , , , , , , , , , , , , , , , , , , , 
0.0773654, 0.023331, 2.0115, -0.847168, 2.0115, -0.956543, 2.0115, 0.2280273, 0.0773654, -0.0035248, 2.0115, 0.7568359, 2.0115, -0.9736328, 2.0115, 0.1894531, 0.0773654, -0.0082246, 2.0115, 0.1865234, 2.0115, -1.2578125, 2.0115, -0.3378906, 0.0773654, 0.0125887, 2.0115, 0.2958984, 2.0115, -1.2089844, 2.0115, -0.0605469, , , , , , , , , , , , , , , , , , , , , , 
0.0778846, 0.0273594, 2.025, -0.8452148, 2.025, -0.9575195, 2.025, 0.1791992, 0.0778846, -0.0048676, 2.025, 0.78125, 2.025, -0.9697266, 2.025, 0.2490234, 0.0778846, -0.0102388, 2.025, 0.1137695, 2.025, -1.2104492, 2.025, -0.3027344, 0.0778846, 0.0090639, 2.025, 0.2290039, 2.025, -1.2524414, 2.025, -0.0830078, , , , , , , , , , , , , , , , , , , , , , 
0.0784038, 0.0276951, 2.0385, -0.7573242, 2.0385, -0.8989258, 2.0385, 0.1245117, 0.0784038, -0.0068818, 2.0385, 0.7319336, 2.0385, -0.9453125, 2.0385, 0.2412109, 0.0784038, -0.0109102, 2.0385, 0.0830078, 2.0385, -1.1518555, 2.0385, -0.2861328, 0.0784038, 0.0048676, 2.0385, 0.1469727, 2.0385, -1.2568359, 2.0385, -0.0395508, , , , , , , , , , , , , , , , , , , , , , 
0.0789231, 0.0253452, 2.052, -0.7280273, 2.052, -0.8457031, 2.052, 0.2089844, 0.0789231, -0.008896, 2.052, 0.6801758, 2.052, -0.9267578, 2.052, 0.2304688, 0.0789231, -0.0095674, 2.052, 0.1513672, 2.052, -1.1245117, 2.052, -0.3256836, 0.0789231, 0.0028534, 2.052, 0.1318359, 2.052, -1.1621094, 2.052, 0.0053711, , , , , , , , , , , , , , , , , , , , , , 
0.0794423, 0.0229953, 2.0655, -0.7905273, 2.0655, -0.8481445, 2.0655, 0.2753906, 0.0794423, -0.0099031, 2.0655, 0.6933594, 2.0655, -0.9306641, 2.0655, 0.2143555, 0.0794423, -0.0085603, 2.0655, 0.2055664, 2.0655, -1.1333008, 2.0655, -0.3339844, 0.0794423, 0.002182, 2.0655, 0.25, 2.0655, -1.0825195, 2.0655, -0.0478516, , , , , , , , , , , , , , , , , , , , , , 
0.0799615, 0.0226596, 2.079, -0.8349609, 2.079, -0.8666992, 2.079, 0.2705078, 0.0799615, -0.0102388, 2.079, 0.75, 2.079, -0.9091797, 2.079, 0.1352539, 0.0799615, -0.0095674, 2.079, 0.2807617, 2.079, -1.1474609, 2.079, -0.3901367, 0.0799615, 0.0011749, 2.079, 0.3725586, 2.079, -1.1342773, 2.079, -0.0791016, , , , , , , , , , , , , , , , , , , , , , 
0.0804808, 0.0213169, 2.0925, -0.8427734, 2.0925, -0.8964844, 2.0925, 0.1928711, 0.0804808, -0.0099031, 2.0925, 0.7070312, 2.0925, -0.8818359, 2.0925, 0.206543, 0.0804808, -0.0099031, 2.0925, 0.2695312, 2.0925, -1.1313477, 2.0925, -0.3598633, 0.0804808, 0.0008392, 2.0925, 0.4228516, 2.0925, -1.2006836, 2.0925, -0.0717773, , , , , , , , , , , , , , , , , , , , , , 
0.081, 0.0193027, 2.106, -0.7304688, 2.106, -0.8828125, 2.106, 0.1459961, 0.081, -0.0082246, 2.106, 0.6679688, 2.106, -0.9038086, 2.106, 0.2763672, 0.081, -0.0097353, 2.106, 0.1645508, 2.106, -1.0922852, 2.106, -0.2880859, 0.081, 0.0001678, 2.106, 0.3408203, 2.106, -1.1552734, 2.106, 0.0126953, , , , , , , , , , , , , , , , , , , , , , 
0.0815192, 0.0179599, 2.1195, -0.6850586, 2.1195, -0.7563477, 2.1195, 0.1928711, 0.0815192, -0.0082246, 2.1195, 0.6733398, 2.1195, -0.8579102, 2.1195, 0.1879883, 0.0815192, -0.0092317, 2.1195, 0.1391602, 2.1195, -1.0522461, 2.1195, -0.3969727, 0.0815192, 0.002182, 2.1195, 0.1816406, 2.1195, -1.0185547, 2.1195, 0.0571289, , , , , , , , , , , , , , , , , , , , , , 
0.0820385, 0.0186313, 2.133, -0.7875977, 2.133, -0.7524414, 2.133, 0.309082, 0.0820385, -0.0095674, 2.133, 0.7431641, 2.133, -0.8208008, 2.133, 0.1552734, 0.0820385, -0.0102388, 2.133, 0.2719727, 2.133, -1.0546875, 2.133, -0.3818359, 0.0820385, 0.0046998, 2.133, 0.230957, 2.133, -0.9458008, 2.133, -0.0068359, , , , , , , , , , , , , , , , , , , , , , 
0.0825577, 0.0179599, 2.1465, -0.8476562, 2.1465, -0.8378906, 2.1465, 0.3149414, 0.0825577, -0.0109102, 2.1465, 0.7749023, 2.1465, -0.8271484, 2.1465, 0.1298828, 0.0825577, -0.012253, 2.1465, 0.3583984, 2.1465, -1.0454102, 2.1465, -0.3657227, 0.0825577, 0.0052033, 2.1465, 0.4384766, 2.1465, -1.0625, 2.1465, -0.0141602, , , , , , , , , , , , , , , , , , , , , , 
0.0830769, 0.0132601, 2.16, -0.793457, 2.16, -0.8588867, 2.16, 0.2319336, 0.0830769, -0.0095674, 2.16, 0.7392578, 2.16, -0.8579102, 2.16, 0.2338867, 0.0830769, -0.0139315, 2.16, 0.3725586, 2.16, -1.0493164, 2.16, -0.4404297, 0.0830769, 0.0038605, 2.16, 0.4916992, 2.16, -1.1523438, 2.16, -0.0102539, , , , , , , , , , , , , , , , , , , , , , 
0.0835962, 0.0105745, 2.1735, -0.7646484, 2.1735, -0.8676758, 2.1735, 0.1533203, 0.0835962, -0.0105745, 2.1735, 0.6977539, 2.1735, -0.9072266, 2.1735, 0.3505859, 0.0835962, -0.0146029, 2.1735, 0.2338867, 2.1735, -1.0771484, 2.1735, -0.3833008, 0.0835962, 0.0015106, 2.1735, 0.472168, 2.1735, -1.2431641, 2.1735, -0.0307617, , , , , , , , , , , , , , , , , , , , , , 
0.0841154, 0.012253, 2.187, -0.8037109, 2.187, -0.7915039, 2.187, 0.1113281, 0.0841154, -0.012253, 2.187, 0.6845703, 2.187, -0.9042969, 2.187, 0.3598633, 0.0841154, -0.0139315, 2.187, 0.0859375, 2.187, -1.078125, 2.187, -0.3793945, 0.0841154, -0.0052033, 2.187, 0.3745117, 2.187, -1.1328125, 2.187, 0.0112305, , , , , , , , , , , , , , , , , , , , , , 
0.0846346, 0.0137636, 2.2005, -0.8164062, 2.2005, -0.6606445, 2.2005, 0.1591797, 0.0846346, -0.0109102, 2.2005, 0.6733398, 2.2005, -0.7827148, 2.2005, 0.2197266, 0.0846346, -0.0146029, 2.2005, 0.0898438, 2.2005, -1.0532227, 2.2005, -0.4267578, 0.0846346, -0.0142672, 2.2005, 0.2583008, 2.2005, -0.925293, 2.2005, 0.0214844, , , , , , , , , , , , , , , , , , , , , , 
0.0851538, 0.0115816, 2.214, -0.7875977, 2.214, -0.7143555, 2.214, 0.2827148, 0.0851538, -0.008896, 2.214, 0.6943359, 2.214, -0.675293, 2.214, 0.2045898, 0.0851538, -0.0164492, 2.214, 0.2006836, 2.214, -0.9609375, 2.214, -0.4472656, 0.0851538, -0.0182956, 2.214, 0.2773438, 2.214, -0.8120117, 2.214, -0.0615234, , , , , , , , , , , , , , , , , , , , , , 
0.0856731, 0.0099031, 2.2275, -0.7094727, 2.2275, -0.78125, 2.2275, 0.2294922, 0.0856731, -0.008896, 2.2275, 0.6938477, 2.2275, -0.7202148, 2.2275, 0.1958008, 0.0856731, -0.01561, 2.2275, 0.2783203, 2.2275, -0.8813477, 2.2275, -0.3759766, 0.0856731, -0.0186313, 2.2275, 0.3818359, 2.2275, -0.9106445, 2.2275, -0.0327148, , , , , , , , , , , , , , , , , , , , , , 
0.0861923, 0.011078, 2.241, -0.6835938, 2.241, -0.7783203, 2.241, 0.15625, 0.0861923, -0.0109102, 2.241, 0.6821289, 2.241, -0.7631836, 2.241, 0.3295898, 0.0861923, -0.0135958, 2.241, 0.2998047, 2.241, -0.9023438, 2.241, -0.4199219, 0.0861923, -0.0196384, 2.241, 0.3393555, 2.241, -1.0488281, 2.241, 0.0151367, , , , , , , , , , , , , , , , , , , , , , 
0.0867115, 0.0112459, 2.2545, -0.6958008, 2.2545, -0.7631836, 2.2545, 0.019043, 0.0867115, -0.0115816, 2.2545, 0.671875, 2.2545, -0.7578125, 2.2545, 0.3935547, 0.0867115, -0.0135958, 2.2545, 0.1855469, 2.2545, -0.9829102, 2.2545, -0.4370117, 0.0867115, -0.0198062, 2.2545, 0.2827148, 2.2545, -1.0458984, 2.2545, -0.0205078, , , , , , , , , , , , , , , , , , , , , , 
0.0872308, 0.0075532, 2.268, -0.800293, 2.268, -0.7148438, 2.268, 0.0126953, 0.0872308, -0.0109102, 2.268, 0.6303711, 2.268, -0.7348633, 2.268, 0.362793, 0.0872308, -0.0137636, 2.268, 0.0170898, 2.268, -1.0024414, 2.268, -0.3662109, 0.0872308, -0.0149386, 2.268, 0.3452148, 2.268, -0.9428711, 2.268, -0.0209961, , , , , , , , , , , , , , , , , , , , , , 
0.08775, 0.0011749, 2.2815, -0.8066406, 2.2815, -0.6015625, 2.2815, 0.1279297, 0.08775, -0.008896, 2.2815, 0.5986328, 2.2815, -0.6318359, 2.2815, 0.1420898, 0.08775, -0.0142672, 2.2815, 0.0209961, 2.2815, -0.9257812, 2.2815, -0.3984375, 0.08775, -0.0085603, 2.2815, 0.3686523, 2.2815, -0.8168945, 2.2815, -0.019043, , , , , , , , , , , , , , , , , , , , , , 
0.0882692, -0.0035248, 2.295, -0.6577148, 2.295, -0.5610352, 2.295, 0.1757812, 0.0882692, -0.0062104, 2.295, 0.4614258, 2.295, -0.5761719, 2.295, 0.1157227, 0.0882692, -0.0146029, 2.295, 0.2280273, 2.295, -0.7680664, 2.295, -0.4262695, 0.0882692, -0.0018463, 2.295, 0.3452148, 2.295, -0.7124023, 2.295, -0.0463867, , , , , , , , , , , , , , , , , , , , , , 
0.0887885, -0.0041962, 2.3085, -0.5200195, 2.3085, -0.6728516, 2.3085, 0.2177734, 0.0887885, -0.0065461, 2.3085, 0.4536133, 2.3085, -0.6069336, 2.3085, 0.2075195, 0.0887885, -0.0129244, 2.3085, 0.362793, 2.3085, -0.637207, 2.3085, -0.3959961, 0.0887885, 0.0031891, 2.3085, 0.340332, 2.3085, -0.6987305, 2.3085, -0.0371094, , , , , , , , , , , , , , , , , , , , , , 
0.0893077, -0.0109102, 2.322, -0.5532227, 2.322, -0.6762695, 2.322, 0.0634766, 0.0893077, -0.0092317, 2.322, 0.6137695, 2.322, -0.6479492, 2.322, 0.3325195, 0.0893077, -0.0129244, 2.322, 0.3398438, 2.322, -0.628418, 2.322, -0.425293, 0.0893077, 0.0075532, 2.322, 0.2988281, 2.322, -0.7836914, 2.322, 0, , , , , , , , , , , , , , , , , , , , , , 
0.0898269, -0.0149386, 2.3355, -0.7441406, 2.3355, -0.5712891, 2.3355, -0.0400391, 0.0898269, -0.0112459, 2.3355, 0.7368164, 2.3355, -0.5727539, 2.3355, 0.3745117, 0.0898269, -0.0130922, 2.3355, 0.206543, 2.3355, -0.7597656, 2.3355, -0.4780273, 0.0898269, 0.0125887, 2.3355, 0.2661133, 2.3355, -0.8930664, 2.3355, -0.0258789, , , , , , , , , , , , , , , , , , , , , , 
0.0903462, -0.0115816, 2.349, -0.8339844, 2.349, -0.5024414, 2.349, -0.0107422, 0.0903462, -0.0117494, 2.349, 0.640625, 2.349, -0.5185547, 2.349, 0.2749023, 0.0903462, -0.0112459, 2.349, 0.0258789, 2.349, -0.9301758, 2.349, -0.421875, 0.0903462, 0.0186313, 2.349, 0.3701172, 2.349, -0.8491211, 2.349, -0.0581055, , , , , , , , , , , , , , , , , , , , , , 
0.0908654, -0.0082246, 2.3625, -0.6411133, 2.3625, -0.4697266, 2.3625, 0.081543, 0.0908654, -0.0112459, 2.3625, 0.4199219, 2.3625, -0.4960938, 2.3625, 0.1879883, 0.0908654, -0.0072175, 2.3625, -0.0366211, 2.3625, -0.9213867, 2.3625, -0.3154297, 0.0908654, 0.0258488, 2.3625, 0.4453125, 2.3625, -0.7456055, 2.3625, -0.0361328, , , , , , , , , , , , , , , , , , , , , , 
0.0913846, -0.0052033, 2.376, -0.4970703, 2.376, -0.465332, 2.376, 0.1821289, 0.0913846, -0.0095674, 2.376, 0.2939453, 2.376, -0.4780273, 2.376, 0.2041016, 0.0913846, -0.0035248, 2.376, 0.1474609, 2.376, -0.7529297, 2.376, -0.3339844, 0.0913846, 0.0345769, 2.376, 0.3344727, 2.376, -0.6767578, 2.376, -0.0185547, , , , , , , , , , , , , , , , , , , , , , 
0.0919038, -0.002182, 2.3895, -0.5405273, 2.3895, -0.5244141, 2.3895, 0.1459961, 0.0919038, -0.0085603, 2.3895, 0.4780273, 2.3895, -0.5024414, 2.3895, 0.2089844, 0.0919038, -0.002182, 2.3895, 0.3300781, 2.3895, -0.5874023, 2.3895, -0.3984375, 0.0919038, 0.0424659, 2.3895, 0.2285156, 2.3895, -0.6235352, 2.3895, -0.0361328, , , , , , , , , , , , , , , , , , , , , , 
0.0924231, 0.0025177, 2.403, -0.625, 2.403, -0.5283203, 2.403, 0.1381836, 0.0924231, -0.0072175, 2.403, 0.7026367, 2.403, -0.4584961, 2.403, 0.2006836, 0.0924231, -0.0028534, 2.403, 0.3476562, 2.403, -0.5605469, 2.403, -0.3754883, 0.0924231, 0.0459907, 2.403, 0.2514648, 2.403, -0.6762695, 2.403, -0.0107422, , , , , , , , , , , , , , , , , , , , , , 
0.0929423, 0.0082246, 2.4165, -0.7270508, 2.4165, -0.4458008, 2.4165, 0.1328125, 0.0929423, -0.005539, 2.4165, 0.690918, 2.4165, -0.3759766, 2.4165, 0.2006836, 0.0929423, -0.0052033, 2.4165, 0.2519531, 2.4165, -0.6420898, 2.4165, -0.3535156, 0.0929423, 0.0464942, 2.4165, 0.3012695, 2.4165, -0.7675781, 2.4165, 0.0708008, , , , , , , , , , , , , , , , , , , , , , 
0.0934615, 0.0149386, 2.43, -0.6206055, 2.43, -0.3759766, 2.43, 0.0927734, 0.0934615, -0.0045319, 2.43, 0.5063477, 2.43, -0.3828125, 2.43, 0.2158203, 0.0934615, -0.0058747, 2.43, 0.1772461, 2.43, -0.7475586, 2.43, -0.3261719, 0.0934615, 0.0461585, 2.43, 0.2602539, 2.43, -0.7773438, 2.43, 0.0561523, , , , , , , , , , , , , , , , , , , , , , 
0.0939808, 0.0191348, 2.4435, -0.5170898, 2.4435, -0.3554688, 2.4435, 0.0327148, 0.0939808, -0.0041962, 2.4435, 0.4174805, 2.4435, -0.3725586, 2.4435, 0.2348633, 0.0939808, -0.0048676, 2.4435, 0.1435547, 2.4435, -0.8041992, 2.4435, -0.2729492, 0.0939808, 0.0428016, 2.4435, 0.1699219, 2.4435, -0.7373047, 2.4435, -0.0014648, , , , , , , , , , , , , , , , , , , , , , 
0.0945, 0.0209812, 2.457, -0.5913086, 2.457, -0.34375, 2.457, 0.0195312, 0.0945, -0.0041962, 2.457, 0.4057617, 2.457, -0.34375, 2.457, 0.3515625, 0.0945, -0.0035248, 2.457, 0.109375, 2.457, -0.815918, 2.457, -0.2705078, 0.0945, 0.0370947, 2.457, 0.1396484, 2.457, -0.7177734, 2.457, -0.0283203, , , , , , , , , , , , , , , , , , , , , , 
0.0950192, 0.0240024, 2.4705, -0.7226562, 2.4705, -0.3330078, 2.4705, 0.019043, 0.0950192, -0.0045319, 2.4705, 0.5991211, 2.4705, -0.2915039, 2.4705, 0.2329102, 0.0950192, -0.0035248, 2.4705, 0.0639648, 2.4705, -0.8046875, 2.4705, -0.3085938, 0.0950192, 0.03122, 2.4705, 0.1367188, 2.4705, -0.6782227, 2.4705, -0.0556641, , , , , , , , , , , , , , , , , , , , , , 
0.0955385, 0.0283665, 2.484, -0.6923828, 2.484, -0.3378906, 2.484, 0.0634766, 0.0955385, -0.005539, 2.484, 0.6582031, 2.484, -0.2475586, 2.484, 0.171875, 0.0955385, -0.0028534, 2.484, 0.0083008, 2.484, -0.7163086, 2.484, -0.3022461, 0.0955385, 0.0273594, 2.484, 0.1860352, 2.484, -0.6289062, 2.484, -0.0234375, , , , , , , , , , , , , , , , , , , , , , 
0.0960577, 0.0310521, 2.4975, -0.5444336, 2.4975, -0.3955078, 2.4975, 0.1220703, 0.0960577, -0.005539, 2.4975, 0.5761719, 2.4975, -0.3598633, 2.4975, 0.253418, 0.0960577, -0.0015106, 2.4975, 0.0751953, 2.4975, -0.6040039, 2.4975, -0.3046875, 0.0960577, 0.0246738, 2.4975, 0.2202148, 2.4975, -0.590332, 2.4975, 0.0371094, , , , , , , , , , , , , , , , , , , , , , 
0.0965769, 0.0325628, 2.511, -0.4692383, 2.511, -0.375, 2.511, 0.1665039, 0.0965769, -0.0062104, 2.511, 0.5869141, 2.511, -0.4570312, 2.511, 0.2275391, 0.0965769, -0.002182, 2.511, 0.2822266, 2.511, -0.5522461, 2.511, -0.2978516, 0.0965769, 0.0199741, 2.511, 0.1928711, 2.511, -0.6171875, 2.511, 0.0380859, , , , , , , , , , , , , , , , , , , , , , 
0.0970962, 0.0310521, 2.5245, -0.5771484, 2.5245, -0.2700195, 2.5245, 0.1118164, 0.0970962, -0.005539, 2.5245, 0.6396484, 2.5245, -0.3457031, 2.5245, 0.2509766, 0.0970962, -0.0048676, 2.5245, 0.3398438, 2.5245, -0.628418, 2.5245, -0.3017578, 0.0970962, 0.0172885, 2.5245, 0.1337891, 2.5245, -0.7207031, 2.5245, 0.0649414, , , , , , , , , , , , , , , , , , , , , , 
0.0976154, 0.0310521, 2.538, -0.796875, 2.538, -0.2739258, 2.538, 0.1030273, 0.0976154, -0.0043641, 2.538, 0.7246094, 2.538, -0.2539062, 2.538, 0.1567383, 0.0976154, -0.0065461, 2.538, 0.2285156, 2.538, -0.7514648, 2.538, -0.2739258, 0.0976154, 0.01561, 2.538, 0.1567383, 2.538, -0.7587891, 2.538, 0.0756836, , , , , , , , , , , , , , , , , , , , , , 
0.0981346, 0.0370947, 2.5515, -0.815918, 2.5515, -0.3300781, 2.5515, 0.2114258, 0.0981346, -0.0048676, 2.5515, 0.659668, 2.5515, -0.2524414, 2.5515, 0.1630859, 0.0981346, -0.0052033, 2.5515, 0.1640625, 2.5515, -0.8017578, 2.5515, -0.1977539, 0.0981346, 0.0102388, 2.5515, 0.1918945, 2.5515, -0.7255859, 2.5515, 0.0576172, , , , , , , , , , , , , , , , , , , , , , 
0.0986538, 0.0421302, 2.565, -0.6464844, 2.565, -0.2431641, 2.565, 0.2255859, 0.0986538, -0.005539, 2.565, 0.6264648, 2.565, -0.2802734, 2.565, 0.2441406, 0.0986538, -0.0043641, 2.565, 0.2006836, 2.565, -0.7963867, 2.565, -0.1748047, 0.0986538, 0.0072175, 2.565, 0.1333008, 2.565, -0.730957, 2.565, 0.1049805, , , , , , , , , , , , , , , , , , , , , , 
0.0991731, 0.0428016, 2.5785, -0.5932617, 2.5785, -0.1674805, 2.5785, 0.222168, 0.0991731, -0.0063783, 2.5785, 0.6762695, 2.5785, -0.3232422, 2.5785, 0.1713867, 0.0991731, -0.0041962, 2.5785, 0.3203125, 2.5785, -0.7666016, 2.5785, -0.184082, 0.0991731, 0.0058747, 2.5785, 0.0336914, 2.5785, -0.7431641, 2.5785, 0.1381836, , , , , , , , , , , , , , , , , , , , , , 
0.0996923, 0.0386053, 2.592, -0.5898438, 2.592, -0.128418, 2.592, 0.2807617, 0.0996923, -0.0068818, 2.592, 0.7895508, 2.592, -0.2988281, 2.592, 0.1035156, 0.0996923, -0.0015106, 2.592, 0.3505859, 2.592, -0.7421875, 2.592, -0.206543, 0.0996923, 0.0041962, 2.592, -0.0053711, 2.592, -0.7553711, 2.592, 0.1479492, , , , , , , , , , , , , , , , , , , , , , 
0.1002115, 0.0337377, 2.6055, -0.6699219, 2.6055, -0.2675781, 2.6055, 0.3125, 0.1002115, -0.0078889, 2.6055, 0.8154297, 2.6055, -0.2597656, 2.6055, 0.0302734, 0.1002115, -0.0008392, 2.6055, 0.3344727, 2.6055, -0.7050781, 2.6055, -0.2260742, 0.1002115, 0.0045319, 2.6055, 0.0126953, 2.6055, -0.7636719, 2.6055, 0.1455078, , , , , , , , , , , , , , , , , , , , , , 
0.1007308, 0.0288701, 2.619, -0.7177734, 2.619, -0.3735352, 2.619, 0.3476562, 0.1007308, -0.0075532, 2.619, 0.7290039, 2.619, -0.2431641, 2.619, 0.1083984, 0.1007308, -0.0008392, 2.619, 0.2836914, 2.619, -0.7202148, 2.619, -0.1845703, 0.1007308, 0.0058747, 2.619, 0.0620117, 2.619, -0.7954102, 2.619, 0.140625, , , , , , , , , , , , , , , , , , , , , , 
0.10125, 0.0243381, 2.6325, -0.7314453, 2.6325, -0.2680664, 2.6325, 0.3081055, 0.10125, -0.0072175, 2.6325, 0.7436523, 2.6325, -0.2797852, 2.6325, 0.2001953, 0.10125, -0.0008392, 2.6325, 0.269043, 2.6325, -0.7797852, 2.6325, -0.1381836, 0.10125, 0.0077211, 2.6325, 0.0317383, 2.6325, -0.8154297, 2.6325, 0.1484375, , , , , , , , , , , , , , , , , , , , , , 
0.1017692, 0.0219883, 2.646, -0.7250977, 2.646, -0.0991211, 2.646, 0.2490234, 0.1017692, -0.0075532, 2.646, 0.8168945, 2.646, -0.2607422, 2.646, 0.1508789, 0.1017692, -0.0015106, 2.646, 0.2666016, 2.646, -0.8515625, 2.646, -0.152832, 0.1017692, 0.008896, 2.646, -0.0478516, 2.646, -0.8276367, 2.646, 0.1601562, , , , , , , , , , , , , , , , , , , , , , 
0.1022885, 0.0219883, 2.6595, -0.7548828, 2.6595, -0.1606445, 2.6595, 0.2753906, 0.1022885, -0.0070497, 2.6595, 0.8276367, 2.6595, -0.3022461, 2.6595, 0.2045898, 0.1022885, -0.0036927, 2.6595, 0.2587891, 2.6595, -0.8583984, 2.6595, -0.2158203, 0.1022885, 0.0083925, 2.6595, -0.0390625, 2.6595, -0.828125, 2.6595, 0.1381836, , , , , , , , , , , , , , , , , , , , , , 
0.1028077, 0.0184634, 2.673, -0.8081055, 2.673, -0.3198242, 2.673, 0.3388672, 0.1028077, -0.0062104, 2.673, 0.8085938, 2.673, -0.3378906, 2.673, 0.1767578, 0.1028077, -0.0062104, 2.673, 0.2827148, 2.673, -0.7998047, 2.673, -0.1962891, 0.1028077, 0.0078889, 2.673, 0.050293, 2.673, -0.8461914, 2.673, 0.1113281, , , , , , , , , , , , , , , , , , , , , , 
0.1033269, 0.0137636, 2.6865, -0.7890625, 2.6865, -0.3383789, 2.6865, 0.3100586, 0.1033269, -0.0072175, 2.6865, 0.7983398, 2.6865, -0.3173828, 2.6865, 0.1621094, 0.1033269, -0.0078889, 2.6865, 0.3066406, 2.6865, -0.7744141, 2.6865, -0.1557617, 0.1033269, 0.0075532, 2.6865, 0.0664062, 2.6865, -0.8769531, 2.6865, 0.1459961, , , , , , , , , , , , , , , , , , , , , , 
0.1038462, 0.0132601, 2.7, -0.7890625, 2.7, -0.2446289, 2.7, 0.277832, 0.1038462, -0.0068818, 2.7, 0.7695312, 2.7, -0.2832031, 2.7, 0.234375, 0.1038462, -0.0085603, 2.7, 0.3208008, 2.7, -0.8046875, 2.7, -0.1577148, 0.1038462, 0.0011749, 2.7, -0.0102539, 2.7, -0.8515625, 2.7, 0.1396484, , , , , , , , , , , , , , , , , , , , , , 
0.1043654, 0.0157778, 2.7135, -0.8496094, 2.7135, -0.1508789, 2.7135, 0.2958984, 0.1043654, -0.0062104, 2.7135, 0.8271484, 2.7135, -0.253418, 2.7135, 0.2475586, 0.1043654, -0.008896, 2.7135, 0.3125, 2.7135, -0.8222656, 2.7135, -0.1635742, 0.1043654, -0.0072175, 2.7135, -0.0654297, 2.7135, -0.8354492, 2.7135, 0.1123047, , , , , , , , , , , , , , , , , , , , , , 
0.1048846, 0.01561, 2.727, -0.8417969, 2.727, -0.1079102, 2.727, 0.2294922, 0.1048846, -0.0082246, 2.727, 0.8198242, 2.727, -0.1679688, 2.727, 0.2250977, 0.1048846, -0.008896, 2.727, 0.2792969, 2.727, -0.8544922, 2.727, -0.1459961, 0.1048846, -0.0135958, 2.727, -0.059082, 2.727, -0.8579102, 2.727, 0.1142578, , , , , , , , , , , , , , , , , , , , , , 
0.1054038, 0.01561, 2.7405, -0.8198242, 2.7405, -0.1201172, 2.7405, 0.2348633, 0.1054038, -0.0095674, 2.7405, 0.8310547, 2.7405, -0.1088867, 2.7405, 0.2548828, 0.1054038, -0.0095674, 2.7405, 0.2167969, 2.7405, -0.8774414, 2.7405, -0.1396484, 0.1054038, -0.0193027, 2.7405, -0.0585938, 2.7405, -0.8666992, 2.7405, 0.1186523, , , , , , , , , , , , , , , , , , , , , , 
0.1059231, 0.0124208, 2.754, -0.7822266, 2.754, -0.1689453, 2.754, 0.2792969, 0.1059231, -0.0092317, 2.754, 0.8754883, 2.754, -0.144043, 2.754, 0.2729492, 0.1059231, -0.0115816, 2.754, 0.2060547, 2.754, -0.8867188, 2.754, -0.1157227, 0.1059231, -0.0231632, 2.754, -0.0839844, 2.754, -0.8623047, 2.754, 0.0834961, , , , , , , , , , , , , , , , , , , , , , 
0.1064423, 0.0072175, 2.7675, -0.7973633, 2.7675, -0.1435547, 2.7675, 0.2490234, 0.1064423, -0.008896, 2.7675, 0.8950195, 2.7675, -0.1899414, 2.7675, 0.3041992, 0.1064423, -0.0119173, 2.7675, 0.2416992, 2.7675, -0.887207, 2.7675, -0.0932617, 0.1064423, -0.0229953, 2.7675, -0.0961914, 2.7675, -0.871582, 2.7675, 0.0791016, , , , , , , , , , , , , , , , , , , , , , 
0.1069615, 0.0045319, 2.781, -0.8637695, 2.781, -0.1000977, 2.781, 0.2138672, 0.1069615, -0.008896, 2.781, 0.8334961, 2.781, -0.137207, 2.781, 0.2148438, 0.1069615, -0.0115816, 2.781, 0.2519531, 2.781, -0.9018555, 2.781, -0.0825195, 0.1069615, -0.0203098, 2.781, -0.1171875, 2.781, -0.8994141, 2.781, 0.1035156, , , , , , , , , , , , , , , , , , , , , , 
0.1074808, 0.0018463, 2.7945, -0.8461914, 2.7945, -0.0683594, 2.7945, 0.2119141, 0.1074808, -0.008896, 2.7945, 0.7080078, 2.7945, -0.0332031, 2.7945, 0.2807617, 0.1074808, -0.0115816, 2.7945, 0.2412109, 2.7945, -0.8925781, 2.7945, -0.0742188, 0.1074808, -0.0179599, 2.7945, -0.1103516, 2.7945, -0.8720703, 2.7945, 0.1049805, , , , , , , , , , , , , , , , , , , , , , 
0.108, -0.0035248, 2.808, -0.8046875, 2.808, -0.0512695, 2.808, 0.2666016, 0.108, -0.0095674, 2.808, 0.7519531, 2.808, -0.0200195, 2.808, 0.2895508, 0.108, -0.0095674, 2.808, 0.2421875, 2.808, -0.8383789, 2.808, -0.0800781, 0.108, -0.0142672, 2.808, -0.1005859, 2.808, -0.815918, 2.808, 0.1088867, , , , , , , , , , , , , , , , , , , , , , 
0.1085192, -0.0043641, 2.8215, -0.7480469, 2.8215, -0.0595703, 2.8215, 0.2988281, 0.1085192, -0.0085603, 2.8215, 0.8291016, 2.8215, -0.0439453, 2.8215, 0.2084961, 0.1085192, -0.0075532, 2.8215, 0.2905273, 2.8215, -0.8046875, 2.8215, -0.0668945, 0.1085192, -0.0068818, 2.8215, -0.1289062, 2.8215, -0.8139648, 2.8215, 0.1118164, , , , , , , , , , , , , , , , , , , , , , 
0.1090385, 0.0001678, 2.835, -0.7592773, 2.835, -0.0483398, 2.835, 0.2675781, 0.1090385, -0.0068818, 2.835, 0.8974609, 2.835, -0.097168, 2.835, 0.2807617, 0.1090385, -0.0048676, 2.835, 0.3017578, 2.835, -0.831543, 2.835, -0.0341797, 0.1090385, 0.0003357, 2.835, -0.1743164, 2.835, -0.8588867, 2.835, 0.1230469, , , , , , , , , , , , , , , , , , , , , , 
0.1095577, 0.0031891, 2.8485, -0.7866211, 2.8485, 0.0102539, 2.8485, 0.237793, 0.1095577, -0.0052033, 2.8485, 0.8901367, 2.8485, -0.0541992, 2.8485, 0.2241211, 0.1095577, -0.0045319, 2.8485, 0.2797852, 2.8485, -0.8618164, 2.8485, -0.0239258, 0.1095577, 0.0057069, 2.8485, -0.2133789, 2.8485, -0.8984375, 2.8485, 0.1459961, , , , , , , , , , , , , , , , , , , , , , 
0.1100769, 0.0018463, 2.862, -0.8100586, 2.862, -0.0092773, 2.862, 0.2973633, 0.1100769, -0.0068818, 2.862, 0.8427734, 2.862, 0.0043945, 2.862, 0.2241211, 0.1100769, -0.0052033, 2.862, 0.2553711, 2.862, -0.9160156, 2.862, -0.0302734, 0.1100769, 0.0119173, 2.862, -0.2314453, 2.862, -0.8955078, 2.862, 0.1396484, , , , , , , , , , , , , , , , , , , , , , 
0.1105962, 0.0018463, 2.8755, -0.8222656, 2.8755, -0.0429688, 2.8755, 0.2895508, 0.1105962, -0.0095674, 2.8755, 0.8183594, 2.8755, -0.0170898, 2.8755, 0.2138672, 0.1105962, -0.0058747, 2.8755, 0.2392578, 2.8755, -0.9169922, 2.8755, -0.0112305, 0.1105962, 0.0213169, 2.8755, -0.2192383, 2.8755, -0.8686523, 2.8755, 0.1333008, , , , , , , , , , , , , , , , , , , , , , 
0.1111154, 0.0062104, 2.889, -0.8237305, 2.889, 0.0009766, 2.889, 0.2797852, 0.1111154, -0.0082246, 2.889, 0.8051758, 2.889, -0.0258789, 2.889, 0.2558594, 0.1111154, -0.0041962, 2.889, 0.2685547, 2.889, -0.8876953, 2.889, 0.0063477, 0.1111154, 0.03122, 2.889, -0.2246094, 2.889, -0.8623047, 2.889, 0.152832, , , , , , , , , , , , , , , , , , , , , , 
0.1116346, 0.0083925, 2.9025, -0.8203125, 2.9025, 0.034668, 2.9025, 0.2734375, 0.1116346, -0.005539, 2.9025, 0.8583984, 2.9025, 0.0014648, 2.9025, 0.2504883, 0.1116346, -0.0015106, 2.9025, 0.3051758, 2.9025, -0.8696289, 2.9025, 0.0083008, 0.1116346, 0.0377661, 2.9025, -0.2651367, 2.9025, -0.8652344, 2.9025, 0.1640625, , , , , , , , , , , , , , , , , , , , , , 
0.1121538, 0.0072175, 2.916, -0.7783203, 2.916, 0.0732422, 2.916, 0.2729492, 0.1121538, -0.0038605, 2.916, 0.8393555, 2.916, 0.0463867, 2.916, 0.2167969, 0.1121538, -0.002182, 2.916, 0.2871094, 2.916, -0.8691406, 2.916, -0.0053711, 0.1121538, 0.0412909, 2.916, -0.2836914, 2.916, -0.8720703, 2.916, 0.1621094, , , , , , , , , , , , , , , , , , , , , , 
0.1126731, 0.0075532, 2.9295, -0.7348633, 2.9295, 0.0664062, 2.9295, 0.3115234, 0.1126731, -0.005539, 2.9295, 0.847168, 2.9295, 0.0620117, 2.9295, 0.2666016, 0.1126731, -0.0043641, 2.9295, 0.2587891, 2.9295, -0.8798828, 2.9295, 0.0092773, 0.1126731, 0.0461585, 2.9295, -0.2875977, 2.9295, -0.875, 2.9295, 0.1577148, , , , , , , , , , , , , , , , , , , , , , 
0.1131923, 0.0097353, 2.943, -0.7641602, 2.943, 0.0473633, 2.943, 0.3061523, 0.1131923, -0.0068818, 2.943, 0.8828125, 2.943, 0.0517578, 2.943, 0.2207031, 0.1131923, -0.0048676, 2.943, 0.2734375, 2.943, -0.8891602, 2.943, 0.0380859, 0.1131923, 0.0495155, 2.943, -0.2724609, 2.943, -0.8745117, 2.943, 0.1489258, , , , , , , , , , , , , , , , , , , , , , 
0.1137115, 0.012253, 2.9565, -0.828125, 2.9565, 0.0683594, 2.9565, 0.2807617, 0.1137115, -0.0068818, 2.9565, 0.8789062, 2.9565, 0.0317383, 2.9565, 0.2119141, 0.1137115, -0.0036927, 2.9565, 0.2856445, 2.9565, -0.9072266, 2.9565, 0.0566406, 0.1137115, 0.0495155, 2.9565, -0.2758789, 2.9565, -0.8833008, 2.9565, 0.1508789, , , , , , , , , , , , , , , , , , , , , , 
0.1142308, 0.0139315, 2.97, -0.8203125, 2.97, 0.078125, 2.97, 0.3041992, 0.1142308, -0.0072175, 2.97, 0.8251953, 2.97, 0.0488281, 2.97, 0.2124023, 0.1142308, -0.002182, 2.97, 0.2915039, 2.97, -0.9116211, 2.97, 0.0498047, 0.1142308, 0.0451514, 2.97, -0.2983398, 2.97, -0.8945312, 2.97, 0.1679688, , , , , , , , , , , , , , , , , , , , , , 
0.11475, 0.0172885, 2.9835, -0.7817383, 2.9835, 0.0859375, 2.9835, 0.3081055, 0.11475, -0.0062104, 2.9835, 0.7954102, 2.9835, 0.0561523, 2.9835, 0.2358398, 0.11475, -0.0028534, 2.9835, 0.3066406, 2.9835, -0.8974609, 2.9835, 0.0458984, 0.11475, 0.0381018, 2.9835, -0.3022461, 2.9835, -0.8862305, 2.9835, 0.1782227, , , , , , , , , , , , , , , , , , , , , , 
0.1152692, 0.0193027, 2.997, -0.7558594, 2.997, 0.1010742, 2.997, 0.3007812, 0.1152692, -0.0058747, 2.997, 0.8491211, 2.997, 0.0678711, 2.997, 0.2246094, 0.1152692, -0.0025177, 2.997, 0.3305664, 2.997, -0.8701172, 2.997, 0.0400391, 0.1152692, 0.030045, 2.997, -0.2954102, 2.997, -0.8774414, 2.997, 0.1748047, , , , , , , , , , , , , , , , , , , , , , 
0.1157885, 0.0198062, 3.0105, -0.7729492, 3.0105, 0.0961914, 3.0105, 0.2915039, 0.1157885, -0.0075532, 3.0105, 0.871582, 3.0105, 0.0600586, 3.0105, 0.2036133, 0.1157885, -0.0035248, 3.0105, 0.3149414, 3.0105, -0.8637695, 3.0105, 0.0488281, 0.1157885, 0.0240024, 3.0105, -0.3007812, 3.0105, -0.8735352, 3.0105, 0.1547852, , , , , , , , , , , , , , , , , , , , , , 
0.1163077, 0.01561, 3.024, -0.7763672, 3.024, 0.1020508, 3.024, 0.2939453, 0.1163077, -0.0095674, 3.024, 0.8476562, 3.024, 0.1049805, 3.024, 0.2260742, 0.1163077, -0.0058747, 3.024, 0.2910156, 3.024, -0.8789062, 3.024, 0.081543, 0.1163077, 0.0199741, 3.024, -0.331543, 3.024, -0.8598633, 3.024, 0.140625, , , , , , , , , , , , , , , , , , , , , , 
0.1168269, 0.0125887, 3.0375, -0.7607422, 3.0375, 0.1298828, 3.0375, 0.3193359, 0.1168269, -0.0115816, 3.0375, 0.8422852, 3.0375, 0.1416016, 3.0375, 0.2182617, 0.1168269, -0.0102388, 3.0375, 0.2329102, 3.0375, -0.8876953, 3.0375, 0.0854492, 0.1168269, 0.0176242, 3.0375, -0.3642578, 3.0375, -0.8496094, 3.0375, 0.1464844, , , , , , , , , , , , , , , , , , , , , , 
0.1173462, 0.0132601, 3.051, -0.7412109, 3.051, 0.1791992, 3.051, 0.3496094, 0.1173462, -0.0115816, 3.051, 0.8393555, 3.051, 0.159668, 3.051, 0.2055664, 0.1173462, -0.0132601, 3.051, 0.230957, 3.051, -0.8725586, 3.051, 0.1303711, 0.1173462, 0.0159457, 3.051, -0.3686523, 3.051, -0.8452148, 3.051, 0.1020508, , , , , , , , , , , , , , , , , , , , , , 
0.1178654, 0.0146029, 3.0645, -0.6816406, 3.0645, 0.2587891, 3.0645, 0.3378906, 0.1178654, -0.0115816, 3.0645, 0.8222656, 3.0645, 0.2363281, 3.0645, 0.1733398, 0.1178654, -0.0115816, 3.0645, 0.2456055, 3.0645, -0.8920898, 3.0645, 0.1279297, 0.1178654, 0.0142672, 3.0645, -0.3764648, 3.0645, -0.8525391, 3.0645, 0.105957, , , , , , , , , , , , , , , , , , , , , , 
0.1183846, 0.0137636, 3.078, -0.6645508, 3.078, 0.2626953, 3.078, 0.3276367, 0.1183846, -0.0112459, 3.078, 0.8325195, 3.078, 0.2382812, 3.078, 0.2050781, 0.1183846, -0.0095674, 3.078, 0.2758789, 3.078, -0.9013672, 3.078, 0.1064453, 0.1183846, 0.0125887, 3.078, -0.3979492, 3.078, -0.8735352, 3.078, 0.1489258, , , , , , , , , , , , , , , , , , , , , , 
0.1189038, 0.0129244, 3.0915, -0.7475586, 3.0915, 0.1650391, 3.0915, 0.3696289, 0.1189038, -0.0095674, 3.0915, 0.8813477, 3.0915, 0.1264648, 3.0915, 0.1503906, 0.1189038, -0.0083925, 3.0915, 0.3276367, 3.0915, -0.8950195, 3.0915, 0.1557617, 0.1189038, 0.0112459, 3.0915, -0.387207, 3.0915, -0.8896484, 3.0915, 0.128418, , , , , , , , , , , , , , , , , , , , , , 
0.1194231, 0.0129244, 3.105, -0.8139648, 3.105, 0.1376953, 3.105, 0.3710938, 0.1194231, -0.0085603, 3.105, 0.8969727, 3.105, 0.1376953, 3.105, 0.1958008, 0.1194231, -0.0095674, 3.105, 0.3486328, 3.105, -0.8999023, 3.105, 0.1743164, 0.1194231, 0.0119173, 3.105, -0.3647461, 3.105, -0.90625, 3.105, 0.140625, , , , , , , , , , , , , , , , , , , , , , 
0.1199423, 0.0132601, 3.1185, -0.7709961, 3.1185, 0.1987305, 3.1185, 0.3657227, 0.1199423, -0.0085603, 3.1185, 0.9057617, 3.1185, 0.1977539, 3.1185, 0.1206055, 0.1199423, -0.0102388, 3.1185, 0.3364258, 3.1185, -0.9262695, 3.1185, 0.1499023, 0.1199423, 0.0119173, 3.1185, -0.4052734, 3.1185, -0.9135742, 3.1185, 0.175293, , , , , , , , , , , , , , , , , , , , , , 
0.1204615, 0.0139315, 3.132, -0.7041016, 3.132, 0.2163086, 3.132, 0.3911133, 0.1204615, -0.0085603, 3.132, 0.8081055, 3.132, 0.2231445, 3.132, 0.1464844, 0.1204615, -0.0102388, 3.132, 0.2924805, 3.132, -0.9306641, 3.132, 0.1542969, 0.1204615, 0.0115816, 3.132, -0.440918, 3.132, -0.9023438, 3.132, 0.1606445, , , , , , , , , , , , , , , , , , , , , , 
0.1209808, 0.014435, 3.1455, -0.7265625, 3.1455, 0.2255859, 3.1455, 0.4150391, 0.1209808, -0.0075532, 3.1455, 0.8637695, 3.1455, 0.2182617, 3.1455, 0.1499023, 0.1209808, -0.0102388, 3.1455, 0.2929688, 3.1455, -0.925293, 3.1455, 0.1645508, 0.1209808, 0.0092317, 3.1455, -0.4560547, 3.1455, -0.9116211, 3.1455, 0.1689453, , , , , , , , , , , , , , , , , , , , , , 
0.1215, 0.0159457, 3.159, -0.7792969, 3.159, 0.2392578, 3.159, 0.4023438, 0.1215, -0.0053712, 3.159, 0.8969727, 3.159, 0.230957, 3.159, 0.1616211, 0.1215, -0.0104067, 3.159, 0.2915039, 3.159, -0.9458008, 3.159, 0.1845703, 0.1215, 0.0090639, 3.159, -0.4780273, 3.159, -0.9106445, 3.159, 0.1699219, , , , , , , , , , , , , , , , , , , , , , 
0.1220192, 0.0198062, 3.1725, -0.7900391, 3.1725, 0.2294922, 3.1725, 0.3945312, 0.1220192, -0.005539, 3.1725, 0.9223633, 3.1725, 0.2260742, 3.1725, 0.1708984, 0.1220192, -0.010071, 3.1725, 0.277832, 3.1725, -0.9487305, 3.1725, 0.2045898, 0.1220192, 0.0099031, 3.1725, -0.4736328, 3.1725, -0.8696289, 3.1725, 0.144043, , , , , , , , , , , , , , , , , , , , , , 
0.1225385, 0.0206455, 3.186, -0.7583008, 3.186, 0.2431641, 3.186, 0.3945312, 0.1225385, -0.0072175, 3.186, 0.9267578, 3.186, 0.2275391, 3.186, 0.1582031, 0.1225385, -0.008896, 3.186, 0.2700195, 3.186, -0.9082031, 3.186, 0.1938477, 0.1225385, 0.0115816, 3.186, -0.46875, 3.186, -0.8505859, 3.186, 0.1323242, , , , , , , , , , , , , , , , , , , , , , 
0.1230577, 0.0179599, 3.1995, -0.7436523, 3.1995, 0.2592773, 3.1995, 0.3969727, 0.1230577, -0.0082246, 3.1995, 0.8828125, 3.1995, 0.2529297, 3.1995, 0.1699219, 0.1230577, -0.0082246, 3.1995, 0.2426758, 3.1995, -0.8867188, 3.1995, 0.1992188, 0.1230577, 0.0129244, 3.1995, -0.4648438, 3.1995, -0.8613281, 3.1995, 0.1333008, , , , , , , , , , , , , , , , , , , , , , 
0.1235769, 0.0157778, 3.213, -0.7641602, 3.213, 0.2573242, 3.213, 0.3935547, 0.1235769, -0.008896, 3.213, 0.8574219, 3.213, 0.2773438, 3.213, 0.2006836, 0.1235769, -0.0083925, 3.213, 0.2641602, 3.213, -0.890625, 3.213, 0.2124023, 0.1235769, 0.0092317, 3.213, -0.4599609, 3.213, -0.8632812, 3.213, 0.1293945, , , , , , , , , , , , , , , , , , , , , , 
0.1240962, 0.0162814, 3.2265, -0.7983398, 3.2265, 0.2539062, 3.2265, 0.3613281, 0.1240962, -0.008896, 3.2265, 0.9052734, 3.2265, 0.2719727, 3.2265, 0.2304688, 0.1240962, -0.0097353, 3.2265, 0.2685547, 3.2265, -0.8959961, 3.2265, 0.2075195, 0.1240962, 0.0016785, 3.2265, -0.4506836, 3.2265, -0.8520508, 3.2265, 0.1049805, , , , , , , , , , , , , , , , , , , , , , 
0.1246154, 0.0186313, 3.24, -0.8051758, 3.24, 0.2617188, 3.24, 0.3481445, 0.1246154, -0.0068818, 3.24, 0.9311523, 3.24, 0.2636719, 3.24, 0.2387695, 0.1246154, -0.0119173, 3.24, 0.2519531, 3.24, -0.9101562, 3.24, 0.1962891, 0.1246154, -0.0082246, 3.24, -0.4448242, 3.24, -0.8330078, 3.24, 0.0878906, , , , , , , , , , , , , , , , , , , , , , 
0.1251346, 0.0216526, 3.2535, -0.7963867, 3.2535, 0.2919922, 3.2535, 0.3554688, 0.1251346, -0.005539, 3.2535, 0.8989258, 3.2535, 0.2929688, 3.2535, 0.2177734, 0.1251346, -0.0129244, 3.2535, 0.2231445, 3.2535, -0.9248047, 3.2535, 0.2167969, 0.1251346, -0.0151064, 3.2535, -0.4438477, 3.2535, -0.8417969, 3.2535, 0.0927734, , , , , , , , , , , , , , , , , , , , , , 
0.1256538, 0.0208133, 3.267, -0.777832, 3.267, 0.296875, 3.267, 0.3901367, 0.1256538, -0.0072175, 3.267, 0.8696289, 3.267, 0.3178711, 3.267, 0.1772461, 0.1256538, -0.0132601, 3.267, 0.2197266, 3.267, -0.9379883, 3.267, 0.2084961, 0.1256538, -0.0179599, 3.267, -0.4589844, 3.267, -0.8652344, 3.267, 0.0986328, , , , , , , , , , , , , , , , , , , , , , 
0.1261731, 0.01561, 3.2805, -0.7626953, 3.2805, 0.262207, 3.2805, 0.3955078, 0.1261731, -0.0082246, 3.2805, 0.9248047, 3.2805, 0.2832031, 3.2805, 0.2407227, 0.1261731, -0.01561, 3.2805, 0.253418, 3.2805, -0.9404297, 3.2805, 0.2099609, 0.1261731, -0.0176242, 3.2805, -0.4560547, 3.2805, -0.8701172, 3.2805, 0.0976562, , , , , , , , , , , , , , , , , , , , , , 
0.1266923, 0.0085603, 3.294, -0.8071289, 3.294, 0.2568359, 3.294, 0.3867188, 0.1266923, -0.0075532, 3.294, 0.9614258, 3.294, 0.253418, 3.294, 0.2260742, 0.1266923, -0.0162814, 3.294, 0.2841797, 3.294, -0.9345703, 3.294, 0.2001953, 0.1266923, -0.0142672, 3.294, -0.4487305, 3.294, -0.8852539, 3.294, 0.1269531, , , , , , , , , , , , , , , , , , , , , , 
0.1272115, 0.0048676, 3.3075, -0.8349609, 3.3075, 0.2729492, 3.3075, 0.3706055, 0.1272115, -0.0068818, 3.3075, 0.9335938, 3.3075, 0.2260742, 3.3075, 0.2011719, 0.1272115, -0.0152743, 3.3075, 0.3037109, 3.3075, -0.9453125, 3.3075, 0.1933594, 0.1272115, -0.0109102, 3.3075, -0.449707, 3.3075, -0.9121094, 3.3075, 0.1450195, , , , , , , , , , , , , , , , , , , , , , 
0.1277308, 0.0058747, 3.321, -0.8168945, 3.321, 0.2426758, 3.321, 0.4077148, 0.1277308, -0.0065461, 3.321, 0.9179688, 3.321, 0.222168, 3.321, 0.2099609, 0.1277308, -0.0129244, 3.321, 0.309082, 3.321, -0.9521484, 3.321, 0.2021484, 0.1277308, -0.0062104, 3.321, -0.4467773, 3.321, -0.9125977, 3.321, 0.1499023, , , , , , , , , , , , , , , , , , , , , , 
0.12825, 0.0062104, 3.3345, -0.7890625, 3.3345, 0.2314453, 3.3345, 0.4233398, 0.12825, -0.0065461, 3.3345, 0.8974609, 3.3345, 0.2392578, 3.3345, 0.1572266, 0.12825, -0.0092317, 3.3345, 0.2988281, 3.3345, -0.9414062, 3.3345, 0.1943359, 0.12825, 0.0005035, 3.3345, -0.4555664, 3.3345, -0.8964844, 3.3345, 0.1621094, , , , , , , , , , , , , , , , , , , , , , 
0.1287692, 0.0048676, 3.348, -0.7973633, 3.348, 0.2353516, 3.348, 0.4326172, 0.1287692, -0.0082246, 3.348, 0.9179688, 3.348, 0.2363281, 3.348, 0.1757812, 0.1287692, -0.0078889, 3.348, 0.2788086, 3.348, -0.9311523, 3.348, 0.199707, 0.1287692, 0.0075532, 3.348, -0.472168, 3.348, -0.8833008, 3.348, 0.1577148, , , , , , , , , , , , , , , , , , , , , , 
0.1292885, 0.0068818, 3.3615, -0.7924805, 3.3615, 0.2451172, 3.3615, 0.4091797, 0.1292885, -0.0082246, 3.3615, 0.9345703, 3.3615, 0.2324219, 3.3615, 0.159668, 0.1292885, -0.0095674, 3.3615, 0.284668, 3.3615, -0.9282227, 3.3615, 0.2104492, 0.1292885, 0.0112459, 3.3615, -0.4804688, 3.3615, -0.8798828, 3.3615, 0.1499023, , , , , , , , , , , , , , , , , , , , , , 
0.1298077, 0.0025177, 3.375, -0.7739258, 3.375, 0.2583008, 3.375, 0.4038086, 0.1298077, -0.0085603, 3.375, 0.9443359, 3.375, 0.2304688, 3.375, 0.1757812, 0.1298077, -0.0109102, 3.375, 0.3027344, 3.375, -0.9287109, 3.375, 0.2158203, 0.1298077, 0.0166171, 3.375, -0.4799805, 3.375, -0.8798828, 3.375, 0.1494141, , , , , , , , , , , , , , , , , , , , , , 
0.1303269, -0.0008392, 3.3885, -0.7661133, 3.3885, 0.2509766, 3.3885, 0.421875, 0.1303269, -0.0090639, 3.3885, 0.9042969, 3.3885, 0.2480469, 3.3885, 0.1782227, 0.1303269, -0.0104067, 3.3885, 0.2866211, 3.3885, -0.9311523, 3.3885, 0.2045898, 0.1303269, 0.0234989, 3.3885, -0.4824219, 3.3885, -0.8862305, 3.3885, 0.1513672, , , , , , , , , , , , , , , , , , , , , , 
0.1308462, -0.0025177, 3.402, -0.7910156, 3.402, 0.2387695, 3.402, 0.4194336, 0.1308462, -0.0095674, 3.402, 0.9003906, 3.402, 0.253418, 3.402, 0.1796875, 0.1308462, -0.008896, 3.402, 0.2666016, 3.402, -0.9384766, 3.402, 0.2011719, 0.1308462, 0.0302129, 3.402, -0.4702148, 3.402, -0.887207, 3.402, 0.1430664, , , , , , , , , , , , , , , , , , , , , , 
0.1313654, -0.0036927, 3.4155, -0.8046875, 3.4155, 0.2368164, 3.4155, 0.4121094, 0.1313654, -0.0095674, 3.4155, 0.934082, 3.4155, 0.253418, 3.4155, 0.1948242, 0.1313654, -0.0068818, 3.4155, 0.2719727, 3.4155, -0.9365234, 3.4155, 0.2006836, 0.1313654, 0.0381018, 3.4155, -0.4438477, 3.4155, -0.8828125, 3.4155, 0.1171875, , , , , , , , , , , , , , , , , , , , , , 
0.1318846, -0.0028534, 3.429, -0.815918, 3.429, 0.2504883, 3.429, 0.40625, 0.1318846, -0.0092317, 3.429, 0.9492188, 3.429, 0.2573242, 3.429, 0.1958008, 0.1318846, -0.0041962, 3.429, 0.2851562, 3.429, -0.9467773, 3.429, 0.2060547, 0.1318846, 0.0431373, 3.429, -0.4355469, 3.429, -0.887207, 3.429, 0.1157227, , , , , , , , , , , , , , , , , , , , , , 
0.1324038, 0.0035248, 3.4425, -0.7880859, 3.4425, 0.2563477, 3.4425, 0.3979492, 0.1324038, -0.0085603, 3.4425, 0.9384766, 3.4425, 0.2626953, 3.4425, 0.1972656, 0.1324038, -0.0020142, 3.4425, 0.2783203, 3.4425, -0.9541016, 3.4425, 0.1992188, 0.1324038, 0.043473, 3.4425, -0.4462891, 3.4425, -0.8916016, 3.4425, 0.1220703, , , , , , , , , , , , , , , , , , , , , , 
0.1329231, 0.0048676, 3.456, -0.7807617, 3.456, 0.2578125, 3.456, 0.4057617, 0.1329231, -0.0082246, 3.456, 0.921875, 3.456, 0.2602539, 3.456, 0.1987305, 0.1329231, -0.0001678, 3.456, 0.2744141, 3.456, -0.9482422, 3.456, 0.1967773, 0.1329231, 0.0461585, 3.456, -0.4384766, 3.456, -0.8803711, 3.456, 0.121582, , , , , , , , , , , , , , , , , , , , , , 
0.1334423, 0.0043641, 3.4695, -0.7915039, 3.4695, 0.2524414, 3.4695, 0.4169922, 0.1334423, -0.0058747, 3.4695, 0.9365234, 3.4695, 0.2573242, 3.4695, 0.1899414, 0.1334423, -0.0008392, 3.4695, 0.2670898, 3.4695, -0.9345703, 3.4695, 0.1982422, 0.1334423, 0.0471656, 3.4695, -0.4331055, 3.4695, -0.8745117, 3.4695, 0.1274414, , , , , , , , , , , , , , , , , , , , , , 
0.1339615, 0.0072175, 3.483, -0.7983398, 3.483, 0.2456055, 3.483, 0.40625, 0.1339615, -0.005539, 3.483, 0.9189453, 3.483, 0.2539062, 3.483, 0.1904297, 0.1339615, -0.0023499, 3.483, 0.2856445, 3.483, -0.925293, 3.483, 0.2001953, 0.1339615, 0.0426337, 3.483, -0.4453125, 3.483, -0.8696289, 3.483, 0.1381836, , , , , , , , , , , , , , , , , , , , , , 
0.1344808, 0.0095674, 3.4965, -0.7963867, 3.4965, 0.2480469, 3.4965, 0.4042969, 0.1344808, -0.0062104, 3.4965, 0.9238281, 3.4965, 0.2543945, 3.4965, 0.2050781, 0.1344808, -0.0035248, 3.4965, 0.2890625, 3.4965, -0.9248047, 3.4965, 0.1992188, 0.1344808, 0.0360876, 3.4965, -0.4541016, 3.4965, -0.8632812, 3.4965, 0.1328125, , , , , , , , , , , , , , , , , , , , , , 
0.135, 0.0127565, 3.51, -0.7890625, 3.51, 0.2558594, 3.51, 0.4057617, 0.135, -0.0068818, 3.51, 0.934082, 3.51, 0.2587891, 3.51, 0.1860352, 0.135, -0.0048676, 3.51, 0.2792969, 3.51, -0.9291992, 3.51, 0.1948242, 0.135, 0.0280308, 3.51, -0.4555664, 3.51, -0.8618164, 3.51, 0.1313477, , , , , , , , , , , , , , , , , , , , , , 
0.1355192, 0.0172885, 3.5235, -0.7832031, 3.5235, 0.2456055, 3.5235, 0.4155273, 0.1355192, -0.0062104, 3.5235, 0.9169922, 3.5235, 0.2519531, 3.5235, 0.1821289, 0.1355192, -0.0063783, 3.5235, 0.2661133, 3.5235, -0.9335938, 3.5235, 0.1894531, 0.1355192, 0.0179599, 3.5235, -0.4453125, 3.5235, -0.8666992, 3.5235, 0.1313477, , , , , , , , , , , , , , , , , , , , , , 
0.1360385, 0.0199741, 3.537, -0.7954102, 3.537, 0.2231445, 3.537, 0.4160156, 0.1360385, -0.0050355, 3.537, 0.921875, 3.537, 0.2255859, 3.537, 0.2119141, 0.1360385, -0.0065461, 3.537, 0.28125, 3.537, -0.9296875, 3.537, 0.1879883, 0.1360385, 0.0112459, 3.537, -0.4404297, 3.537, -0.8740234, 3.537, 0.1328125, , , , , , , , , , , , , , , , , , , , , , 
0.1365577, 0.0206455, 3.5505, -0.8149414, 3.5505, 0.2231445, 3.5505, 0.3979492, 0.1365577, -0.0036927, 3.5505, 0.9375, 3.5505, 0.2207031, 3.5505, 0.2124023, 0.1365577, -0.0062104, 3.5505, 0.2983398, 3.5505, -0.9375, 3.5505, 0.1845703, 0.1365577, 0.0092317, 3.5505, -0.4345703, 3.5505, -0.8920898, 3.5505, 0.1362305, , , , , , , , , , , , , , , , , , , , , , 
0.1370769, 0.0226596, 3.564, -0.8203125, 3.564, 0.237793, 3.564, 0.394043, 0.1370769, -0.0048676, 3.564, 0.949707, 3.564, 0.2319336, 3.564, 0.2075195, 0.1370769, -0.0046998, 3.564, 0.2910156, 3.564, -0.9555664, 3.564, 0.184082, 0.1370769, 0.0095674, 3.564, -0.4282227, 3.564, -0.8994141, 3.564, 0.1362305, , , , , , , , , , , , , , , , , , , , , , 
0.1375962, 0.0271916, 3.5775, -0.8100586, 3.5775, 0.2382812, 3.5775, 0.4111328, 0.1375962, -0.0062104, 3.5775, 0.925293, 3.5775, 0.237793, 3.5775, 0.2089844, 0.1375962, -0.0057069, 3.5775, 0.2763672, 3.5775, -0.9462891, 3.5775, 0.1748047, 0.1375962, 0.0109102, 3.5775, -0.421875, 3.5775, -0.8857422, 3.5775, 0.1264648, , , , , , , , , , , , , , , , , , , , , , 
0.1381154, 0.0303807, 3.591, -0.8037109, 3.591, 0.2241211, 3.591, 0.4262695, 0.1381154, -0.0041962, 3.591, 0.9389648, 3.591, 0.2285156, 3.591, 0.2001953, 0.1381154, -0.0075532, 3.591, 0.2739258, 3.591, -0.9335938, 3.591, 0.1850586, 0.1381154, 0.0109102, 3.591, -0.4296875, 3.591, -0.8803711, 3.591, 0.128418, , , , , , , , , , , , , , , , , , , , , , 
0.1386346, 0.0303807, 3.6045, -0.8081055, 3.6045, 0.2202148, 3.6045, 0.3994141, 0.1386346, -0.0028534, 3.6045, 0.9448242, 3.6045, 0.2207031, 3.6045, 0.2089844, 0.1386346, -0.0075532, 3.6045, 0.2851562, 3.6045, -0.9423828, 3.6045, 0.1894531, 0.1386346, 0.0107424, 3.6045, -0.4501953, 3.6045, -0.8916016, 3.6045, 0.1352539, , , , , , , , , , , , , , , , , , , , , , 
0.1391538, 0.0280308, 3.618, -0.8173828, 3.618, 0.2299805, 3.618, 0.4101562, 0.1391538, -0.0038605, 3.618, 0.9404297, 3.618, 0.230957, 3.618, 0.2075195, 0.1391538, -0.0082246, 3.618, 0.2768555, 3.618, -0.9487305, 3.618, 0.1879883, 0.1391538, 0.0099031, 3.618, -0.4501953, 3.618, -0.8969727, 3.618, 0.1289062, , , , , , , , , , , , , , , , , , , , , , 
0.1396731, 0.0240024, 3.6315, -0.8149414, 3.6315, 0.2348633, 3.6315, 0.4238281, 0.1396731, -0.0058747, 3.6315, 0.9379883, 3.6315, 0.2373047, 3.6315, 0.1918945, 0.1396731, -0.0095674, 3.6315, 0.265625, 3.6315, -0.9555664, 3.6315, 0.1777344, 0.1396731, 0.0092317, 3.6315, -0.4355469, 3.6315, -0.8798828, 3.6315, 0.1396484, , , , , , , , , , , , , , , , , , , , , , 
0.1401923, 0.0199741, 3.645, -0.8037109, 3.645, 0.2226562, 3.645, 0.4345703, 0.1401923, -0.0065461, 3.645, 0.9492188, 3.645, 0.2319336, 3.645, 0.1943359, 0.1401923, -0.010071, 3.645, 0.2788086, 3.645, -0.9389648, 3.645, 0.1762695, 0.1401923, 0.0099031, 3.645, -0.4267578, 3.645, -0.8754883, 3.645, 0.1411133, , , , , , , , , , , , , , , , , , , , , , 
0.1407115, 0.0166171, 3.6585, -0.8105469, 3.6585, 0.222168, 3.6585, 0.4248047, 0.1407115, -0.0068818, 3.6585, 0.9609375, 3.6585, 0.2255859, 3.6585, 0.2124023, 0.1407115, -0.0105745, 3.6585, 0.3149414, 3.6585, -0.9418945, 3.6585, 0.2011719, 0.1407115, 0.0109102, 3.6585, -0.4287109, 3.6585, -0.8837891, 3.6585, 0.1391602, , , , , , , , , , , , , , , , , , , , , , 
0.1412308, 0.0135958, 3.672, -0.8208008, 3.672, 0.2412109, 3.672, 0.4121094, 0.1412308, -0.0068818, 3.672, 0.9638672, 3.672, 0.2314453, 3.672, 0.2182617, 0.1412308, -0.0119173, 3.672, 0.3168945, 3.672, -0.9594727, 3.672, 0.1870117, 0.1412308, 0.0099031, 3.672, -0.4399414, 3.672, -0.9121094, 3.672, 0.1313477, , , , , , , , , , , , , , , , , , , , , , 
0.14175, 0.0092317, 3.6855, -0.828125, 3.6855, 0.2583008, 3.6855, 0.4140625, 0.14175, -0.0075532, 3.6855, 0.953125, 3.6855, 0.2529297, 3.6855, 0.2124023, 0.14175, -0.012253, 3.6855, 0.2797852, 3.6855, -0.96875, 3.6855, 0.1835938, 0.14175, 0.0099031, 3.6855, -0.4389648, 3.6855, -0.9038086, 3.6855, 0.1342773, , , , , , , , , , , , , , , , , , , , , , 
0.1422692, 0.0082246, 3.699, -0.8208008, 3.699, 0.2402344, 3.699, 0.4257812, 0.1422692, -0.0075532, 3.699, 0.9428711, 3.699, 0.2587891, 3.699, 0.1987305, 0.1422692, -0.0112459, 3.699, 0.2504883, 3.699, -0.953125, 3.699, 0.1904297, 0.1422692, 0.010071, 3.699, -0.4355469, 3.699, -0.8754883, 3.699, 0.1318359, , , , , , , , , , , , , , , , , , , , , , 
0.1427885, 0.0125887, 3.7125, -0.8066406, 3.7125, 0.2285156, 3.7125, 0.4350586, 0.1427885, -0.0070497, 3.7125, 0.9174805, 3.7125, 0.2490234, 3.7125, 0.1914062, 0.1427885, -0.0095674, 3.7125, 0.2680664, 3.7125, -0.9379883, 3.7125, 0.2001953, 0.1427885, 0.0085603, 3.7125, -0.4458008, 3.7125, -0.8666992, 3.7125, 0.1298828, , , , , , , , , , , , , , , , , , , , , , 
0.1433077, 0.0115816, 3.726, -0.8007812, 3.726, 0.2387695, 3.726, 0.4331055, 0.1433077, -0.0078889, 3.726, 0.9428711, 3.726, 0.2358398, 3.726, 0.1948242, 0.1433077, -0.008896, 3.726, 0.3105469, 3.726, -0.9335938, 3.726, 0.1938477, 0.1433077, 0.0062104, 3.726, -0.4560547, 3.726, -0.878418, 3.726, 0.1367188, , , , , , , , , , , , , , , , , , , , , , 
0.1438269, 0.0087282, 3.7395, -0.8046875, 3.7395, 0.2426758, 3.7395, 0.4223633, 0.1438269, -0.0095674, 3.7395, 0.9707031, 3.7395, 0.2304688, 3.7395, 0.2075195, 0.1438269, -0.0077211, 3.7395, 0.3120117, 3.7395, -0.9414062, 3.7395, 0.190918, 0.1438269, 0.0003357, 3.7395, -0.4487305, 3.7395, -0.9018555, 3.7395, 0.137207, , , , , , , , , , , , , , , , , , , , , , 
0.1443462, 0.0085603, 3.753, -0.8188477, 3.753, 0.2451172, 3.753, 0.4052734, 0.1443462, -0.0102388, 3.753, 0.9560547, 3.753, 0.2373047, 3.753, 0.2075195, 0.1443462, -0.0075532, 3.753, 0.2983398, 3.753, -0.9550781, 3.753, 0.1899414, 0.1443462, -0.0083925, 3.753, -0.4375, 3.753, -0.9082031, 3.753, 0.1401367, , , , , , , , , , , , , , , , , , , , , , 
0.1448654, 0.0109102, 3.7665, -0.8286133, 3.7665, 0.2407227, 3.7665, 0.4213867, 0.1448654, -0.0105745, 3.7665, 0.9306641, 3.7665, 0.2407227, 3.7665, 0.1918945, 0.1448654, -0.008896, 3.7665, 0.2700195, 3.7665, -0.9736328, 3.7665, 0.1850586, 0.1448654, -0.0142672, 3.7665, -0.4350586, 3.7665, -0.8945312, 3.7665, 0.1420898, , , , , , , , , , , , , , , , , , , , , , 
0.1453846, 0.014435, 3.78, -0.8188477, 3.78, 0.2290039, 3.78, 0.4277344, 0.1453846, -0.0109102, 3.78, 0.9101562, 3.78, 0.2299805, 3.78, 0.1904297, 0.1453846, -0.0082246, 3.78, 0.2758789, 3.78, -0.965332, 3.78, 0.1894531, 0.1453846, -0.0179599, 3.78, -0.4414062, 3.78, -0.8833008, 3.78, 0.1450195, , , , , , , , , , , , , , , , , , , , , , 
0.1459038, 0.0182956, 3.7935, -0.8085938, 3.7935, 0.2207031, 3.7935, 0.4311523, 0.1459038, -0.0095674, 3.7935, 0.9301758, 3.7935, 0.2177734, 3.7935, 0.1914062, 0.1459038, -0.008896, 3.7935, 0.3203125, 3.7935, -0.9414062, 3.7935, 0.1796875, 0.1459038, -0.0219883, 3.7935, -0.4360352, 3.7935, -0.8935547, 3.7935, 0.1484375, , , , , , , , , , , , , , , , , , , , , , 
0.1464231, 0.0208133, 3.807, -0.8022461, 3.807, 0.2094727, 3.807, 0.4189453, 0.1464231, -0.0082246, 3.807, 0.96875, 3.807, 0.1972656, 3.807, 0.1943359, 0.1464231, -0.0119173, 3.807, 0.3198242, 3.807, -0.9316406, 3.807, 0.1757812, 0.1464231, -0.0216526, 3.807, -0.4316406, 3.807, -0.9008789, 3.807, 0.1489258, , , , , , , , , , , , , , , , , , , , , , 
0.1469423, 0.0193027, 3.8205, -0.7988281, 3.8205, 0.2080078, 3.8205, 0.4047852, 0.1469423, -0.0085603, 3.8205, 0.9570312, 3.8205, 0.2021484, 3.8205, 0.2138672, 0.1469423, -0.0119173, 3.8205, 0.300293, 3.8205, -0.9345703, 3.8205, 0.1772461, 0.1469423, -0.0159457, 3.8205, -0.4194336, 3.8205, -0.9008789, 3.8205, 0.1445312, , , , , , , , , , , , , , , , , , , , , , 
0.1474615, 0.017792, 3.834, -0.8012695, 3.834, 0.2270508, 3.834, 0.4042969, 0.1474615, -0.0105745, 3.834, 0.9130859, 3.834, 0.2280273, 3.834, 0.1972656, 0.1474615, -0.008896, 3.834, 0.277832, 3.834, -0.9355469, 3.834, 0.1689453, 0.1474615, -0.0102388, 3.834, -0.4208984, 3.834, -0.8847656, 3.834, 0.1396484, , , , , , , , , , , , , , , , , , , , , , 
0.1479808, 0.0149386, 3.8475, -0.8110352, 3.8475, 0.2231445, 3.8475, 0.4072266, 0.1479808, -0.0115816, 3.8475, 0.8994141, 3.8475, 0.2319336, 3.8475, 0.206543, 0.1479808, -0.0070497, 3.8475, 0.2729492, 3.8475, -0.9399414, 3.8475, 0.1787109, 0.1479808, -0.0031891, 3.8475, -0.4267578, 3.8475, -0.8735352, 3.8475, 0.1293945, , , , , , , , , , , , , , , , , , , , , , 
0.1485, 0.0097353, 3.861, -0.8183594, 3.861, 0.2148438, 3.861, 0.4018555, 0.1485, -0.0112459, 3.861, 0.9277344, 3.861, 0.2167969, 3.861, 0.2075195, 0.1485, -0.0075532, 3.861, 0.2861328, 3.861, -0.9433594, 3.861, 0.1865234, 0.1485, 0.0038605, 3.861, -0.4277344, 3.861, -0.8857422, 3.861, 0.1254883, , , , , , , , , , , , , , , , , , , , , , 
0.1490192, 0.0052033, 3.8745, -0.8105469, 3.8745, 0.2163086, 3.8745, 0.3994141, 0.1490192, -0.0099031, 3.8745, 0.9443359, 3.8745, 0.2148438, 3.8745, 0.2080078, 0.1490192, -0.008896, 3.8745, 0.2875977, 3.8745, -0.9423828, 3.8745, 0.1821289, 0.1490192, 0.008896, 3.8745, -0.4267578, 3.8745, -0.8994141, 3.8745, 0.1323242, , , , , , , , , , , , , , , , , , , , , , 
0.1495385, 0.005539, 3.888, -0.7973633, 3.888, 0.2163086, 3.888, 0.4086914, 0.1495385, -0.0085603, 3.888, 0.9394531, 3.888, 0.2158203, 3.888, 0.2104492, 0.1495385, -0.0092317, 3.888, 0.2851562, 3.888, -0.9404297, 3.888, 0.1787109, 0.1495385, 0.0139315, 3.888, -0.4213867, 3.888, -0.890625, 3.888, 0.1313477, , , , , , , , , , , , , , , , , , , , , , 
0.1500577, 0.0102388, 3.9015, -0.7900391, 3.9015, 0.2182617, 3.9015, 0.4052734, 0.1500577, -0.0102388, 3.9015, 0.9267578, 3.9015, 0.2177734, 3.9015, 0.2094727, 0.1500577, -0.0078889, 3.9015, 0.2856445, 3.9015, -0.9370117, 3.9015, 0.1923828, 0.1500577, 0.0213169, 3.9015, -0.4208984, 3.9015, -0.8706055, 3.9015, 0.1293945, , , , , , , , , , , , , , , , , , , , , , 
0.1505769, 0.0129244, 3.915, -0.7885742, 3.915, 0.2250977, 3.915, 0.3945312, 0.1505769, -0.0129244, 3.915, 0.9208984, 3.915, 0.2246094, 3.915, 0.2104492, 0.1505769, -0.0058747, 3.915, 0.2768555, 3.915, -0.9223633, 3.915, 0.1855469, 0.1505769, 0.0292058, 3.915, -0.4414062, 3.915, -0.8652344, 3.915, 0.1313477, , , , , , , , , , , , , , , , , , , , , , 
0.1510962, 0.0104067, 3.9285, -0.8046875, 3.9285, 0.2236328, 3.9285, 0.3852539, 0.1510962, -0.0125887, 3.9285, 0.9194336, 3.9285, 0.2294922, 3.9285, 0.2177734, 0.1510962, -0.0035248, 3.9285, 0.2626953, 3.9285, -0.918457, 3.9285, 0.1733398, 0.1510962, 0.0364233, 3.9285, -0.4541016, 3.9285, -0.8710938, 3.9285, 0.1230469, , , , , , , , , , , , , , , , , , , , , , 
0.1516154, 0.0072175, 3.942, -0.8178711, 3.942, 0.2163086, 3.942, 0.3959961, 0.1516154, -0.0095674, 3.942, 0.9052734, 3.942, 0.2314453, 3.942, 0.2104492, 0.1516154, -0.002182, 3.942, 0.2509766, 3.942, -0.9311523, 3.942, 0.1855469, 0.1516154, 0.043473, 3.942, -0.4301758, 3.942, -0.8764648, 3.942, 0.1206055, , , , , , , , , , , , , , , , , , , , , , 
0.1521346, 0.0031891, 3.9555, -0.8100586, 3.9555, 0.2226562, 3.9555, 0.402832, 0.1521346, -0.0068818, 3.9555, 0.9272461, 3.9555, 0.2197266, 3.9555, 0.2143555, 0.1521346, -0.0028534, 3.9555, 0.2685547, 3.9555, -0.9428711, 3.9555, 0.1904297, 0.1521346, 0.0468299, 3.9555, -0.4194336, 3.9555, -0.8837891, 3.9555, 0.1308594, , , , , , , , , , , , , , , , , , , , , , 
0.1526538, 0.0023499, 3.969, -0.7998047, 3.969, 0.2314453, 3.969, 0.4194336, 0.1526538, -0.0068818, 3.969, 0.9472656, 3.969, 0.2124023, 3.969, 0.2016602, 0.1526538, -0.0035248, 3.969, 0.3022461, 3.969, -0.9448242, 3.969, 0.1791992, 0.1526538, 0.0480049, 3.969, -0.4248047, 3.969, -0.8896484, 3.969, 0.1337891, , , , , , , , , , , , , , , , , , , , , , 
0.1531731, 0.0048676, 3.9825, -0.8095703, 3.9825, 0.2280273, 3.9825, 0.4243164, 0.1531731, -0.008896, 3.9825, 0.9570312, 3.9825, 0.2202148, 3.9825, 0.1992188, 0.1531731, -0.0043641, 3.9825, 0.3193359, 3.9825, -0.9487305, 3.9825, 0.1889648, 0.1531731, 0.0495155, 3.9825, -0.4370117, 3.9825, -0.8969727, 3.9825, 0.1420898, , , , , , , , , , , , , , , , , , , , , , 
0.1536923, 0.008896, 3.996, -0.8212891, 3.996, 0.222168, 3.996, 0.4116211, 0.1536923, -0.0102388, 3.996, 0.9335938, 3.996, 0.2285156, 3.996, 0.1987305, 0.1536923, -0.0038605, 3.996, 0.3022461, 3.996, -0.9506836, 3.996, 0.1923828, 0.1536923, 0.0485084, 3.996, -0.4335938, 3.996, -0.9013672, 3.996, 0.1464844, , , , , , , , , , , , , , , , , , , , , , 
0.1542115, 0.0130922, 4.0095, -0.815918, 4.0095, 0.2265625, 4.0095, 0.4121094, 0.1542115, -0.0105745, 4.0095, 0.9199219, 4.0095, 0.2275391, 4.0095, 0.2036133, 0.1542115, -0.0038605, 4.0095, 0.2895508, 4.0095, -0.9477539, 4.0095, 0.190918, 0.1542115, 0.0448157, 4.0095, -0.4375, 4.0095, -0.8959961, 4.0095, 0.1420898, , , , , , , , , , , , , , , , , , , , , , 
0.1547308, 0.0169528, 4.023, -0.8041992, 4.023, 0.2348633, 4.023, 0.4116211, 0.1547308, -0.0082246, 4.023, 0.9287109, 4.023, 0.2255859, 4.023, 0.2036133, 0.1547308, -0.0031891, 4.023, 0.2783203, 4.023, -0.9418945, 4.023, 0.1904297, 0.1547308, 0.0379339, 4.023, -0.4458008, 4.023, -0.8847656, 4.023, 0.1342773, , , , , , , , , , , , , , , , , , , , , , 
0.15525, 0.0199741, 4.0365, -0.8032227, 4.0365, 0.2382812, 4.0365, 0.4023438, 0.15525, -0.0062104, 4.0365, 0.9414062, 4.0365, 0.2275391, 4.0365, 0.2202148, 0.15525, -0.0036927, 4.0365, 0.2744141, 4.0365, -0.9360352, 4.0365, 0.1948242, 0.15525, 0.0303807, 4.0365, -0.4536133, 4.0365, -0.8881836, 4.0365, 0.1210938, , , , , , , , , , , , , , , , , , , , , , 
0.1557692, 0.0229953, 4.05, -0.8115234, 4.05, 0.2392578, 4.05, 0.3984375, 0.1557692, -0.005539, 4.05, 0.9458008, 4.05, 0.2387695, 4.05, 0.2143555, 0.1557692, -0.0041962, 4.05, 0.265625, 4.05, -0.9492188, 4.05, 0.1967773, 0.1557692, 0.0256809, 4.05, -0.4550781, 4.05, -0.8886719, 4.05, 0.1147461, , , , , , , , , , , , , , , , , , , , , , 
0.1562885, 0.0260166, 4.0635, -0.8027344, 4.0635, 0.234375, 4.0635, 0.4038086, 0.1562885, -0.0062104, 4.0635, 0.9350586, 4.0635, 0.2470703, 4.0635, 0.2036133, 0.1562885, -0.0041962, 4.0635, 0.2553711, 4.0635, -0.9521484, 4.0635, 0.1879883, 0.1562885, 0.0216526, 4.0635, -0.4404297, 4.0635, -0.878418, 4.0635, 0.1225586, , , , , , , , , , , , , , , , , , , , , , 
0.1568077, 0.0246738, 4.077, -0.7978516, 4.077, 0.2329102, 4.077, 0.4116211, 0.1568077, -0.0068818, 4.077, 0.9082031, 4.077, 0.2470703, 4.077, 0.1958008, 0.1568077, -0.0057069, 4.077, 0.2700195, 4.077, -0.9399414, 4.077, 0.1884766, 0.1568077, 0.0199741, 4.077, -0.4233398, 4.077, -0.8701172, 4.077, 0.1293945, , , , , , , , , , , , , , , , , , , , , , 
0.1573269, 0.0229953, 4.0905, -0.8027344, 4.0905, 0.2338867, 4.0905, 0.421875, 0.1573269, -0.0085603, 4.0905, 0.9287109, 4.0905, 0.2255859, 4.0905, 0.1938477, 0.1573269, -0.0065461, 4.0905, 0.2895508, 4.0905, -0.9291992, 4.0905, 0.1923828, 0.1573269, 0.018967, 4.0905, -0.4248047, 4.0905, -0.8837891, 4.0905, 0.1264648, , , , , , , , , , , , , , , , , , , , , , 
0.1578462, 0.0213169, 4.104, -0.8032227, 4.104, 0.2319336, 4.104, 0.4106445, 0.1578462, -0.0095674, 4.104, 0.9418945, 4.104, 0.21875, 4.104, 0.1992188, 0.1578462, -0.0065461, 4.104, 0.3164062, 4.104, -0.9389648, 4.104, 0.1943359, 0.1578462, 0.0166171, 4.104, -0.4365234, 4.104, -0.9052734, 4.104, 0.1264648, , , , , , , , , , , , , , , , , , , , , , 
0.1583654, 0.0199741, 4.1175, -0.8022461, 4.1175, 0.2265625, 4.1175, 0.4067383, 0.1583654, -0.0095674, 4.1175, 0.9472656, 4.1175, 0.2265625, 4.1175, 0.2167969, 0.1583654, -0.005539, 4.1175, 0.2924805, 4.1175, -0.9555664, 4.1175, 0.184082, 0.1583654, 0.0146029, 4.1175, -0.4384766, 4.1175, -0.9086914, 4.1175, 0.1279297, , , , , , , , , , , , , , , , , , , , , , 
0.1588846, 0.0219883, 4.131, -0.8188477, 4.131, 0.234375, 4.131, 0.4082031, 0.1588846, -0.0075532, 4.131, 0.9448242, 4.131, 0.2382812, 4.131, 0.2001953, 0.1588846, -0.0082246, 4.131, 0.262207, 4.131, -0.9599609, 4.131, 0.1938477, 0.1588846, 0.0105745, 4.131, -0.4335938, 4.131, -0.8999023, 4.131, 0.1318359, , , , , , , , , , , , , , , , , , , , , , 
0.1594038, 0.0213169, 4.1445, -0.815918, 4.1445, 0.2304688, 4.1445, 0.4077148, 0.1594038, -0.0075532, 4.1445, 0.9243164, 4.1445, 0.2304688, 4.1445, 0.203125, 0.1594038, -0.0097353, 4.1445, 0.2592773, 4.1445, -0.9580078, 4.1445, 0.1943359, 0.1594038, 0.0063783, 4.1445, -0.4355469, 4.1445, -0.8818359, 4.1445, 0.1240234, , , , , , , , , , , , , , , , , , , , , , 
0.1599231, 0.0206455, 4.158, -0.8076172, 4.158, 0.2250977, 4.158, 0.4228516, 0.1599231, -0.0082246, 4.158, 0.9208984, 4.158, 0.2207031, 4.158, 0.2045898, 0.1599231, -0.0115816, 4.158, 0.2758789, 4.158, -0.9423828, 4.158, 0.1953125, 0.1599231, 0.0038605, 4.158, -0.4492188, 4.158, -0.8847656, 4.158, 0.1264648, , , , , , , , , , , , , , , , , , , , , , 
0.1604423, 0.0199741, 4.1715, -0.8193359, 4.1715, 0.2207031, 4.1715, 0.4165039, 0.1604423, -0.0085603, 4.1715, 0.9394531, 4.1715, 0.2099609, 4.1715, 0.2036133, 0.1604423, -0.0125887, 4.1715, 0.2944336, 4.1715, -0.9365234, 4.1715, 0.1953125, 0.1604423, 0.002182, 4.1715, -0.4570312, 4.1715, -0.9018555, 4.1715, 0.1381836, , , , , , , , , , , , , , , , , , , , , , 
0.1609615, 0.0193027, 4.185, -0.8271484, 4.185, 0.2216797, 4.185, 0.4101562, 0.1609615, -0.0075532, 4.185, 0.9604492, 4.185, 0.2104492, 4.185, 0.2099609, 0.1609615, -0.0109102, 4.185, 0.2978516, 4.185, -0.9438477, 4.185, 0.1875, 0.1609615, -0.0005035, 4.185, -0.4477539, 4.185, -0.8964844, 4.185, 0.1430664, , , , , , , , , , , , , , , , , , , , , , 
0.1614808, 0.0182956, 4.1985, -0.8164062, 4.1985, 0.2246094, 4.1985, 0.4160156, 0.1614808, -0.0075532, 4.1985, 0.9526367, 4.1985, 0.2250977, 4.1985, 0.2114258, 0.1614808, -0.0109102, 4.1985, 0.2670898, 4.1985, -0.9492188, 4.1985, 0.1831055, 0.1614808, -0.0028534, 4.1985, -0.4355469, 4.1985, -0.8818359, 4.1985, 0.1391602, , , , , , , , , , , , , , , , , , , , , , 
0.162, 0.0139315, 4.212, -0.8046875, 4.212, 0.2265625, 4.212, 0.4150391, 0.162, -0.0058747, 4.212, 0.9311523, 4.212, 0.2250977, 4.212, 0.2128906, 0.162, -0.012253, 4.212, 0.2700195, 4.212, -0.9482422, 4.212, 0.1899414, 0.162, -0.0041962, 4.212, -0.4262695, 4.212, -0.8833008, 4.212, 0.1367188, , , , , , , , , , , , , , , , , , , , , , 
0.1625192, 0.0102388, 4.2255, -0.8144531, 4.2255, 0.2285156, 4.2255, 0.4101562, 0.1625192, -0.0048676, 4.2255, 0.9326172, 4.2255, 0.2216797, 4.2255, 0.2128906, 0.1625192, -0.012253, 4.2255, 0.2871094, 4.2255, -0.9453125, 4.2255, 0.1953125, 0.1625192, -0.0041962, 4.2255, -0.4379883, 4.2255, -0.9003906, 4.2255, 0.1254883, , , , , , , , , , , , , , , , , , , , , , 
0.1630385, 0.0132601, 4.239, -0.8222656, 4.239, 0.2285156, 4.239, 0.409668, 0.1630385, -0.0065461, 4.239, 0.9521484, 4.239, 0.2226562, 4.239, 0.2080078, 0.1630385, -0.012253, 4.239, 0.2949219, 4.239, -0.9477539, 4.239, 0.1904297, 0.1630385, -0.005539, 4.239, -0.4365234, 4.239, -0.8994141, 4.239, 0.1181641, , , , , , , , , , , , , , , , , , , , , , 
0.1635577, 0.0187991, 4.2525, -0.8286133, 4.2525, 0.2255859, 4.2525, 0.4106445, 0.1635577, -0.0092317, 4.2525, 0.9472656, 4.2525, 0.2294922, 4.2525, 0.2143555, 0.1635577, -0.0129244, 4.2525, 0.2827148, 4.2525, -0.9516602, 4.2525, 0.1855469, 0.1635577, -0.0109102, 4.2525, -0.4291992, 4.2525, -0.8891602, 4.2525, 0.128418, , , , , , , , , , , , , , , , , , , , , , 
0.1640769, 0.0164492, 4.266, -0.8154297, 4.266, 0.2270508, 4.266, 0.4106445, 0.1640769, -0.008896, 4.266, 0.9350586, 4.266, 0.234375, 4.266, 0.2041016, 0.1640769, -0.0146029, 4.266, 0.277832, 4.266, -0.9492188, 4.266, 0.1875, 0.1640769, -0.0179599, 4.266, -0.4277344, 4.266, -0.8828125, 4.266, 0.1337891, , , , , , , , , , , , , , , , , , , , , , 
0.1645962, 0.0097353, 4.2795, -0.800293, 4.2795, 0.237793, 4.2795, 0.4204102, 0.1645962, -0.0082246, 4.2795, 0.9331055, 4.2795, 0.2324219, 4.2795, 0.206543, 0.1645962, -0.0146029, 4.2795, 0.28125, 4.2795, -0.9492188, 4.2795, 0.1923828, 0.1645962, -0.0219883, 4.2795, -0.4360352, 4.2795, -0.8886719, 4.2795, 0.1303711, , , , , , , , , , , , , , , , , , , , , , 
0.1651154, 0.0072175, 4.293, -0.8139648, 4.293, 0.2402344, 4.293, 0.4238281, 0.1651154, -0.0075532, 4.293, 0.940918, 4.293, 0.2285156, 4.293, 0.199707, 0.1651154, -0.0149386, 4.293, 0.2924805, 4.293, -0.9545898, 4.293, 0.1923828, 0.1651154, -0.0224918, 4.293, -0.440918, 4.293, -0.9038086, 4.293, 0.1362305, , , , , , , , , , , , , , , , , , , , , , 
0.1656346, 0.0119173, 4.3065, -0.8222656, 4.3065, 0.2314453, 4.3065, 0.4213867, 0.1656346, -0.0065461, 4.3065, 0.9580078, 4.3065, 0.2275391, 4.3065, 0.1923828, 0.1656346, -0.0152743, 4.3065, 0.2915039, 4.3065, -0.9536133, 4.3065, 0.1982422, 0.1656346, -0.0204776, 4.3065, -0.4414062, 4.3065, -0.8994141, 4.3065, 0.137207, , , , , , , , , , , , , , , , , , , , , , 
0.1661538, 0.0132601, 4.32, -0.8051758, 4.32, 0.2280273, 4.32, 0.4204102, 0.1661538, -0.0065461, 4.32, 0.9418945, 4.32, 0.2285156, 4.32, 0.1928711, 0.1661538, -0.0142672, 4.32, 0.2807617, 4.32, -0.9428711, 4.32, 0.1918945, 0.1661538, -0.017792, 4.32, -0.4394531, 4.32, -0.8842773, 4.32, 0.1357422, , , , , , , , , , , , , , , , , , , , , , 
0.1666731, 0.0119173, 4.3335, -0.7949219, 4.3335, 0.2265625, 4.3335, 0.4169922, 0.1666731, -0.0070497, 4.3335, 0.9238281, 4.3335, 0.2290039, 4.3335, 0.2016602, 0.1666731, -0.0135958, 4.3335, 0.2822266, 4.3335, -0.9379883, 4.3335, 0.1899414, 0.1666731, -0.0142672, 4.3335, -0.4487305, 4.3335, -0.8852539, 4.3335, 0.1313477, , , , , , , , , , , , , , , , , , , , , , 
0.1671923, 0.0097353, 4.347, -0.8120117, 4.347, 0.2338867, 4.347, 0.4077148, 0.1671923, -0.0077211, 4.347, 0.9418945, 4.347, 0.2231445, 4.347, 0.2036133, 0.1671923, -0.0149386, 4.347, 0.2832031, 4.347, -0.9438477, 4.347, 0.1943359, 0.1671923, -0.0099031, 4.347, -0.4414062, 4.347, -0.8911133, 4.347, 0.1352539, , , , , , , , , , , , , , , , , , , , , , 
0.1677115, 0.0075532, 4.3605, -0.8125, 4.3605, 0.2304688, 4.3605, 0.4174805, 0.1677115, -0.0073854, 4.3605, 0.9428711, 4.3605, 0.2255859, 4.3605, 0.1972656, 0.1677115, -0.0159457, 4.3605, 0.2783203, 4.3605, -0.9458008, 4.3605, 0.1962891, 0.1677115, -0.0035248, 4.3605, -0.4399414, 4.3605, -0.890625, 4.3605, 0.1293945, , , , , , , , , , , , , , , , , , , , , , 
0.1682308, 0.0072175, 4.374, -0.8041992, 4.374, 0.2197266, 4.374, 0.4189453, 0.1682308, -0.0052033, 4.374, 0.9326172, 4.374, 0.2236328, 4.374, 0.2011719, 0.1682308, -0.0146029, 4.374, 0.28125, 4.374, -0.9443359, 4.374, 0.1972656, 0.1682308, 0.0045319, 4.374, -0.4375, 4.374, -0.887207, 4.374, 0.1225586, , , , , , , , , , , , , , , , , , , , , , 
0.16875, 0.008896, 4.3875, -0.8017578, 4.3875, 0.2216797, 4.3875, 0.4033203, 0.16875, -0.0043641, 4.3875, 0.9379883, 4.3875, 0.2226562, 4.3875, 0.2050781, 0.16875, -0.012253, 4.3875, 0.2773438, 4.3875, -0.940918, 4.3875, 0.1928711, 0.16875, 0.0085603, 4.3875, -0.4394531, 4.3875, -0.8876953, 4.3875, 0.1240234, , , , , , , , , , , , , , , , , , , , , , 
0.1692692, 0.0092317, 4.401, -0.8100586, 4.401, 0.2255859, 4.401, 0.3959961, 0.1692692, -0.005539, 4.401, 0.9301758, 4.401, 0.2265625, 4.401, 0.21875, 0.1692692, -0.0099031, 4.401, 0.2753906, 4.401, -0.9418945, 4.401, 0.1860352, 0.1692692, 0.0102388, 4.401, -0.4379883, 4.401, -0.8911133, 4.401, 0.1303711, , , , , , , , , , , , , , , , , , , , , , 
0.1697885, 0.0072175, 4.4145, -0.8149414, 4.4145, 0.2250977, 4.4145, 0.4008789, 0.1697885, -0.0068818, 4.4145, 0.9282227, 4.4145, 0.2280273, 4.4145, 0.21875, 0.1697885, -0.0075532, 4.4145, 0.265625, 4.4145, -0.9399414, 4.4145, 0.1777344, 0.1697885, 0.0149386, 4.4145, -0.4350586, 4.4145, -0.8876953, 4.4145, 0.1303711, , , , , , , , , , , , , , , , , , , , , , 
0.1703077, 0.0011749, 4.428, -0.8051758, 4.428, 0.2250977, 4.428, 0.4077148, 0.1703077, -0.0060426, 4.428, 0.9165039, 4.428, 0.2275391, 4.428, 0.190918, 0.1703077, -0.0070497, 4.428, 0.2719727, 4.428, -0.9399414, 4.428, 0.1889648, 0.1703077, 0.0243381, 4.428, -0.421875, 4.428, -0.8798828, 4.428, 0.1254883, , , , , , , , , , , , , , , , , , , , , , 
0.1708269, 0.0015106, 4.4415, -0.800293, 4.4415, 0.2192383, 4.4415, 0.4111328, 0.1708269, -0.0068818, 4.4415, 0.9360352, 4.4415, 0.2138672, 4.4415, 0.2080078, 0.1708269, -0.0075532, 4.4415, 0.2924805, 4.4415, -0.9414062, 4.4415, 0.1889648, 0.1708269, 0.0354162, 4.4415, -0.4174805, 4.4415, -0.8842773, 4.4415, 0.1245117, , , , , , , , , , , , , , , , , , , , , , 
0.1713462, 0.0065461, 4.455, -0.8076172, 4.455, 0.2197266, 4.455, 0.4106445, 0.1713462, -0.0082246, 4.455, 0.9541016, 4.455, 0.2055664, 4.455, 0.2060547, 0.1713462, -0.0068818, 4.455, 0.3115234, 4.455, -0.9428711, 4.455, 0.1943359, 0.1713462, 0.0439765, 4.455, -0.4194336, 4.455, -0.8999023, 4.455, 0.1318359, , , , , , , , , , , , , , , , , , , , , , 
