Application:, Trigno Discover (2.0.1.2)
Date/Time:, 5/14/2025 12:48:49 PM
Collection Length (seconds):, 28.8495
Forearm 2 (83169), , , , , , , , Forearm 1 (82633), , , , , , , , Biceps (83254), , , , , , , , Triceps (83087)
sensor mode: 45, , , , , , , , sensor mode: 45, , , , , , , , sensor mode: 45, , , , , , , , sensor mode: 45
EMG 1 Time Series (s), EMG 1 (mV), ACC X Time Series (s), ACC X (G), ACC Y Time Series (s), ACC Y (G), ACC Z Time Series (s), ACC Z (G), EMG 1 Time Series (s), EMG 1 (mV), ACC X Time Series (s), ACC X (G), ACC Y Time Series (s), ACC Y (G), ACC Z Time Series (s), ACC Z (G), EMG 1 Time Series (s), EMG 1 (mV), ACC X Time Series (s), ACC X (G), ACC Y Time Series (s), ACC Y (G), ACC Z Time Series (s), ACC Z (G), EMG 1 Time Series (s), EMG 1 (mV), ACC X Time Series (s), ACC X (G), ACC Y Time Series (s), ACC Y (G), ACC Z Time Series (s), ACC Z (G)
, 1925.9259 Hz, , 74.0741 Hz, , 74.0741 Hz, , 74.0741 Hz, , 1925.9259 Hz, , 74.0741 Hz, , 74.0741 Hz, , 74.0741 Hz, , 1925.9259 Hz, , 74.0741 Hz, , 74.0741 Hz, , 74.0741 Hz, , 1925.9259 Hz, , 74.0741 Hz, , 74.0741 Hz, , 74.0741 Hz
, 0.0005192307692307692 s, , 0.0135 s, , 0.0135 s, , 0.0135 s, , 0.0005192307692307692 s, , 0.0135 s, , 0.0135 s, , 0.0135 s, , 0.0005192307692307692 s, , 0.0135 s, , 0.0135 s, , 0.0135 s, , 0.0005192307692307692 s, , 0.0135 s, , 0.0135 s, , 0.0135 s, , Type, Name, Label, Time (s), , Pair, E1, E2, T1, T2, V1, V2, Sensor, Channel, Units, Delta T, RMS, PKPK, Peak Value, TPK, Integral
0, 0.023331, 0, -0.2895508, 0, -0.9702148, 0, 0.1191406, 0, -0.0068818, 0, 0.34375, 0, -0.9282227, 0, -0.1816406, 0, -0.0082246, 0, 0.1206055, 0, -1.0043945, 0, 0.0019531, 0, 0.0179599, 0, -0.2016602, 0, -0.9814453, 0, 0.0224609, , , , , , , , , , , , , , , , , , , , , , 
0.0005192, 0.0293736, 0.0135, -0.2919922, 0.0135, -0.9716797, 0.0135, 0.1162109, 0.0005192, -0.0075532, 0.0135, 0.3447266, 0.0135, -0.9282227, 0.0135, -0.1806641, 0.0005192, -0.0078889, 0.0135, 0.1171875, 0.0135, -1.0019531, 0.0135, 0.0048828, 0.0005192, 0.0162814, 0.0135, -0.2080078, 0.0135, -0.9799805, 0.0135, 0.0239258, , , , , , , , , , , , , , , , , , , , , , 
0.0010385, 0.0327306, 0.027, -0.2890625, 0.027, -0.972168, 0.027, 0.1181641, 0.0010385, -0.0065461, 0.027, 0.3417969, 0.027, -0.9331055, 0.027, -0.1816406, 0.0010385, -0.008896, 0.027, 0.1108398, 0.027, -1.0053711, 0.027, 0.0043945, 0.0010385, 0.0125887, 0.027, -0.2124023, 0.027, -0.9799805, 0.027, 0.0273438, , , , , , , , , , , , , , , , , , , , , , 
0.0015577, 0.0276951, 0.0405, -0.2856445, 0.0405, -0.9711914, 0.0405, 0.1235352, 0.0015577, -0.0041962, 0.0405, 0.3383789, 0.0405, -0.9345703, 0.0405, -0.1865234, 0.0015577, -0.0109102, 0.0405, 0.1142578, 0.0405, -1.0073242, 0.0405, 0.0053711, 0.0015577, 0.0119173, 0.0405, -0.2041016, 0.0405, -0.9814453, 0.0405, 0.0283203, , , , , , , , , , , , , , , , , , , , , , 
0.0020769, 0.0199741, 0.054, -0.2866211, 0.054, -0.9692383, 0.054, 0.1206055, 0.0020769, -0.0058747, 0.054, 0.340332, 0.054, -0.9287109, 0.054, -0.1865234, 0.0020769, -0.0092317, 0.054, 0.1191406, 0.054, -1.0029297, 0.054, 0.0048828, 0.0020769, 0.0119173, 0.054, -0.199707, 0.054, -0.9829102, 0.054, 0.03125, , , , , , , , , , , , , , , , , , , , , , 
0.0025962, 0.0169528, 0.0675, -0.2822266, 0.0675, -0.9692383, 0.0675, 0.1191406, 0.0025962, -0.0068818, 0.0675, 0.3383789, 0.0675, -0.9291992, 0.0675, -0.1870117, 0.0025962, -0.008896, 0.0675, 0.1245117, 0.0675, -0.9990234, 0.0675, 0.0004883, 0.0025962, 0.0109102, 0.0675, -0.2041016, 0.0675, -0.9804688, 0.0675, 0.0322266, , , , , , , , , , , , , , , , , , , , , , 
0.0031154, 0.0171206, 0.081, -0.2763672, 0.081, -0.9702148, 0.081, 0.121582, 0.0031154, -0.0075532, 0.081, 0.3349609, 0.081, -0.9316406, 0.081, -0.1865234, 0.0031154, -0.0102388, 0.081, 0.1274414, 0.081, -0.9956055, 0.081, -0.0024414, 0.0031154, 0.0109102, 0.081, -0.2006836, 0.081, -0.9824219, 0.081, 0.0288086, , , , , , , , , , , , , , , , , , , , , , 
0.0036346, 0.0164492, 0.0945, -0.2744141, 0.0945, -0.9677734, 0.0945, 0.1171875, 0.0036346, -0.008896, 0.0945, 0.3364258, 0.0945, -0.9277344, 0.0945, -0.1875, 0.0036346, -0.0097353, 0.0945, 0.1220703, 0.0945, -1, 0.0945, -0.0014648, 0.0036346, 0.0132601, 0.0945, -0.1962891, 0.0945, -0.9824219, 0.0945, 0.027832, , , , , , , , , , , , , , , , , , , , , , 
0.0041538, 0.0162814, 0.108, -0.2773438, 0.108, -0.972168, 0.108, 0.1157227, 0.0041538, -0.0095674, 0.108, 0.3383789, 0.108, -0.9296875, 0.108, -0.1870117, 0.0041538, -0.0092317, 0.108, 0.1176758, 0.108, -0.9990234, 0.108, -0.0024414, 0.0041538, 0.0125887, 0.108, -0.2021484, 0.108, -0.9819336, 0.108, 0.0332031, , , , , , , , , , , , , , , , , , , , , , 
0.0046731, 0.0172885, 0.1215, -0.2739258, 0.1215, -0.9716797, 0.1215, 0.1171875, 0.0046731, -0.0095674, 0.1215, 0.3330078, 0.1215, -0.9311523, 0.1215, -0.1850586, 0.0046731, -0.0095674, 0.1215, 0.1137695, 0.1215, -0.9995117, 0.1215, -0.0073242, 0.0046731, 0.0082246, 0.1215, -0.2006836, 0.1215, -0.9819336, 0.1215, 0.0302734, , , , , , , , , , , , , , , , , , , , , , 
0.0051923, 0.0149386, 0.135, -0.2763672, 0.135, -0.9692383, 0.135, 0.1166992, 0.0051923, -0.0109102, 0.135, 0.3305664, 0.135, -0.9296875, 0.135, -0.1870117, 0.0051923, -0.0099031, 0.135, 0.1206055, 0.135, -0.996582, 0.135, -0.0073242, 0.0051923, -0.0010071, 0.135, -0.1943359, 0.135, -0.9804688, 0.135, 0.027832, , , , , , , , , , , , , , , , , , , , , , 
0.0057115, 0.0085603, 0.1485, -0.2758789, 0.1485, -0.972168, 0.1485, 0.1147461, 0.0057115, -0.0125887, 0.1485, 0.3344727, 0.1485, -0.9248047, 0.1485, -0.1875, 0.0057115, -0.0112459, 0.1485, 0.1157227, 0.1485, -0.9975586, 0.1485, -0.0063477, 0.0057115, -0.0072175, 0.1485, -0.1962891, 0.1485, -0.9760742, 0.1485, 0.027832, , , , , , , , , , , , , , , , , , , , , , 
0.0062308, 0.0083925, 0.162, -0.2714844, 0.162, -0.972168, 0.162, 0.1142578, 0.0062308, -0.0132601, 0.162, 0.3422852, 0.162, -0.9257812, 0.162, -0.184082, 0.0062308, -0.0142672, 0.162, 0.1137695, 0.162, -1.0014648, 0.162, -0.0083008, 0.0062308, -0.0097353, 0.162, -0.1943359, 0.162, -0.9770508, 0.162, 0.0244141, , , , , , , , , , , , , , , , , , , , , , 
0.00675, 0.0112459, 0.1755, -0.2739258, 0.1755, -0.9736328, 0.1755, 0.1166992, 0.00675, -0.0135958, 0.1755, 0.3398438, 0.1755, -0.934082, 0.1755, -0.1821289, 0.00675, -0.0149386, 0.1755, 0.1274414, 0.1755, -1.0043945, 0.1755, -0.0053711, 0.00675, -0.0115816, 0.1755, -0.1904297, 0.1755, -0.9853516, 0.1755, 0.0200195, , , , , , , , , , , , , , , , , , , , , , 
0.0072692, 0.0112459, 0.189, -0.2822266, 0.189, -0.9780273, 0.189, 0.1132812, 0.0072692, -0.0135958, 0.189, 0.3398438, 0.189, -0.9370117, 0.189, -0.1816406, 0.0072692, -0.012253, 0.189, 0.1279297, 0.189, -1.0112305, 0.189, -0.0014648, 0.0072692, -0.0132601, 0.189, -0.1821289, 0.189, -0.987793, 0.189, 0.0253906, , , , , , , , , , , , , , , , , , , , , , 
0.0077885, 0.0132601, 0.2025, -0.2788086, 0.2025, -0.9790039, 0.2025, 0.1123047, 0.0077885, -0.0129244, 0.2025, 0.3408203, 0.2025, -0.9370117, 0.2025, -0.1811523, 0.0077885, -0.0102388, 0.2025, 0.1259766, 0.2025, -1.0068359, 0.2025, -0.0043945, 0.0077885, -0.0142672, 0.2025, -0.1845703, 0.2025, -0.9882812, 0.2025, 0.0229492, , , , , , , , , , , , , , , , , , , , , , 
0.0083077, 0.0109102, 0.216, -0.2749023, 0.216, -0.9731445, 0.216, 0.1166992, 0.0083077, -0.0117494, 0.216, 0.3452148, 0.216, -0.9335938, 0.216, -0.1860352, 0.0083077, -0.0102388, 0.216, 0.1289062, 0.216, -1.0043945, 0.216, -0.0043945, 0.0083077, -0.0132601, 0.216, -0.1860352, 0.216, -0.9863281, 0.216, 0.0185547, , , , , , , , , , , , , , , , , , , , , , 
0.0088269, 0.0087282, 0.2295, -0.2724609, 0.2295, -0.9746094, 0.2295, 0.1191406, 0.0088269, -0.0112459, 0.2295, 0.3452148, 0.2295, -0.9291992, 0.2295, -0.1879883, 0.0088269, -0.0109102, 0.2295, 0.1274414, 0.2295, -1.0039062, 0.2295, -0.0048828, 0.0088269, -0.008896, 0.2295, -0.1938477, 0.2295, -0.9858398, 0.2295, 0.0283203, , , , , , , , , , , , , , , , , , , , , , 
0.0093462, 0.0112459, 0.243, -0.2714844, 0.243, -0.9755859, 0.243, 0.1206055, 0.0093462, -0.0115816, 0.243, 0.3369141, 0.243, -0.934082, 0.243, -0.1884766, 0.0093462, -0.0092317, 0.243, 0.121582, 0.243, -1.0039062, 0.243, -0.0048828, 0.0093462, -0.0035248, 0.243, -0.203125, 0.243, -0.9829102, 0.243, 0.034668, , , , , , , , , , , , , , , , , , , , , , 
0.0098654, 0.0115816, 0.2565, -0.2729492, 0.2565, -0.9726562, 0.2565, 0.1245117, 0.0098654, -0.0125887, 0.2565, 0.3339844, 0.2565, -0.9345703, 0.2565, -0.1899414, 0.0098654, -0.0075532, 0.2565, 0.1181641, 0.2565, -1.0024414, 0.2565, -0.0073242, 0.0098654, 0.0031891, 0.2565, -0.2011719, 0.2565, -0.9833984, 0.2565, 0.03125, , , , , , , , , , , , , , , , , , , , , , 
0.0103846, 0.0048676, 0.27, -0.28125, 0.27, -0.972168, 0.27, 0.1181641, 0.0103846, -0.0119173, 0.27, 0.3334961, 0.27, -0.9287109, 0.27, -0.1914062, 0.0103846, -0.0092317, 0.27, 0.1186523, 0.27, -1.0029297, 0.27, -0.0024414, 0.0103846, 0.0092317, 0.27, -0.1987305, 0.27, -0.9833984, 0.27, 0.0297852, , , , , , , , , , , , , , , , , , , , , , 
0.0109038, 0.0025177, 0.2835, -0.2832031, 0.2835, -0.9746094, 0.2835, 0.1171875, 0.0109038, -0.012253, 0.2835, 0.3388672, 0.2835, -0.9257812, 0.2835, -0.1904297, 0.0109038, -0.0112459, 0.2835, 0.1147461, 0.2835, -1.0019531, 0.2835, 0, 0.0109038, 0.012253, 0.2835, -0.206543, 0.2835, -0.9819336, 0.2835, 0.0263672, , , , , , , , , , , , , , , , , , , , , , 
0.0114231, 0.0065461, 0.297, -0.2768555, 0.297, -0.9770508, 0.297, 0.1191406, 0.0114231, -0.012253, 0.297, 0.3378906, 0.297, -0.9311523, 0.297, -0.1933594, 0.0114231, -0.0095674, 0.297, 0.1171875, 0.297, -1.0039062, 0.297, -0.0073242, 0.0114231, 0.0159457, 0.297, -0.1967773, 0.297, -0.9848633, 0.297, 0.0258789, , , , , , , , , , , , , , , , , , , , , , 
0.0119423, 0.0072175, 0.3105, -0.2734375, 0.3105, -0.9799805, 0.3105, 0.1245117, 0.0119423, -0.0109102, 0.3105, 0.3378906, 0.3105, -0.9350586, 0.3105, -0.1948242, 0.0119423, -0.0072175, 0.3105, 0.1264648, 0.3105, -1.0078125, 0.3105, -0.0063477, 0.0119423, 0.0223239, 0.3105, -0.1899414, 0.3105, -0.9916992, 0.3105, 0.027832, , , , , , , , , , , , , , , , , , , , , , 
0.0124615, 0.0068818, 0.324, -0.2739258, 0.324, -0.9790039, 0.324, 0.1230469, 0.0124615, -0.0105745, 0.324, 0.3461914, 0.324, -0.9360352, 0.324, -0.190918, 0.0124615, -0.0068818, 0.324, 0.1289062, 0.324, -1.0078125, 0.324, -0.0029297, 0.0124615, 0.0290379, 0.324, -0.1806641, 0.324, -0.9931641, 0.324, 0.0258789, , , , , , , , , , , , , , , , , , , , , , 
0.0129808, 0.0078889, 0.3375, -0.2744141, 0.3375, -0.9794922, 0.3375, 0.1220703, 0.0129808, -0.0102388, 0.3375, 0.3496094, 0.3375, -0.9345703, 0.3375, -0.1875, 0.0129808, -0.0068818, 0.3375, 0.1279297, 0.3375, -1.0058594, 0.3375, -0.0073242, 0.0129808, 0.0325628, 0.3375, -0.190918, 0.3375, -0.9868164, 0.3375, 0.0224609, , , , , , , , , , , , , , , , , , , , , , 
0.0135, 0.0095674, 0.351, -0.2714844, 0.351, -0.9833984, 0.351, 0.1274414, 0.0135, -0.0095674, 0.351, 0.3486328, 0.351, -0.934082, 0.351, -0.190918, 0.0135, -0.0062104, 0.351, 0.1313477, 0.351, -1.0068359, 0.351, -0.0131836, 0.0135, 0.0340734, 0.351, -0.190918, 0.351, -0.9882812, 0.351, 0.0253906, , , , , , , , , , , , , , , , , , , , , , 
0.0140192, 0.0072175, 0.3645, -0.2724609, 0.3645, -0.9785156, 0.3645, 0.1254883, 0.0140192, -0.0099031, 0.3645, 0.3496094, 0.3645, -0.9335938, 0.3645, -0.190918, 0.0140192, -0.005539, 0.3645, 0.1318359, 0.3645, -1.0048828, 0.3645, -0.0117188, 0.0140192, 0.0374304, 0.3645, -0.1801758, 0.3645, -0.9912109, 0.3645, 0.0229492, , , , , , , , , , , , , , , , , , , , , , 
0.0145385, 0.0045319, 0.378, -0.2753906, 0.378, -0.9765625, 0.378, 0.1210938, 0.0145385, -0.0102388, 0.378, 0.3510742, 0.378, -0.9326172, 0.378, -0.1904297, 0.0145385, -0.0028534, 0.378, 0.1196289, 0.378, -1.0078125, 0.378, -0.0097656, 0.0145385, 0.0421302, 0.378, -0.1791992, 0.378, -0.9897461, 0.378, 0.0253906, , , , , , , , , , , , , , , , , , , , , , 
0.0150577, 0.0045319, 0.3915, -0.2773438, 0.3915, -0.980957, 0.3915, 0.1240234, 0.0150577, -0.0090639, 0.3915, 0.3520508, 0.3915, -0.9321289, 0.3915, -0.1855469, 0.0150577, -0.002182, 0.3915, 0.1162109, 0.3915, -1.0102539, 0.3915, -0.0087891, 0.0150577, 0.0414588, 0.3915, -0.1962891, 0.3915, -0.9916992, 0.3915, 0.0229492, , , , , , , , , , , , , , , , , , , , , , 
0.0155769, 0.0031891, 0.405, -0.2802734, 0.405, -0.9829102, 0.405, 0.125, 0.0155769, -0.0082246, 0.405, 0.3427734, 0.405, -0.934082, 0.405, -0.1899414, 0.0155769, -0.0018463, 0.405, 0.125, 0.405, -1.0141602, 0.405, -0.0058594, 0.0155769, 0.0360876, 0.405, -0.1982422, 0.405, -0.996582, 0.405, 0.0224609, , , , , , , , , , , , , , , , , , , , , , 
0.0160962, 0.0010071, 0.4185, -0.2866211, 0.4185, -0.9824219, 0.4185, 0.121582, 0.0160962, -0.0078889, 0.4185, 0.3393555, 0.4185, -0.9379883, 0.4185, -0.1904297, 0.0160962, -0.002182, 0.4185, 0.1235352, 0.4185, -1.0141602, 0.4185, -0.0029297, 0.0160962, 0.0303807, 0.4185, -0.1992188, 0.4185, -0.9951172, 0.4185, 0.0263672, , , , , , , , , , , , , , , , , , , , , , 
0.0166154, 0.0035248, 0.432, -0.2827148, 0.432, -0.9848633, 0.432, 0.1254883, 0.0166154, -0.0090639, 0.432, 0.3486328, 0.432, -0.9370117, 0.432, -0.1899414, 0.0166154, -0.0030213, 0.432, 0.1152344, 0.432, -1.0126953, 0.432, -0.0058594, 0.0166154, 0.0276951, 0.432, -0.1977539, 0.432, -0.9892578, 0.432, 0.0258789, , , , , , , , , , , , , , , , , , , , , , 
0.0171346, 0.0112459, 0.4455, -0.2753906, 0.4455, -0.9799805, 0.4455, 0.1269531, 0.0171346, -0.0085603, 0.4455, 0.3500977, 0.4455, -0.9331055, 0.4455, -0.1870117, 0.0171346, -0.0035248, 0.4455, 0.1206055, 0.4455, -1.0112305, 0.4455, -0.0092773, 0.0171346, 0.0258488, 0.4455, -0.1928711, 0.4455, -0.9902344, 0.4455, 0.0214844, , , , , , , , , , , , , , , , , , , , , , 
0.0176538, 0.0164492, 0.459, -0.2758789, 0.459, -0.9755859, 0.459, 0.1235352, 0.0176538, -0.0065461, 0.459, 0.3520508, 0.459, -0.9282227, 0.459, -0.1889648, 0.0176538, -0.0035248, 0.459, 0.1210938, 0.459, -1.0078125, 0.459, -0.0073242, 0.0176538, 0.0219883, 0.459, -0.1894531, 0.459, -0.9892578, 0.459, 0.0258789, , , , , , , , , , , , , , , , , , , , , , 
0.0181731, 0.0193027, 0.4725, -0.2763672, 0.4725, -0.9775391, 0.4725, 0.1225586, 0.0181731, -0.0046998, 0.4725, 0.3491211, 0.4725, -0.9316406, 0.4725, -0.1904297, 0.0181731, -0.0028534, 0.4725, 0.1166992, 0.4725, -1.0048828, 0.4725, -0.0078125, 0.0181731, 0.0193027, 0.4725, -0.1933594, 0.4725, -0.9863281, 0.4725, 0.03125, , , , , , , , , , , , , , , , , , , , , , 
0.0186923, 0.0226596, 0.486, -0.2758789, 0.486, -0.9790039, 0.486, 0.125, 0.0186923, -0.0038605, 0.486, 0.3427734, 0.486, -0.9326172, 0.486, -0.1894531, 0.0186923, -0.0035248, 0.486, 0.1176758, 0.486, -1.0039062, 0.486, -0.0083008, 0.0186923, 0.0172885, 0.486, -0.1977539, 0.486, -0.9819336, 0.486, 0.0273438, , , , , , , , , , , , , , , , , , , , , , 
0.0192115, 0.0246738, 0.4995, -0.2749023, 0.4995, -0.9785156, 0.4995, 0.125, 0.0192115, -0.0043641, 0.4995, 0.3398438, 0.4995, -0.9311523, 0.4995, -0.1914062, 0.0192115, -0.0052033, 0.4995, 0.1240234, 0.4995, -1.0039062, 0.4995, -0.0087891, 0.0192115, 0.0152743, 0.4995, -0.1879883, 0.4995, -0.9863281, 0.4995, 0.0234375, , , , , , , , , , , , , , , , , , , , , , 
0.0197308, 0.0236667, 0.513, -0.2773438, 0.513, -0.9770508, 0.513, 0.1210938, 0.0197308, -0.0052033, 0.513, 0.3388672, 0.513, -0.9316406, 0.513, -0.1958008, 0.0197308, -0.0072175, 0.513, 0.1259766, 0.513, -1.0048828, 0.513, -0.0029297, 0.0197308, 0.0112459, 0.513, -0.1860352, 0.513, -0.987793, 0.513, 0.0249023, , , , , , , , , , , , , , , , , , , , , , 
0.02025, 0.023331, 0.5265, -0.28125, 0.5265, -0.9790039, 0.5265, 0.121582, 0.02025, -0.0072175, 0.5265, 0.3398438, 0.5265, -0.9345703, 0.5265, -0.1914062, 0.02025, -0.0078889, 0.5265, 0.1196289, 0.5265, -1.0063477, 0.5265, -0.0068359, 0.02025, 0.0090639, 0.5265, -0.1914062, 0.5265, -0.9887695, 0.5265, 0.0219727, , , , , , , , , , , , , , , , , , , , , , 
0.0207692, 0.0224918, 0.54, -0.28125, 0.54, -0.9780273, 0.54, 0.1230469, 0.0207692, -0.0085603, 0.54, 0.340332, 0.54, -0.9365234, 0.54, -0.1855469, 0.0207692, -0.0085603, 0.54, 0.1201172, 0.54, -1.0068359, 0.54, -0.0087891, 0.0207692, 0.0095674, 0.54, -0.1865234, 0.54, -0.9907227, 0.54, 0.0224609, , , , , , , , , , , , , , , , , , , , , , 
0.0212885, 0.0226596, 0.5535, -0.2788086, 0.5535, -0.9711914, 0.5535, 0.1181641, 0.0212885, -0.0085603, 0.5535, 0.3457031, 0.5535, -0.9306641, 0.5535, -0.1826172, 0.0212885, -0.0092317, 0.5535, 0.1206055, 0.5535, -1.0019531, 0.5535, -0.0058594, 0.0212885, 0.0099031, 0.5535, -0.1860352, 0.5535, -0.9853516, 0.5535, 0.027832, , , , , , , , , , , , , , , , , , , , , , 
0.0218077, 0.0240024, 0.567, -0.269043, 0.567, -0.9755859, 0.567, 0.1176758, 0.0218077, -0.0082246, 0.567, 0.3505859, 0.567, -0.9282227, 0.567, -0.1850586, 0.0218077, -0.0083925, 0.567, 0.1166992, 0.567, -1.0014648, 0.567, -0.0068359, 0.0218077, 0.0112459, 0.567, -0.1967773, 0.567, -0.9804688, 0.567, 0.0263672, , , , , , , , , , , , , , , , , , , , , , 
0.0223269, 0.023331, 0.5805, -0.2670898, 0.5805, -0.9760742, 0.5805, 0.1220703, 0.0223269, -0.0075532, 0.5805, 0.3442383, 0.5805, -0.9321289, 0.5805, -0.1850586, 0.0223269, -0.008896, 0.5805, 0.1264648, 0.5805, -1.0039062, 0.5805, -0.0053711, 0.0223269, 0.0117494, 0.5805, -0.1962891, 0.5805, -0.9848633, 0.5805, 0.0209961, , , , , , , , , , , , , , , , , , , , , , 
0.0228462, 0.021149, 0.594, -0.2749023, 0.594, -0.9731445, 0.594, 0.1191406, 0.0228462, -0.0082246, 0.594, 0.3383789, 0.594, -0.9316406, 0.594, -0.1870117, 0.0228462, -0.0104067, 0.594, 0.1264648, 0.594, -1.0029297, 0.594, -0.0014648, 0.0228462, 0.0112459, 0.594, -0.1923828, 0.594, -0.9858398, 0.594, 0.0244141, , , , , , , , , , , , , , , , , , , , , , 
0.0233654, 0.0206455, 0.6075, -0.2827148, 0.6075, -0.9711914, 0.6075, 0.1142578, 0.0233654, -0.0075532, 0.6075, 0.3359375, 0.6075, -0.9296875, 0.6075, -0.1850586, 0.0233654, -0.0115816, 0.6075, 0.1171875, 0.6075, -1.0004883, 0.6075, 0.0024414, 0.0233654, 0.011078, 0.6075, -0.1962891, 0.6075, -0.9833984, 0.6075, 0.0263672, , , , , , , , , , , , , , , , , , , , , , 
0.0238846, 0.0223239, 0.621, -0.2836914, 0.621, -0.96875, 0.621, 0.1196289, 0.0238846, -0.0057069, 0.621, 0.3349609, 0.621, -0.9316406, 0.621, -0.1845703, 0.0238846, -0.0102388, 0.621, 0.1176758, 0.621, -1.0004883, 0.621, 0.0039062, 0.0238846, 0.0102388, 0.621, -0.2041016, 0.621, -0.9804688, 0.621, 0.0268555, , , , , , , , , , , , , , , , , , , , , , 
0.0244038, 0.0223239, 0.6345, -0.2832031, 0.6345, -0.9648438, 0.6345, 0.1230469, 0.0244038, -0.0057069, 0.6345, 0.3334961, 0.6345, -0.9316406, 0.6345, -0.1845703, 0.0244038, -0.0085603, 0.6345, 0.1196289, 0.6345, -0.9980469, 0.6345, 0.0029297, 0.0244038, 0.0062104, 0.6345, -0.2055664, 0.6345, -0.9794922, 0.6345, 0.0268555, , , , , , , , , , , , , , , , , , , , , , 
0.0249231, 0.0196384, 0.648, -0.2768555, 0.648, -0.9599609, 0.648, 0.1293945, 0.0249231, -0.0068818, 0.648, 0.3344727, 0.648, -0.9228516, 0.648, -0.1914062, 0.0249231, -0.0085603, 0.648, 0.1245117, 0.648, -0.9921875, 0.648, 0.0087891, 0.0249231, 0.0001678, 0.648, -0.2041016, 0.648, -0.9765625, 0.648, 0.0317383, , , , , , , , , , , , , , , , , , , , , , 
0.0254423, 0.0146029, 0.6615, -0.2797852, 0.6615, -0.9560547, 0.6615, 0.1381836, 0.0254423, -0.0070497, 0.6615, 0.3417969, 0.6615, -0.9169922, 0.6615, -0.1962891, 0.0254423, -0.0095674, 0.6615, 0.1210938, 0.6615, -0.9873047, 0.6615, 0.0126953, 0.0254423, -0.0041962, 0.6615, -0.2094727, 0.6615, -0.9726562, 0.6615, 0.0356445, , , , , , , , , , , , , , , , , , , , , , 
0.0259615, 0.0112459, 0.675, -0.2836914, 0.675, -0.9526367, 0.675, 0.1411133, 0.0259615, -0.0068818, 0.675, 0.3447266, 0.675, -0.9091797, 0.675, -0.2016602, 0.0259615, -0.011078, 0.675, 0.1230469, 0.675, -0.9833984, 0.675, 0.0195312, 0.0259615, -0.0062104, 0.675, -0.2172852, 0.675, -0.9638672, 0.675, 0.0385742, , , , , , , , , , , , , , , , , , , , , , 
0.0264808, 0.0105745, 0.6885, -0.2880859, 0.6885, -0.949707, 0.6885, 0.1455078, 0.0264808, -0.0072175, 0.6885, 0.3481445, 0.6885, -0.9077148, 0.6885, -0.203125, 0.0264808, -0.0119173, 0.6885, 0.1259766, 0.6885, -0.9824219, 0.6885, 0.0288086, 0.0264808, -0.0068818, 0.6885, -0.2250977, 0.6885, -0.9604492, 0.6885, 0.0410156, , , , , , , , , , , , , , , , , , , , , , 
0.027, 0.0085603, 0.702, -0.284668, 0.702, -0.9487305, 0.702, 0.144043, 0.027, -0.0065461, 0.702, 0.3491211, 0.702, -0.9067383, 0.702, -0.203125, 0.027, -0.011078, 0.702, 0.128418, 0.702, -0.9873047, 0.702, 0.0292969, 0.027, -0.0082246, 0.702, -0.2285156, 0.702, -0.9648438, 0.702, 0.0454102, , , , , , , , , , , , , , , , , , , , , , 
0.0275192, 0.0043641, 0.7155, -0.2890625, 0.7155, -0.9545898, 0.7155, 0.1542969, 0.0275192, -0.0048676, 0.7155, 0.3569336, 0.7155, -0.9121094, 0.7155, -0.2021484, 0.0275192, -0.0102388, 0.7155, 0.1342773, 0.7155, -0.9887695, 0.7155, 0.0288086, 0.0275192, -0.0109102, 0.7155, -0.2260742, 0.7155, -0.9667969, 0.7155, 0.0483398, , , , , , , , , , , , , , , , , , , , , , 
0.0280385, 0.0046998, 0.729, -0.2998047, 0.729, -0.9541016, 0.729, 0.1616211, 0.0280385, -0.0048676, 0.729, 0.3623047, 0.729, -0.9106445, 0.729, -0.2094727, 0.0280385, -0.0099031, 0.729, 0.1376953, 0.729, -0.9882812, 0.729, 0.0302734, 0.0280385, -0.0095674, 0.729, -0.2246094, 0.729, -0.9692383, 0.729, 0.0498047, , , , , , , , , , , , , , , , , , , , , , 
0.0285577, 0.0099031, 0.7425, -0.2983398, 0.7425, -0.9560547, 0.7425, 0.1704102, 0.0285577, -0.0058747, 0.7425, 0.3710938, 0.7425, -0.9072266, 0.7425, -0.2207031, 0.0285577, -0.0105745, 0.7425, 0.1401367, 0.7425, -0.9941406, 0.7425, 0.0307617, 0.0285577, -0.0062104, 0.7425, -0.2338867, 0.7425, -0.972168, 0.7425, 0.0507812, , , , , , , , , , , , , , , , , , , , , , 
0.0290769, 0.0119173, 0.756, -0.2841797, 0.756, -0.9667969, 0.756, 0.168457, 0.0290769, -0.0065461, 0.756, 0.3789062, 0.756, -0.9116211, 0.756, -0.2226562, 0.0290769, -0.0115816, 0.756, 0.137207, 0.756, -0.9980469, 0.756, 0.034668, 0.0290769, -0.0015106, 0.756, -0.2387695, 0.756, -0.9760742, 0.756, 0.0537109, , , , , , , , , , , , , , , , , , , , , , 
0.0295962, 0.0070497, 0.7695, -0.2890625, 0.7695, -0.9658203, 0.7695, 0.1689453, 0.0295962, -0.0058747, 0.7695, 0.3876953, 0.7695, -0.9228516, 0.7695, -0.2094727, 0.0295962, -0.0109102, 0.7695, 0.1328125, 0.7695, -1.0029297, 0.7695, 0.046875, 0.0295962, 0.0030213, 0.7695, -0.2421875, 0.7695, -0.9770508, 0.7695, 0.0546875, , , , , , , , , , , , , , , , , , , , , , 
0.0301154, 0.0018463, 0.783, -0.3066406, 0.783, -0.956543, 0.783, 0.1723633, 0.0301154, -0.005539, 0.783, 0.3852539, 0.783, -0.9223633, 0.783, -0.1982422, 0.0301154, -0.0087282, 0.783, 0.1308594, 0.783, -1, 0.783, 0.0551758, 0.0301154, 0.0058747, 0.783, -0.2490234, 0.783, -0.9755859, 0.783, 0.0571289, , , , , , , , , , , , , , , , , , , , , , 
0.0306346, -0.0008392, 0.7965, -0.2978516, 0.7965, -0.953125, 0.7965, 0.1762695, 0.0306346, -0.0068818, 0.7965, 0.3847656, 0.7965, -0.9057617, 0.7965, -0.2070312, 0.0306346, -0.008896, 0.7965, 0.1367188, 0.7965, -0.9882812, 0.7965, 0.059082, 0.0306346, 0.0112459, 0.7965, -0.2587891, 0.7965, -0.9716797, 0.7965, 0.0610352, , , , , , , , , , , , , , , , , , , , , , 
0.0311538, -0.0003357, 0.81, -0.2788086, 0.81, -0.9492188, 0.81, 0.1777344, 0.0311538, -0.0082246, 0.81, 0.3881836, 0.81, -0.8974609, 0.81, -0.2226562, 0.0311538, -0.008896, 0.81, 0.1484375, 0.81, -0.9780273, 0.81, 0.0654297, 0.0311538, 0.0179599, 0.81, -0.2670898, 0.81, -0.9677734, 0.81, 0.0668945, , , , , , , , , , , , , , , , , , , , , , 
0.0316731, 0.0045319, 0.8235, -0.2832031, 0.8235, -0.9394531, 0.8235, 0.1860352, 0.0316731, -0.0082246, 0.8235, 0.3876953, 0.8235, -0.8994141, 0.8235, -0.2133789, 0.0316731, -0.0072175, 0.8235, 0.1503906, 0.8235, -0.9765625, 0.8235, 0.0732422, 0.0316731, 0.0226596, 0.8235, -0.2714844, 0.8235, -0.9643555, 0.8235, 0.0673828, , , , , , , , , , , , , , , , , , , , , , 
0.0321923, 0.0075532, 0.837, -0.2880859, 0.837, -0.9296875, 0.837, 0.1826172, 0.0321923, -0.0063783, 0.837, 0.3916016, 0.837, -0.8886719, 0.837, -0.2021484, 0.0321923, -0.0050355, 0.837, 0.1367188, 0.837, -0.9707031, 0.837, 0.0800781, 0.0321923, 0.0265202, 0.837, -0.2729492, 0.837, -0.953125, 0.837, 0.0664062, , , , , , , , , , , , , , , , , , , , , , 
0.0327115, 0.0041962, 0.8505, -0.2973633, 0.8505, -0.9145508, 0.8505, 0.1767578, 0.0327115, -0.0062104, 0.8505, 0.3920898, 0.8505, -0.8769531, 0.8505, -0.1982422, 0.0327115, -0.0036927, 0.8505, 0.1240234, 0.8505, -0.9663086, 0.8505, 0.0854492, 0.0327115, 0.0313878, 0.8505, -0.2851562, 0.8505, -0.9423828, 0.8505, 0.0644531, , , , , , , , , , , , , , , , , , , , , , 
0.0332308, 0.0011749, 0.864, -0.2983398, 0.864, -0.9082031, 0.864, 0.1713867, 0.0332308, -0.0075532, 0.864, 0.3862305, 0.864, -0.875, 0.864, -0.1914062, 0.0332308, -0.0048676, 0.864, 0.1206055, 0.864, -0.9570312, 0.864, 0.090332, 0.0332308, 0.0350805, 0.864, -0.3012695, 0.864, -0.9321289, 0.864, 0.0683594, , , , , , , , , , , , , , , , , , , , , , 
0.03375, 0.0018463, 0.8775, -0.2929688, 0.8775, -0.9033203, 0.8775, 0.1733398, 0.03375, -0.0073854, 0.8775, 0.3813477, 0.8775, -0.8696289, 0.8775, -0.1918945, 0.03375, -0.0043641, 0.8775, 0.1201172, 0.8775, -0.9482422, 0.8775, 0.0917969, 0.03375, 0.0360876, 0.8775, -0.3100586, 0.8775, -0.9160156, 0.8775, 0.0727539, , , , , , , , , , , , , , , , , , , , , , 
0.0342692, 0.0068818, 0.891, -0.2807617, 0.891, -0.8867188, 0.891, 0.1674805, 0.0342692, -0.0063783, 0.891, 0.3706055, 0.891, -0.8549805, 0.891, -0.1972656, 0.0342692, -0.0052033, 0.891, 0.1279297, 0.891, -0.934082, 0.891, 0.09375, 0.0342692, 0.0384375, 0.891, -0.3071289, 0.891, -0.9072266, 0.891, 0.0664062, , , , , , , , , , , , , , , , , , , , , , 
0.0347885, 0.012253, 0.9045, -0.2763672, 0.9045, -0.8740234, 0.9045, 0.1674805, 0.0347885, -0.0058747, 0.9045, 0.3691406, 0.9045, -0.8378906, 0.9045, -0.1972656, 0.0347885, -0.0068818, 0.9045, 0.1279297, 0.9045, -0.9228516, 0.9045, 0.0957031, 0.0347885, 0.0372625, 0.9045, -0.2958984, 0.9045, -0.8911133, 0.9045, 0.0629883, , , , , , , , , , , , , , , , , , , , , , 
0.0353077, 0.0105745, 0.918, -0.2763672, 0.918, -0.8632812, 0.918, 0.1611328, 0.0353077, -0.0068818, 0.918, 0.3706055, 0.918, -0.8330078, 0.918, -0.1894531, 0.0353077, -0.0072175, 0.918, 0.125, 0.918, -0.9155273, 0.918, 0.0961914, 0.0353077, 0.0322271, 0.918, -0.293457, 0.918, -0.8876953, 0.918, 0.0625, , , , , , , , , , , , , , , , , , , , , , 
0.0358269, 0.0114137, 0.9315, -0.2768555, 0.9315, -0.8505859, 0.9315, 0.1567383, 0.0358269, -0.0082246, 0.9315, 0.3657227, 0.9315, -0.8227539, 0.9315, -0.1801758, 0.0358269, -0.0082246, 0.9315, 0.1230469, 0.9315, -0.9003906, 0.9315, 0.0961914, 0.0358269, 0.0271916, 0.9315, -0.2890625, 0.9315, -0.8764648, 0.9315, 0.0664062, , , , , , , , , , , , , , , , , , , , , , 
0.0363462, 0.0140993, 0.945, -0.2675781, 0.945, -0.8320312, 0.945, 0.1616211, 0.0363462, -0.0070497, 0.945, 0.3588867, 0.945, -0.8007812, 0.945, -0.1811523, 0.0363462, -0.008896, 0.945, 0.1333008, 0.945, -0.8808594, 0.945, 0.0927734, 0.0363462, 0.0243381, 0.945, -0.2753906, 0.945, -0.8613281, 0.945, 0.0634766, , , , , , , , , , , , , , , , , , , , , , 
0.0368654, 0.0125887, 0.9585, -0.25, 0.9585, -0.8149414, 0.9585, 0.1542969, 0.0368654, -0.0062104, 0.9585, 0.355957, 0.9585, -0.7802734, 0.9585, -0.184082, 0.0368654, -0.0058747, 0.9585, 0.1455078, 0.9585, -0.8540039, 0.9585, 0.0961914, 0.0368654, 0.0219883, 0.9585, -0.2578125, 0.9585, -0.8422852, 0.9585, 0.0615234, , , , , , , , , , , , , , , , , , , , , , 
0.0373846, 0.0102388, 0.972, -0.2592773, 0.972, -0.7993164, 0.972, 0.1401367, 0.0373846, -0.0058747, 0.972, 0.3500977, 0.972, -0.769043, 0.972, -0.1767578, 0.0373846, -0.002182, 0.972, 0.1503906, 0.972, -0.8413086, 0.972, 0.0898438, 0.0373846, 0.0184634, 0.972, -0.2480469, 0.972, -0.8339844, 0.972, 0.0576172, , , , , , , , , , , , , , , , , , , , , , 
0.0379038, 0.0112459, 0.9855, -0.2680664, 0.9855, -0.7851562, 0.9855, 0.1333008, 0.0379038, -0.0082246, 0.9855, 0.3291016, 0.9855, -0.7636719, 0.9855, -0.1669922, 0.0379038, -0.002182, 0.9855, 0.1362305, 0.9855, -0.8305664, 0.9855, 0.0810547, 0.0379038, 0.0149386, 0.9855, -0.2402344, 0.9855, -0.8144531, 0.9855, 0.0527344, , , , , , , , , , , , , , , , , , , , , , 
0.0384231, 0.0112459, 0.999, -0.2436523, 0.999, -0.7666016, 0.999, 0.1303711, 0.0384231, -0.0090639, 0.999, 0.3212891, 0.999, -0.7524414, 0.999, -0.1640625, 0.0384231, -0.0048676, 0.999, 0.1181641, 0.999, -0.8066406, 0.999, 0.0751953, 0.0384231, 0.0125887, 0.999, -0.2324219, 0.999, -0.7836914, 0.999, 0.0581055, , , , , , , , , , , , , , , , , , , , , , 
0.0389423, 0.0124208, 1.0125, -0.2265625, 1.0125, -0.7519531, 1.0125, 0.128418, 0.0389423, -0.0092317, 1.0125, 0.3129883, 1.0125, -0.715332, 1.0125, -0.1689453, 0.0389423, -0.0062104, 1.0125, 0.109375, 1.0125, -0.7822266, 1.0125, 0.0717773, 0.0389423, 0.0115816, 1.0125, -0.2177734, 1.0125, -0.7509766, 1.0125, 0.0668945, , , , , , , , , , , , , , , , , , , , , , 
0.0394615, 0.0164492, 1.026, -0.1967773, 1.026, -0.7182617, 1.026, 0.1220703, 0.0394615, -0.0075532, 1.026, 0.3012695, 1.026, -0.6791992, 1.026, -0.1738281, 0.0394615, -0.0082246, 1.026, 0.1230469, 1.026, -0.7333984, 1.026, 0.0576172, 0.0394615, 0.0095674, 1.026, -0.199707, 1.026, -0.7163086, 1.026, 0.0639648, , , , , , , , , , , , , , , , , , , , , , 
0.0399808, 0.0171206, 1.0395, -0.1816406, 1.0395, -0.6865234, 1.0395, 0.1040039, 0.0399808, -0.0058747, 1.0395, 0.2783203, 1.0395, -0.6552734, 1.0395, -0.1689453, 0.0399808, -0.0109102, 1.0395, 0.1396484, 1.0395, -0.6899414, 1.0395, 0.0390625, 0.0399808, 0.0078889, 1.0395, -0.190918, 1.0395, -0.6821289, 1.0395, 0.0664062, , , , , , , , , , , , , , , , , , , , , , 
0.0405, 0.0159457, 1.053, -0.1816406, 1.053, -0.6542969, 1.053, 0.0927734, 0.0405, -0.0075532, 1.053, 0.2485352, 1.053, -0.628418, 1.053, -0.1611328, 0.0405, -0.012253, 1.053, 0.1347656, 1.053, -0.6557617, 1.053, 0.027832, 0.0405, 0.0085603, 1.053, -0.1816406, 1.053, -0.6464844, 1.053, 0.0668945, , , , , , , , , , , , , , , , , , , , , , 
0.0410192, 0.0182956, 1.0665, -0.1816406, 1.0665, -0.6323242, 1.0665, 0.0786133, 0.0410192, -0.008896, 1.0665, 0.2294922, 1.0665, -0.5947266, 1.0665, -0.1499023, 0.0410192, -0.0099031, 1.0665, 0.1259766, 1.0665, -0.628418, 1.0665, 0.0205078, 0.0410192, 0.0078889, 1.0665, -0.1762695, 1.0665, -0.6323242, 1.0665, 0.0629883, , , , , , , , , , , , , , , , , , , , , , 
0.0415385, 0.0223239, 1.08, -0.1723633, 1.08, -0.6123047, 1.08, 0.0678711, 0.0415385, -0.0082246, 1.08, 0.2304688, 1.08, -0.5629883, 1.08, -0.1469727, 0.0415385, -0.0073854, 1.08, 0.1191406, 1.08, -0.6035156, 1.08, 0.012207, 0.0415385, 0.008896, 1.08, -0.1635742, 1.08, -0.6020508, 1.08, 0.0571289, , , , , , , , , , , , , , , , , , , , , , 
0.0420577, 0.0240024, 1.0935, -0.1582031, 1.0935, -0.5981445, 1.0935, 0.0566406, 0.0420577, -0.0072175, 1.0935, 0.2358398, 1.0935, -0.5512695, 1.0935, -0.1337891, 0.0420577, -0.0065461, 1.0935, 0.1074219, 1.0935, -0.5888672, 1.0935, -0.0048828, 0.0420577, 0.0085603, 1.0935, -0.144043, 1.0935, -0.5800781, 1.0935, 0.0493164, , , , , , , , , , , , , , , , , , , , , , 
0.0425769, 0.023331, 1.107, -0.1381836, 1.107, -0.5874023, 1.107, 0.0454102, 0.0425769, -0.0068818, 1.107, 0.237793, 1.107, -0.5400391, 1.107, -0.1201172, 0.0425769, -0.0068818, 1.107, 0.0864258, 1.107, -0.574707, 1.107, -0.0170898, 0.0425769, 0.0052033, 1.107, -0.1166992, 1.107, -0.5629883, 1.107, 0.0336914, , , , , , , , , , , , , , , , , , , , , , 
0.0430962, 0.0226596, 1.1205, -0.1166992, 1.1205, -0.5576172, 1.1205, 0.0317383, 0.0430962, -0.0082246, 1.1205, 0.230957, 1.1205, -0.53125, 1.1205, -0.1132812, 0.0430962, -0.0082246, 1.1205, 0.0820312, 1.1205, -0.5366211, 1.1205, -0.0253906, 0.0430962, 0.0048676, 1.1205, -0.0771484, 1.1205, -0.5444336, 1.1205, 0.0205078, , , , , , , , , , , , , , , , , , , , , , 
0.0436154, 0.023331, 1.134, -0.109375, 1.134, -0.5268555, 1.134, 0.0297852, 0.0436154, -0.0095674, 1.134, 0.1958008, 1.134, -0.5024414, 1.134, -0.1132812, 0.0436154, -0.0095674, 1.134, 0.0961914, 1.134, -0.4936523, 1.134, -0.0400391, 0.0436154, 0.0043641, 1.134, -0.0488281, 1.134, -0.5141602, 1.134, 0.0146484, , , , , , , , , , , , , , , , , , , , , , 
0.0441346, 0.0209812, 1.1475, -0.1210938, 1.1475, -0.515625, 1.1475, 0.0288086, 0.0441346, -0.0102388, 1.1475, 0.159668, 1.1475, -0.4755859, 1.1475, -0.1376953, 0.0441346, -0.0102388, 1.1475, 0.1015625, 1.1475, -0.4804688, 1.1475, -0.0541992, 0.0441346, 0.0041962, 1.1475, -0.0429688, 1.1475, -0.4892578, 1.1475, 0.0131836, , , , , , , , , , , , , , , , , , , , , , 
0.0446538, 0.0152743, 1.161, -0.1328125, 1.161, -0.5317383, 1.161, 0.0102539, 0.0446538, -0.0082246, 1.161, 0.15625, 1.161, -0.4711914, 1.161, -0.1337891, 0.0446538, -0.011078, 1.161, 0.1030273, 1.161, -0.4833984, 1.161, -0.0805664, 0.0446538, 0.0038605, 1.161, -0.0405273, 1.161, -0.4853516, 1.161, 0.0131836, , , , , , , , , , , , , , , , , , , , , , 
0.0451731, 0.0151064, 1.1745, -0.1347656, 1.1745, -0.5341797, 1.1745, -0.0053711, 0.0451731, -0.0068818, 1.1745, 0.1728516, 1.1745, -0.480957, 1.1745, -0.0991211, 0.0451731, -0.0095674, 1.1745, 0.1054688, 1.1745, -0.5161133, 1.1745, -0.0932617, 0.0451731, -0.0015106, 1.1745, -0.0151367, 1.1745, -0.4956055, 1.1745, 0.0063477, , , , , , , , , , , , , , , , , , , , , , 
0.0456923, 0.0179599, 1.188, -0.1293945, 1.188, -0.5483398, 1.188, -0.0234375, 0.0456923, -0.0082246, 1.188, 0.1870117, 1.188, -0.4985352, 1.188, -0.0644531, 0.0456923, -0.0065461, 1.188, 0.1064453, 1.188, -0.546875, 1.188, -0.1025391, 0.0456923, -0.0072175, 1.188, 0.0395508, 1.188, -0.5126953, 1.188, -0.0112305, , , , , , , , , , , , , , , , , , , , , , 
0.0462115, 0.0146029, 1.2015, -0.1201172, 1.2015, -0.5708008, 1.2015, -0.0327148, 0.0462115, -0.0085603, 1.2015, 0.1791992, 1.2015, -0.515625, 1.2015, -0.0693359, 0.0462115, -0.008896, 1.2015, 0.0825195, 1.2015, -0.5395508, 1.2015, -0.1318359, 0.0462115, -0.0105745, 1.2015, 0.1049805, 1.2015, -0.5102539, 1.2015, -0.0439453, , , , , , , , , , , , , , , , , , , , , , 
0.0467308, 0.0099031, 1.215, -0.1064453, 1.215, -0.5874023, 1.215, -0.0224609, 0.0467308, -0.0075532, 1.215, 0.1591797, 1.215, -0.5336914, 1.215, -0.1015625, 0.0467308, -0.0115816, 1.215, 0.0415039, 1.215, -0.5195312, 1.215, -0.1899414, 0.0467308, -0.0125887, 1.215, 0.1220703, 1.215, -0.5078125, 1.215, -0.0561523, , , , , , , , , , , , , , , , , , , , , , 
0.04725, 0.0132601, 1.2285, -0.1049805, 1.2285, -0.6020508, 1.2285, -0.0166016, 0.04725, -0.0062104, 1.2285, 0.1352539, 1.2285, -0.5595703, 1.2285, -0.1142578, 0.04725, -0.012253, 1.2285, 0.0083008, 1.2285, -0.5537109, 1.2285, -0.2172852, 0.04725, -0.0130922, 1.2285, 0.1337891, 1.2285, -0.5332031, 1.2285, -0.0654297, , , , , , , , , , , , , , , , , , , , , , 
0.0477692, 0.0172885, 1.242, -0.1567383, 1.242, -0.6386719, 1.242, -0.0253906, 0.0477692, -0.0065461, 1.242, 0.1303711, 1.242, -0.5800781, 1.242, -0.1083984, 0.0477692, -0.0109102, 1.242, 0.0102539, 1.242, -0.637207, 1.242, -0.2294922, 0.0477692, -0.0114137, 1.242, 0.1464844, 1.242, -0.6015625, 1.242, -0.0727539, , , , , , , , , , , , , , , , , , , , , , 
0.0482885, 0.0184634, 1.2555, -0.2119141, 1.2555, -0.6899414, 1.2555, -0.0581055, 0.0482885, -0.0058747, 1.2555, 0.1196289, 1.2555, -0.6254883, 1.2555, -0.0976562, 0.0482885, -0.0112459, 1.2555, 0.046875, 1.2555, -0.7241211, 1.2555, -0.215332, 0.0482885, -0.0082246, 1.2555, 0.1689453, 1.2555, -0.6762695, 1.2555, -0.0712891, , , , , , , , , , , , , , , , , , , , , , 
0.0488077, 0.0129244, 1.269, -0.2163086, 1.269, -0.746582, 1.269, -0.0703125, 0.0488077, -0.005539, 1.269, 0.1264648, 1.269, -0.6728516, 1.269, -0.0805664, 0.0488077, -0.0115816, 1.269, 0.0708008, 1.269, -0.7495117, 1.269, -0.2138672, 0.0488077, -0.0058747, 1.269, 0.199707, 1.269, -0.7104492, 1.269, -0.0512695, , , , , , , , , , , , , , , , , , , , , , 
0.0493269, 0.0065461, 1.2825, -0.1796875, 1.2825, -0.7827148, 1.2825, -0.0385742, 0.0493269, -0.0068818, 1.2825, 0.1635742, 1.2825, -0.7128906, 1.2825, -0.0703125, 0.0493269, -0.0135958, 1.2825, 0.1171875, 1.2825, -0.7509766, 1.2825, -0.2446289, 0.0493269, -0.002182, 1.2825, 0.2314453, 1.2825, -0.7055664, 1.2825, -0.0405273, , , , , , , , , , , , , , , , , , , , , , 
0.0498462, 0.0041962, 1.296, -0.1806641, 1.296, -0.7998047, 1.296, -0.0009766, 0.0498462, -0.0078889, 1.296, 0.1962891, 1.296, -0.7353516, 1.296, -0.0786133, 0.0498462, -0.0129244, 1.296, 0.1391602, 1.296, -0.7416992, 1.296, -0.2851562, 0.0498462, 0.0041962, 1.296, 0.2709961, 1.296, -0.7128906, 1.296, -0.0493164, , , , , , , , , , , , , , , , , , , , , , 
0.0503654, 0.0070497, 1.3095, -0.1982422, 1.3095, -0.8222656, 1.3095, -0.0209961, 0.0503654, -0.0072175, 1.3095, 0.1831055, 1.3095, -0.7763672, 1.3095, -0.1123047, 0.0503654, -0.0087282, 1.3095, 0.1362305, 1.3095, -0.7783203, 1.3095, -0.3168945, 0.0503654, 0.0095674, 1.3095, 0.2983398, 1.3095, -0.7612305, 1.3095, -0.0600586, , , , , , , , , , , , , , , , , , , , , , 
0.0508846, 0.0065461, 1.323, -0.1865234, 1.323, -0.8569336, 1.323, -0.046875, 0.0508846, -0.0052033, 1.323, 0.1538086, 1.323, -0.8037109, 1.323, -0.152832, 0.0508846, -0.0068818, 1.323, 0.0986328, 1.323, -0.8408203, 1.323, -0.3261719, 0.0508846, 0.0132601, 1.323, 0.28125, 1.323, -0.8432617, 1.323, -0.0537109, , , , , , , , , , , , , , , , , , , , , , 
0.0514038, 0.0070497, 1.3365, -0.1459961, 1.3365, -0.9301758, 1.3365, -0.0410156, 0.0514038, -0.0031891, 1.3365, 0.1557617, 1.3365, -0.8447266, 1.3365, -0.1318359, 0.0514038, -0.0082246, 1.3365, 0.0483398, 1.3365, -0.8759766, 1.3365, -0.3081055, 0.0514038, 0.0176242, 1.3365, 0.246582, 1.3365, -0.9023438, 1.3365, -0.0317383, , , , , , , , , , , , , , , , , , , , , , 
0.0519231, 0.0109102, 1.35, -0.1333008, 1.35, -0.9692383, 1.35, -0.0307617, 0.0519231, -0.0035248, 1.35, 0.2026367, 1.35, -0.8974609, 1.35, -0.0820312, 0.0519231, -0.0095674, 1.35, 0.0429688, 1.35, -0.8925781, 1.35, -0.3193359, 0.0519231, 0.0226596, 1.35, 0.2329102, 1.35, -0.8974609, 1.35, -0.0136719, , , , , , , , , , , , , , , , , , , , , , 
0.0524423, 0.01561, 1.3635, -0.1748047, 1.3635, -1.0009766, 1.3635, -0.0273438, 0.0524423, -0.0038605, 1.3635, 0.2275391, 1.3635, -0.918457, 1.3635, -0.0727539, 0.0524423, -0.0078889, 1.3635, 0.0419922, 1.3635, -0.9125977, 1.3635, -0.34375, 0.0524423, 0.0270237, 1.3635, 0.237793, 1.3635, -0.8793945, 1.3635, -0.0117188, , , , , , , , , , , , , , , , , , , , , , 
0.0529615, 0.0182956, 1.377, -0.2670898, 1.377, -0.9799805, 1.377, -0.0253906, 0.0529615, -0.0041962, 1.377, 0.2524414, 1.377, -0.9443359, 1.377, -0.0883789, 0.0529615, -0.0063783, 1.377, 0.0708008, 1.377, -0.9321289, 1.377, -0.3920898, 0.0529615, 0.0340734, 1.377, 0.2504883, 1.377, -0.862793, 1.377, -0.0170898, , , , , , , , , , , , , , , , , , , , , , 
0.0534808, 0.01561, 1.3905, -0.2939453, 1.3905, -0.96875, 1.3905, -0.0087891, 0.0534808, -0.0041962, 1.3905, 0.2177734, 1.3905, -0.9599609, 1.3905, -0.1367188, 0.0534808, -0.0050355, 1.3905, 0.128418, 1.3905, -0.9624023, 1.3905, -0.3720703, 0.0534808, 0.0394446, 1.3905, 0.2827148, 1.3905, -0.8979492, 1.3905, -0.0117188, , , , , , , , , , , , , , , , , , , , , , 
0.054, 0.0102388, 1.404, -0.2480469, 1.404, -1.0014648, 1.404, 0.0239258, 0.054, -0.0041962, 1.404, 0.1645508, 1.404, -0.9648438, 1.404, -0.1811523, 0.054, -0.0035248, 1.404, 0.1669922, 1.404, -0.9873047, 1.404, -0.3466797, 0.054, 0.0407874, 1.404, 0.3212891, 1.404, -0.9760742, 1.404, 0.0180664, , , , , , , , , , , , , , , , , , , , , , 
0.0545192, 0.0099031, 1.4175, -0.2124023, 1.4175, -1.065918, 1.4175, 0.0449219, 0.0545192, -0.005539, 1.4175, 0.1674805, 1.4175, -0.9946289, 1.4175, -0.1708984, 0.0545192, -0.0035248, 1.4175, 0.2319336, 1.4175, -1.0449219, 1.4175, -0.3208008, 0.0545192, 0.0411231, 1.4175, 0.3457031, 1.4175, -1.0673828, 1.4175, 0.0307617, , , , , , , , , , , , , , , , , , , , , , 
0.0550385, 0.0119173, 1.431, -0.2641602, 1.431, -1.1298828, 1.431, 0.0629883, 0.0550385, -0.0062104, 1.431, 0.265625, 1.431, -1.0483398, 1.431, -0.1459961, 0.0550385, -0.0025177, 1.431, 0.2436523, 1.431, -1.0922852, 1.431, -0.3120117, 0.0550385, 0.0406195, 1.431, 0.3510742, 1.431, -1.1240234, 1.431, 0.0351562, , , , , , , , , , , , , , , , , , , , , , 
0.0555577, 0.0139315, 1.4445, -0.3398438, 1.4445, -1.1669922, 1.4445, 0.0683594, 0.0555577, -0.0050355, 1.4445, 0.3720703, 1.4445, -1.1186523, 1.4445, -0.1162109, 0.0555577, -0.0023499, 1.4445, 0.2480469, 1.4445, -1.1264648, 1.4445, -0.2958984, 0.0555577, 0.0347448, 1.4445, 0.3125, 1.4445, -1.1279297, 1.4445, 0.0244141, , , , , , , , , , , , , , , , , , , , , , 
0.0560769, 0.0166171, 1.458, -0.3378906, 1.458, -1.1772461, 1.458, 0.0786133, 0.0560769, -0.0048676, 1.458, 0.4003906, 1.458, -1.1606445, 1.458, -0.1166992, 0.0560769, -0.0031891, 1.458, 0.262207, 1.458, -1.1469727, 1.458, -0.2885742, 0.0560769, 0.0273594, 1.458, 0.25, 1.458, -1.1147461, 1.458, 0.0180664, , , , , , , , , , , , , , , , , , , , , , 
0.0565962, 0.0199741, 1.4715, -0.2749023, 1.4715, -1.1806641, 1.4715, 0.1000977, 0.0565962, -0.0062104, 1.4715, 0.3696289, 1.4715, -1.1606445, 1.4715, -0.1445312, 0.0565962, -0.0038605, 1.4715, 0.2539062, 1.4715, -1.1381836, 1.4715, -0.3032227, 0.0565962, 0.0216526, 1.4715, 0.2060547, 1.4715, -1.1411133, 1.4715, 0.0439453, , , , , , , , , , , , , , , , , , , , , , 
0.0571154, 0.024506, 1.485, -0.2143555, 1.485, -1.2080078, 1.485, 0.0986328, 0.0571154, -0.0063783, 1.485, 0.3613281, 1.485, -1.1708984, 1.485, -0.1494141, 0.0571154, -0.0043641, 1.485, 0.2304688, 1.485, -1.1308594, 1.485, -0.3007812, 0.0571154, 0.0179599, 1.485, 0.1757812, 1.485, -1.1918945, 1.485, 0.0922852, , , , , , , , , , , , , , , , , , , , , , 
0.0576346, 0.0273594, 1.4985, -0.2700195, 1.4985, -1.2421875, 1.4985, 0.1186523, 0.0576346, -0.0075532, 1.4985, 0.3730469, 1.4985, -1.1845703, 1.4985, -0.1484375, 0.0576346, -0.0075532, 1.4985, 0.2207031, 1.4985, -1.1352539, 1.4985, -0.2807617, 0.0576346, 0.0159457, 1.4985, 0.1777344, 1.4985, -1.1967773, 1.4985, 0.1196289, , , , , , , , , , , , , , , , , , , , , , 
0.0581538, 0.0243381, 1.512, -0.3198242, 1.512, -1.2382812, 1.512, 0.1201172, 0.0581538, -0.0075532, 1.512, 0.3950195, 1.512, -1.1987305, 1.512, -0.1459961, 0.0581538, -0.0099031, 1.512, 0.2382812, 1.512, -1.1381836, 1.512, -0.2763672, 0.0581538, 0.0149386, 1.512, 0.1821289, 1.512, -1.1772461, 1.512, 0.1279297, , , , , , , , , , , , , , , , , , , , , , 
0.0586731, 0.0226596, 1.5255, -0.3789062, 1.5255, -1.2055664, 1.5255, 0.109375, 0.0586731, -0.0070497, 1.5255, 0.3964844, 1.5255, -1.1757812, 1.5255, -0.1508789, 0.0586731, -0.0083925, 1.5255, 0.2758789, 1.5255, -1.1484375, 1.5255, -0.2905273, 0.0586731, 0.0146029, 1.5255, 0.175293, 1.5255, -1.1547852, 1.5255, 0.1191406, , , , , , , , , , , , , , , , , , , , , , 
0.0591923, 0.023331, 1.539, -0.3359375, 1.539, -1.1806641, 1.539, 0.1333008, 0.0591923, -0.0068818, 1.539, 0.3945312, 1.539, -1.1445312, 1.539, -0.1484375, 0.0591923, -0.0063783, 1.539, 0.2807617, 1.539, -1.140625, 1.539, -0.2978516, 0.0591923, 0.0132601, 1.539, 0.2036133, 1.539, -1.1567383, 1.539, 0.0976562, , , , , , , , , , , , , , , , , , , , , , 
0.0597115, 0.0226596, 1.5525, -0.3125, 1.5525, -1.1513672, 1.5525, 0.1855469, 0.0597115, -0.0068818, 1.5525, 0.4199219, 1.5525, -1.1171875, 1.5525, -0.137207, 0.0597115, -0.0068818, 1.5525, 0.2666016, 1.5525, -1.1176758, 1.5525, -0.3046875, 0.0597115, 0.0099031, 1.5525, 0.2578125, 1.5525, -1.1376953, 1.5525, 0.0952148, , , , , , , , , , , , , , , , , , , , , , 
0.0602308, 0.0198062, 1.566, -0.3447266, 1.566, -1.1357422, 1.566, 0.1831055, 0.0602308, -0.0077211, 1.566, 0.4511719, 1.566, -1.0991211, 1.566, -0.140625, 0.0602308, -0.0063783, 1.566, 0.2294922, 1.566, -1.1064453, 1.566, -0.2929688, 0.0602308, 0.0068818, 1.566, 0.2797852, 1.566, -1.1166992, 1.566, 0.0791016, , , , , , , , , , , , , , , , , , , , , , 
0.06075, 0.018967, 1.5795, -0.3457031, 1.5795, -1.1494141, 1.5795, 0.1889648, 0.06075, -0.0082246, 1.5795, 0.4736328, 1.5795, -1.0986328, 1.5795, -0.1401367, 0.06075, -0.0057069, 1.5795, 0.2436523, 1.5795, -1.1020508, 1.5795, -0.2783203, 0.06075, 0.0072175, 1.5795, 0.2714844, 1.5795, -1.1132812, 1.5795, 0.0600586, , , , , , , , , , , , , , , , , , , , , , 
0.0612692, 0.0193027, 1.593, -0.3603516, 1.593, -1.1645508, 1.593, 0.1796875, 0.0612692, -0.0095674, 1.593, 0.4819336, 1.593, -1.1196289, 1.593, -0.1259766, 0.0612692, -0.0062104, 1.593, 0.2597656, 1.593, -1.1381836, 1.593, -0.277832, 0.0612692, 0.0085603, 1.593, 0.2294922, 1.593, -1.1401367, 1.593, 0.0458984, , , , , , , , , , , , , , , , , , , , , , 
0.0617885, 0.0152743, 1.6065, -0.4545898, 1.6065, -1.1625977, 1.6065, 0.1845703, 0.0617885, -0.0102388, 1.6065, 0.4819336, 1.6065, -1.1230469, 1.6065, -0.0957031, 0.0617885, -0.0062104, 1.6065, 0.2514648, 1.6065, -1.1816406, 1.6065, -0.2617188, 0.0617885, 0.0078889, 1.6065, 0.1972656, 1.6065, -1.1801758, 1.6065, 0.0581055, , , , , , , , , , , , , , , , , , , , , , 
0.0623077, 0.0077211, 1.62, -0.543457, 1.62, -1.137207, 1.62, 0.1787109, 0.0623077, -0.0112459, 1.62, 0.480957, 1.62, -1.1240234, 1.62, -0.0678711, 0.0623077, -0.0062104, 1.62, 0.2626953, 1.62, -1.2050781, 1.62, -0.2475586, 0.0623077, 0.0075532, 1.62, 0.1918945, 1.62, -1.2075195, 1.62, 0.0791016, , , , , , , , , , , , , , , , , , , , , , 
0.0628269, 0.0052033, 1.6335, -0.5048828, 1.6335, -1.1352539, 1.6335, 0.1748047, 0.0628269, -0.0115816, 1.6335, 0.4804688, 1.6335, -1.097168, 1.6335, -0.0620117, 0.0628269, -0.0068818, 1.6335, 0.2807617, 1.6335, -1.2041016, 1.6335, -0.2553711, 0.0628269, 0.0092317, 1.6335, 0.2128906, 1.6335, -1.2075195, 1.6335, 0.0664062, , , , , , , , , , , , , , , , , , , , , , 
0.0633462, 0.0025177, 1.647, -0.4169922, 1.647, -1.1743164, 1.647, 0.2070312, 0.0633462, -0.0109102, 1.647, 0.5478516, 1.647, -1.0683594, 1.647, -0.0551758, 0.0633462, -0.0072175, 1.647, 0.2719727, 1.647, -1.2294922, 1.647, -0.2578125, 0.0633462, 0.0117494, 1.647, 0.25, 1.647, -1.206543, 1.647, 0.0263672, , , , , , , , , , , , , , , , , , , , , , 
0.0638654, 0.0025177, 1.6605, -0.3984375, 1.6605, -1.2192383, 1.6605, 0.2456055, 0.0638654, -0.0102388, 1.6605, 0.6777344, 1.6605, -1.0791016, 1.6605, -0.0141602, 0.0638654, -0.0063783, 1.6605, 0.2773438, 1.6605, -1.265625, 1.6605, -0.2558594, 0.0638654, 0.0139315, 1.6605, 0.2958984, 1.6605, -1.2412109, 1.6605, -0.0253906, , , , , , , , , , , , , , , , , , , , , , 
0.0643846, 0.0068818, 1.674, -0.4921875, 1.674, -1.2407227, 1.674, 0.2651367, 0.0643846, -0.0105745, 1.674, 0.7739258, 1.674, -1.1074219, 1.674, -0.0180664, 0.0643846, -0.0057069, 1.674, 0.2446289, 1.674, -1.3520508, 1.674, -0.234375, 0.0643846, 0.0132601, 1.674, 0.3261719, 1.674, -1.2636719, 1.674, -0.0507812, , , , , , , , , , , , , , , , , , , , , , 
0.0649038, 0.0105745, 1.6875, -0.5507812, 1.6875, -1.2338867, 1.6875, 0.2431641, 0.0649038, -0.0124208, 1.6875, 0.7875977, 1.6875, -1.1425781, 1.6875, -0.0341797, 0.0649038, -0.0050355, 1.6875, 0.1875, 1.6875, -1.3964844, 1.6875, -0.2197266, 0.0649038, 0.0073854, 1.6875, 0.3652344, 1.6875, -1.2973633, 1.6875, -0.0771484, , , , , , , , , , , , , , , , , , , , , , 
0.0654231, 0.0119173, 1.701, -0.6030273, 1.701, -1.2143555, 1.701, 0.2358398, 0.0654231, -0.0132601, 1.701, 0.7255859, 1.701, -1.215332, 1.701, -0.0131836, 0.0654231, -0.0041962, 1.701, 0.1835938, 1.701, -1.355957, 1.701, -0.253418, 0.0654231, 0.0005035, 1.701, 0.3300781, 1.701, -1.3041992, 1.701, -0.0649414, , , , , , , , , , , , , , , , , , , , , , 
0.0659423, 0.0097353, 1.7145, -0.6064453, 1.7145, -1.1958008, 1.7145, 0.2709961, 0.0659423, -0.0105745, 1.7145, 0.675293, 1.7145, -1.2407227, 1.7145, 0.0019531, 0.0659423, -0.0041962, 1.7145, 0.2773438, 1.7145, -1.2919922, 1.7145, -0.2792969, 0.0659423, -0.0045319, 1.7145, 0.269043, 1.7145, -1.3071289, 1.7145, -0.0102539, , , , , , , , , , , , , , , , , , , , , , 
0.0664615, 0.008896, 1.728, -0.5791016, 1.728, -1.1708984, 1.728, 0.2714844, 0.0664615, -0.008896, 1.728, 0.6728516, 1.728, -1.2050781, 1.728, -0.0024414, 0.0664615, -0.0058747, 1.728, 0.4003906, 1.728, -1.2749023, 1.728, -0.2670898, 0.0664615, -0.0082246, 1.728, 0.2387695, 1.728, -1.3276367, 1.728, 0.0712891, , , , , , , , , , , , , , , , , , , , , , 
0.0669808, 0.0099031, 1.7415, -0.5576172, 1.7415, -1.1650391, 1.7415, 0.2563477, 0.0669808, -0.0102388, 1.7415, 0.6743164, 1.7415, -1.1850586, 1.7415, -0.027832, 0.0669808, -0.0075532, 1.7415, 0.4707031, 1.7415, -1.2875977, 1.7415, -0.2285156, 0.0669808, -0.008896, 1.7415, 0.2207031, 1.7415, -1.340332, 1.7415, 0.1474609, , , , , , , , , , , , , , , , , , , , , , 
0.0675, 0.0142672, 1.755, -0.5791016, 1.755, -1.1630859, 1.755, 0.2822266, 0.0675, -0.012253, 1.755, 0.6206055, 1.755, -1.1762695, 1.755, -0.0800781, 0.0675, -0.0075532, 1.755, 0.4575195, 1.755, -1.2949219, 1.755, -0.1933594, 0.0675, -0.008896, 1.755, 0.1762695, 1.755, -1.3237305, 1.755, 0.1821289, , , , , , , , , , , , , , , , , , , , , , 
0.0680192, 0.0166171, 1.7685, -0.6279297, 1.7685, -1.1420898, 1.7685, 0.2919922, 0.0680192, -0.012253, 1.7685, 0.5444336, 1.7685, -1.2021484, 1.7685, -0.0668945, 0.0680192, -0.0065461, 1.7685, 0.4130859, 1.7685, -1.2768555, 1.7685, -0.2426758, 0.0680192, -0.0072175, 1.7685, 0.1582031, 1.7685, -1.3105469, 1.7685, 0.1928711, , , , , , , , , , , , , , , , , , , , , , 
0.0685385, 0.0151064, 1.782, -0.7006836, 1.782, -1.1293945, 1.782, 0.2958984, 0.0685385, -0.0102388, 1.782, 0.5488281, 1.782, -1.2089844, 1.782, -0.0087891, 0.0685385, -0.0070497, 1.782, 0.3598633, 1.782, -1.2641602, 1.782, -0.2626953, 0.0685385, -0.0036927, 1.782, 0.1767578, 1.782, -1.3432617, 1.782, 0.1948242, , , , , , , , , , , , , , , , , , , , , , 
0.0690577, 0.0115816, 1.7955, -0.7441406, 1.7955, -1.1166992, 1.7955, 0.2685547, 0.0690577, -0.0085603, 1.7955, 0.5986328, 1.7955, -1.2158203, 1.7955, 0.0249023, 0.0690577, -0.0078889, 1.7955, 0.3505859, 1.7955, -1.269043, 1.7955, -0.2451172, 0.0690577, -0.0008392, 1.7955, 0.1333008, 1.7955, -1.3916016, 1.7955, 0.1850586, , , , , , , , , , , , , , , , , , , , , , 
0.0695769, 0.0105745, 1.809, -0.7275391, 1.809, -1.1220703, 1.809, 0.2988281, 0.0695769, -0.0102388, 1.809, 0.6611328, 1.809, -1.2109375, 1.809, 0.0209961, 0.0695769, -0.0082246, 1.809, 0.3320312, 1.809, -1.293457, 1.809, -0.2202148, 0.0695769, 0.002182, 1.809, 0.0415039, 1.809, -1.4086914, 1.809, 0.1635742, , , , , , , , , , , , , , , , , , , , , , 
0.0700962, 0.0078889, 1.8225, -0.6601562, 1.8225, -1.1484375, 1.8225, 0.3041992, 0.0700962, -0.0115816, 1.8225, 0.7084961, 1.8225, -1.1875, 1.8225, 0.0209961, 0.0700962, -0.0073854, 1.8225, 0.3037109, 1.8225, -1.3081055, 1.8225, -0.2133789, 0.0700962, 0.0085603, 1.8225, 0.015625, 1.8225, -1.4023438, 1.8225, 0.1582031, , , , , , , , , , , , , , , , , , , , , , 
0.0706154, 0.0048676, 1.836, -0.6162109, 1.836, -1.1679688, 1.836, 0.2924805, 0.0706154, -0.0095674, 1.836, 0.7236328, 1.836, -1.1923828, 1.836, 0.0429688, 0.0706154, -0.0063783, 1.836, 0.3129883, 1.836, -1.3066406, 1.836, -0.1831055, 0.0706154, 0.0139315, 1.836, 0.0107422, 1.836, -1.3867188, 1.836, 0.1494141, , , , , , , , , , , , , , , , , , , , , , 
0.0711346, 0.0046998, 1.8495, -0.6328125, 1.8495, -1.1533203, 1.8495, 0.3100586, 0.0711346, -0.0082246, 1.8495, 0.7099609, 1.8495, -1.1582031, 1.8495, 0.0498047, 0.0711346, -0.005539, 1.8495, 0.3173828, 1.8495, -1.2866211, 1.8495, -0.1606445, 0.0711346, 0.0196384, 1.8495, 0.0683594, 1.8495, -1.3618164, 1.8495, 0.1430664, , , , , , , , , , , , , , , , , , , , , , 
0.0716538, 0.0072175, 1.863, -0.6816406, 1.863, -1.0766602, 1.863, 0.3037109, 0.0716538, -0.0092317, 1.863, 0.7104492, 1.863, -1.1196289, 1.863, 0.0639648, 0.0716538, -0.0048676, 1.863, 0.347168, 1.863, -1.2641602, 1.863, -0.1689453, 0.0716538, 0.0260166, 1.863, 0.1210938, 1.863, -1.3305664, 1.863, 0.1254883, , , , , , , , , , , , , , , , , , , , , , 
0.0721731, 0.0075532, 1.8765, -0.6967773, 1.8765, -1.0097656, 1.8765, 0.3071289, 0.0721731, -0.0095674, 1.8765, 0.7246094, 1.8765, -1.0332031, 1.8765, 0.0825195, 0.0721731, -0.005539, 1.8765, 0.4350586, 1.8765, -1.2856445, 1.8765, -0.1425781, 0.0721731, 0.0310521, 1.8765, 0.1645508, 1.8765, -1.2851562, 1.8765, 0.0913086, , , , , , , , , , , , , , , , , , , , , , 
0.0726923, 0.0048676, 1.89, -0.7167969, 1.89, -0.9931641, 1.89, 0.2822266, 0.0726923, -0.0090639, 1.89, 0.7578125, 1.89, -1, 1.89, 0.1069336, 0.0726923, -0.0075532, 1.89, 0.4458008, 1.89, -1.2744141, 1.89, -0.1035156, 0.0726923, 0.0350805, 1.89, 0.1669922, 1.89, -1.2729492, 1.89, 0.0917969, , , , , , , , , , , , , , , , , , , , , , 
0.0732115, 0.0031891, 1.9035, -0.6860352, 1.9035, -0.9335938, 1.9035, 0.3310547, 0.0732115, -0.0092317, 1.9035, 0.7861328, 1.9035, -0.9575195, 1.9035, 0.0737305, 0.0732115, -0.0095674, 1.9035, 0.394043, 1.9035, -1.2426758, 1.9035, -0.0673828, 0.0732115, 0.0377661, 1.9035, 0.0966797, 1.9035, -1.2719727, 1.9035, 0.0722656, , , , , , , , , , , , , , , , , , , , , , 
0.0737308, 0.0028534, 1.917, -0.6318359, 1.917, -0.8999023, 1.917, 0.3530273, 0.0737308, -0.008896, 1.917, 0.7807617, 1.917, -0.8833008, 1.917, 0.059082, 0.0737308, -0.0099031, 1.917, 0.3295898, 1.917, -1.2250977, 1.917, -0.050293, 0.0737308, 0.0404517, 1.917, 0.0058594, 1.917, -1.2558594, 1.917, 0.0517578, , , , , , , , , , , , , , , , , , , , , , 
0.07425, 0.0031891, 1.9305, -0.6474609, 1.9305, -0.8823242, 1.9305, 0.3461914, 0.07425, -0.0083925, 1.9305, 0.8027344, 1.9305, -0.8730469, 1.9305, 0.1323242, 0.07425, -0.0085603, 1.9305, 0.3144531, 1.9305, -1.2255859, 1.9305, -0.0449219, 0.07425, 0.0428016, 1.9305, -0.0214844, 1.9305, -1.2294922, 1.9305, 0.0644531, , , , , , , , , , , , , , , , , , , , , , 
0.0747692, 0.0065461, 1.944, -0.7167969, 1.944, -0.8803711, 1.944, 0.2915039, 0.0747692, -0.0075532, 1.944, 0.8266602, 1.944, -0.8637695, 1.944, 0.1450195, 0.0747692, -0.0070497, 1.944, 0.3217773, 1.944, -1.2353516, 1.944, -0.0307617, 0.0747692, 0.0421302, 1.944, -0.0185547, 1.944, -1.2226562, 1.944, 0.0791016, , , , , , , , , , , , , , , , , , , , , , 
0.0752885, 0.0119173, 1.9575, -0.7319336, 1.9575, -0.8632812, 1.9575, 0.2553711, 0.0752885, -0.0078889, 1.9575, 0.7729492, 1.9575, -0.8720703, 1.9575, 0.1435547, 0.0752885, -0.005539, 1.9575, 0.3251953, 1.9575, -1.2250977, 1.9575, -0.0151367, 0.0752885, 0.0365911, 1.9575, -0.0170898, 1.9575, -1.2231445, 1.9575, 0.0561523, , , , , , , , , , , , , , , , , , , , , , 
0.0758077, 0.0125887, 1.971, -0.6992188, 1.971, -0.8701172, 1.971, 0.2626953, 0.0758077, -0.0082246, 1.971, 0.7211914, 1.971, -0.840332, 1.971, 0.0869141, 0.0758077, -0.0035248, 1.971, 0.3178711, 1.971, -1.2172852, 1.971, 0.0200195, 0.0758077, 0.0287022, 1.971, -0.015625, 1.971, -1.215332, 1.971, 0.0307617, , , , , , , , , , , , , , , , , , , , , , 
0.0763269, 0.0146029, 1.9845, -0.5136719, 1.9845, -0.9975586, 1.9845, 0.2407227, 0.0763269, -0.0092317, 1.9845, 0.7050781, 1.9845, -0.8349609, 1.9845, 0.0151367, 0.0763269, -0.0028534, 1.9845, 0.3139648, 1.9845, -1.2216797, 1.9845, 0.0483398, 0.0763269, 0.023331, 1.9845, 0.0083008, 1.9845, -1.1918945, 1.9845, -0.0112305, , , , , , , , , , , , , , , , , , , , , , 
0.0768462, 0.0213169, 1.998, -0.2333984, 1.998, -1.2045898, 1.998, 0.3793945, 0.0768462, -0.0109102, 1.998, 0.6552734, 1.998, -0.8779297, 1.998, -0.1796875, 0.0768462, -0.005539, 1.998, 0.3388672, 1.998, -1.1977539, 1.998, -0.0336914, 0.0768462, 0.0204776, 1.998, 0.1044922, 1.998, -1.2109375, 1.998, -0.0336914, , , , , , , , , , , , , , , , , , , , , , 
0.0773654, 0.0240024, 2.0115, -0.4282227, 2.0115, -1.1723633, 2.0115, 0.4287109, 0.0773654, -0.0115816, 2.0115, 0.5810547, 2.0115, -0.9892578, 2.0115, -0.0610352, 0.0773654, -0.0075532, 2.0115, 0.4682617, 2.0115, -1.0981445, 2.0115, -0.215332, 0.0773654, 0.0159457, 2.0115, 0.3041992, 2.0115, -1.1850586, 2.0115, 0.0151367, , , , , , , , , , , , , , , , , , , , , , 
0.0778846, 0.0218204, 2.025, -0.6958008, 2.025, -1.0170898, 2.025, 0.3374023, 0.0778846, -0.0109102, 2.025, 0.7485352, 2.025, -1.1513672, 2.025, 0.3120117, 0.0778846, -0.0072175, 2.025, 0.7207031, 2.025, -1.0556641, 2.025, -0.2749023, 0.0778846, 0.012253, 2.025, 0.5639648, 2.025, -1.0976562, 2.025, 0.0268555, , , , , , , , , , , , , , , , , , , , , , 
0.0784038, 0.0213169, 2.0385, -0.9550781, 2.0385, -0.6967773, 2.0385, 0.2700195, 0.0784038, -0.0095674, 2.0385, 0.9272461, 2.0385, -0.9277344, 2.0385, -0.1772461, 0.0784038, -0.0078889, 2.0385, 0.8217773, 2.0385, -1.2124023, 2.0385, -0.0810547, 0.0784038, 0.0112459, 2.0385, 0.5820312, 2.0385, -1.0756836, 2.0385, -0.0703125, , , , , , , , , , , , , , , , , , , , , , 
0.0789231, 0.0182956, 2.052, -0.3579102, 2.052, -0.7080078, 2.052, 0.3354492, 0.0789231, -0.008896, 2.052, 0.7773438, 2.052, -0.5405273, 2.052, -0.0371094, 0.0789231, -0.0090639, 2.052, 0.6162109, 2.052, -1.2070312, 2.052, -0.0834961, 0.0789231, 0.0119173, 2.052, 0.2817383, 2.052, -1.1113281, 2.052, -0.0458984, , , , , , , , , , , , , , , , , , , , , , 
0.0794423, 0.0159457, 2.0655, -0.4008789, 2.0655, -0.9404297, 2.0655, 0.5004883, 0.0794423, -0.0085603, 2.0655, 0.5957031, 2.0655, -0.7055664, 2.0655, 0.2070312, 0.0794423, -0.0095674, 2.0655, 0.1152344, 2.0655, -1.012207, 2.0655, -0.1918945, 0.0794423, 0.0119173, 2.0655, -0.0546875, 2.0655, -1.1103516, 2.0655, 0.0869141, , , , , , , , , , , , , , , , , , , , , , 
0.0799615, 0.0193027, 2.079, -0.984375, 2.079, -0.7407227, 2.079, 0.2700195, 0.0799615, -0.0065461, 2.079, 0.6337891, 2.079, -0.8427734, 2.079, -0.0952148, 0.0799615, -0.008896, 2.079, 0.1181641, 2.079, -0.9521484, 2.079, -0.0561523, 0.0799615, 0.0105745, 2.079, -0.3164062, 2.079, -1.0214844, 2.079, 0.0668945, , , , , , , , , , , , , , , , , , , , , , 
0.0804808, 0.0231632, 2.0925, -0.5009766, 2.0925, -0.6904297, 2.0925, 0.1298828, 0.0804808, -0.0038605, 2.0925, 0.6362305, 2.0925, -0.847168, 2.0925, -0.074707, 0.0804808, -0.0095674, 2.0925, 0.1220703, 2.0925, -0.9599609, 2.0925, -0.1337891, 0.0804808, 0.0095674, 2.0925, -0.375, 2.0925, -1, 2.0925, 0.1552734, , , , , , , , , , , , , , , , , , , , , , 
0.081, 0.023331, 2.106, -0.3632812, 2.106, -1.1557617, 2.106, 0.4277344, 0.081, -0.0018463, 2.106, 0.4819336, 2.106, -1.0146484, 2.106, -0.0673828, 0.081, -0.0112459, 2.106, 0.0083008, 2.106, -0.8647461, 2.106, -0.2890625, 0.081, 0.0090639, 2.106, -0.1577148, 2.106, -1.046875, 2.106, 0.3066406, , , , , , , , , , , , , , , , , , , , , , 
0.0815192, 0.0199741, 2.1195, -0.2988281, 2.1195, -1.1865234, 2.1195, 0.2539062, 0.0815192, -0.0035248, 2.1195, 0.4443359, 2.1195, -1.1484375, 2.1195, -0.0717773, 0.0815192, -0.0102388, 2.1195, 0.1298828, 2.1195, -0.9375, 2.1195, -0.3349609, 0.0815192, 0.0065461, 2.1195, -0.0053711, 2.1195, -1.074707, 2.1195, 0.3149414, , , , , , , , , , , , , , , , , , , , , , 
0.0820385, 0.0179599, 2.133, -0.3701172, 2.133, -1.1484375, 2.133, 0.3706055, 0.0820385, -0.005539, 2.133, 0.6083984, 2.133, -1.284668, 2.133, -0.1181641, 0.0820385, -0.0075532, 2.133, 0.3696289, 2.133, -1.0786133, 2.133, -0.2900391, 0.0820385, 0.0057069, 2.133, 0.2348633, 2.133, -1.1318359, 2.133, 0.1914062, , , , , , , , , , , , , , , , , , , , , , 
0.0825577, 0.0172885, 2.1465, -0.6196289, 2.1465, -1.0600586, 2.1465, 0.4453125, 0.0825577, -0.005539, 2.1465, 0.7485352, 2.1465, -1.1542969, 2.1465, -0.0991211, 0.0825577, -0.005539, 2.1465, 0.5371094, 2.1465, -1.1611328, 2.1465, -0.1660156, 0.0825577, 0.0058747, 2.1465, 0.3876953, 2.1465, -1.2226562, 2.1465, 0.0839844, , , , , , , , , , , , , , , , , , , , , , 
0.0830769, 0.0151064, 2.16, -0.7329102, 2.16, -0.9594727, 2.16, 0.4804688, 0.0830769, -0.0048676, 2.16, 0.7739258, 2.16, -1.0083008, 2.16, -0.190918, 0.0830769, -0.0041962, 2.16, 0.7075195, 2.16, -1.1606445, 2.16, -0.1220703, 0.0830769, 0.0052033, 2.16, 0.3950195, 2.16, -1.3076172, 2.16, 0.1489258, , , , , , , , , , , , , , , , , , , , , , 
0.0835962, 0.0125887, 2.1735, -0.628418, 2.1735, -0.980957, 2.1735, 0.5981445, 0.0835962, -0.0063783, 2.1735, 0.7167969, 2.1735, -1.0073242, 2.1735, -0.2148438, 0.0835962, -0.005539, 2.1735, 0.7202148, 2.1735, -1.1855469, 2.1735, -0.105957, 0.0835962, 0.0057069, 2.1735, 0.2426758, 2.1735, -1.3383789, 2.1735, 0.2563477, , , , , , , , , , , , , , , , , , , , , , 
0.0841154, 0.0146029, 2.187, -0.5830078, 2.187, -1.0141602, 2.187, 0.5991211, 0.0841154, -0.0062104, 2.187, 0.7080078, 2.187, -1.050293, 2.187, -0.1860352, 0.0841154, -0.0082246, 2.187, 0.6503906, 2.187, -1.1811523, 2.187, -0.0766602, 0.0841154, 0.0078889, 2.187, 0.0961914, 2.187, -1.3198242, 2.187, 0.2705078, , , , , , , , , , , , , , , , , , , , , , 
0.0846346, 0.0182956, 2.2005, -0.5595703, 2.2005, -1.0214844, 2.2005, 0.4804688, 0.0846346, -0.0031891, 2.2005, 0.7485352, 2.2005, -1.0498047, 2.2005, -0.0483398, 0.0846346, -0.011078, 2.2005, 0.4716797, 2.2005, -1.1928711, 2.2005, -0.0654297, 0.0846346, 0.0090639, 2.2005, -0.074707, 2.2005, -1.3110352, 2.2005, 0.2026367, , , , , , , , , , , , , , , , , , , , , , 
0.0851538, 0.0199741, 2.214, -0.6845703, 2.214, -1.0673828, 2.214, 0.390625, 0.0851538, -0.0028534, 2.214, 0.8325195, 2.214, -1.0786133, 2.214, 0.1430664, 0.0851538, -0.0112459, 2.214, 0.2880859, 2.214, -1.2695312, 2.214, -0.0507812, 0.0851538, 0.005539, 2.214, -0.190918, 2.214, -1.3623047, 2.214, 0.1391602, , , , , , , , , , , , , , , , , , , , , , 
0.0856731, 0.0172885, 2.2275, -0.8027344, 2.2275, -1.0644531, 2.2275, 0.2456055, 0.0856731, -0.0068818, 2.2275, 0.8632812, 2.2275, -1.0898438, 2.2275, 0.2084961, 0.0856731, -0.0099031, 2.2275, 0.1220703, 2.2275, -1.3251953, 2.2275, -0.0341797, 0.0856731, -0.0001678, 2.2275, -0.2060547, 2.2275, -1.4077148, 2.2275, 0.1030273, , , , , , , , , , , , , , , , , , , , , , 
0.0861923, 0.0135958, 2.241, -0.8618164, 2.241, -1.0527344, 2.241, 0.2490234, 0.0861923, -0.0102388, 2.241, 0.8408203, 2.241, -1.0766602, 2.241, 0.1606445, 0.0861923, -0.0102388, 2.241, 0.1425781, 2.241, -1.3066406, 2.241, -0.0449219, 0.0861923, -0.0045319, 2.241, -0.1577148, 2.241, -1.3779297, 2.241, 0.0620117, , , , , , , , , , , , , , , , , , , , , , 
0.0867115, 0.0119173, 2.2545, -0.6884766, 2.2545, -1.1054688, 2.2545, 0.3305664, 0.0867115, -0.0090639, 2.2545, 0.7578125, 2.2545, -1.0698242, 2.2545, 0.1044922, 0.0867115, -0.0115816, 2.2545, 0.28125, 2.2545, -1.2177734, 2.2545, -0.1308594, 0.0867115, -0.005539, 2.2545, -0.012207, 2.2545, -1.2724609, 2.2545, 0.0556641, , , , , , , , , , , , , , , , , , , , , , 
0.0872308, 0.0115816, 2.268, -0.5229492, 2.268, -1.1171875, 2.268, 0.4370117, 0.0872308, -0.0070497, 2.268, 0.769043, 2.268, -1.050293, 2.268, 0.0361328, 0.0872308, -0.012253, 2.268, 0.4350586, 2.268, -1.2119141, 2.268, -0.1230469, 0.0872308, -0.0062104, 2.268, 0.1049805, 2.268, -1.2158203, 2.268, 0.0390625, , , , , , , , , , , , , , , , , , , , , , 
0.08775, 0.0109102, 2.2815, -0.5898438, 2.2815, -1.1435547, 2.2815, 0.4165039, 0.08775, -0.0068818, 2.2815, 0.8867188, 2.2815, -1.0595703, 2.2815, 0.1210938, 0.08775, -0.0129244, 2.2815, 0.4365234, 2.2815, -1.2646484, 2.2815, -0.112793, 0.08775, -0.0058747, 2.2815, 0.3505859, 2.2815, -1.1987305, 2.2815, -0.027832, , , , , , , , , , , , , , , , , , , , , , 
0.0882692, 0.0112459, 2.295, -0.7597656, 2.295, -1.1269531, 2.295, 0.3242188, 0.0882692, -0.0068818, 2.295, 0.9677734, 2.295, -1.1225586, 2.295, 0.1381836, 0.0882692, -0.0115816, 2.295, 0.4863281, 2.295, -1.2954102, 2.295, -0.1166992, 0.0882692, -0.0035248, 2.295, 0.425293, 2.295, -1.3164062, 2.295, -0.0844727, , , , , , , , , , , , , , , , , , , , , , 
0.0887885, 0.0119173, 2.3085, -0.7905273, 2.3085, -1.0239258, 2.3085, 0.3964844, 0.0887885, -0.0062104, 2.3085, 0.8662109, 2.3085, -1.0878906, 2.3085, 0.0947266, 0.0887885, -0.0112459, 2.3085, 0.4526367, 2.3085, -1.2763672, 2.3085, -0.1582031, 0.0887885, -0.0008392, 2.3085, 0.3144531, 2.3085, -1.3481445, 2.3085, -0.019043, , , , , , , , , , , , , , , , , , , , , , 
0.0893077, 0.0065461, 2.322, -0.7719727, 2.322, -0.9931641, 2.322, 0.4726562, 0.0893077, -0.0072175, 2.322, 0.78125, 2.322, -0.9765625, 2.322, 0.1000977, 0.0893077, -0.0129244, 2.322, 0.4277344, 2.322, -1.2719727, 2.322, -0.1376953, 0.0893077, 0.0028534, 2.322, 0.2241211, 2.322, -1.2680664, 2.322, 0.03125, , , , , , , , , , , , , , , , , , , , , , 
0.0898269, 0.0011749, 2.3355, -0.7519531, 2.3355, -0.9946289, 2.3355, 0.3867188, 0.0898269, -0.008896, 2.3355, 0.8208008, 2.3355, -0.9360352, 2.3355, 0.1489258, 0.0898269, -0.0132601, 2.3355, 0.3676758, 2.3355, -1.2705078, 2.3355, -0.1425781, 0.0898269, 0.0085603, 2.3355, 0.1518555, 2.3355, -1.2451172, 2.3355, 0.0356445, , , , , , , , , , , , , , , , , , , , , , 
0.0903462, 0.0011749, 2.349, -0.7358398, 2.349, -0.9838867, 2.349, 0.3129883, 0.0903462, -0.0105745, 2.349, 0.8208008, 2.349, -0.9482422, 2.349, 0.2451172, 0.0903462, -0.0125887, 2.349, 0.3081055, 2.349, -1.2363281, 2.349, -0.0341797, 0.0903462, 0.0125887, 2.349, 0.0249023, 2.349, -1.2851562, 2.349, 0.0859375, , , , , , , , , , , , , , , , , , , , , , 
0.0908654, 0.0038605, 2.3625, -0.6499023, 2.3625, -0.9106445, 2.3625, 0.2363281, 0.0908654, -0.0104067, 2.3625, 0.7919922, 2.3625, -0.9301758, 2.3625, 0.2954102, 0.0908654, -0.0132601, 2.3625, 0.2504883, 2.3625, -1.1723633, 2.3625, -0.0922852, 0.0908654, 0.0152743, 2.3625, -0.1411133, 2.3625, -1.2114258, 2.3625, 0.1381836, , , , , , , , , , , , , , , , , , , , , , 
0.0913846, 0.0070497, 2.376, -0.6850586, 2.376, -0.8808594, 2.376, 0.2680664, 0.0913846, -0.0085603, 2.376, 0.8105469, 2.376, -0.8525391, 2.376, 0.2426758, 0.0913846, -0.0135958, 2.376, 0.1665039, 2.376, -1.2016602, 2.376, -0.1416016, 0.0913846, 0.0184634, 2.376, -0.112793, 2.376, -1.1796875, 2.376, 0.0917969, , , , , , , , , , , , , , , , , , , , , , 
0.0919038, 0.008896, 2.3895, -0.8740234, 2.3895, -0.8950195, 2.3895, 0.3334961, 0.0919038, -0.0065461, 2.3895, 0.7919922, 2.3895, -0.8554688, 2.3895, 0.2441406, 0.0919038, -0.0115816, 2.3895, 0.1376953, 2.3895, -1.2353516, 2.3895, -0.1992188, 0.0919038, 0.0223239, 2.3895, 0.0610352, 2.3895, -1.2294922, 2.3895, 0.0507812, , , , , , , , , , , , , , , , , , , , , , 
0.0924231, 0.0083925, 2.403, -0.8862305, 2.403, -0.9291992, 2.403, 0.3300781, 0.0924231, -0.0065461, 2.403, 0.8085938, 2.403, -0.9165039, 2.403, 0.171875, 0.0924231, -0.0109102, 2.403, 0.2270508, 2.403, -1.2402344, 2.403, -0.1352539, 0.0924231, 0.030045, 2.403, 0.1889648, 2.403, -1.21875, 2.403, -0.012207, , , , , , , , , , , , , , , , , , , , , , 
0.0929423, 0.0078889, 2.4165, -0.6884766, 2.4165, -0.9233398, 2.4165, 0.3217773, 0.0929423, -0.0082246, 2.4165, 0.746582, 2.4165, -0.9423828, 2.4165, 0.2207031, 0.0929423, -0.0102388, 2.4165, 0.3100586, 2.4165, -1.1611328, 2.4165, -0.1396484, 0.0929423, 0.0372625, 2.4165, 0.1469727, 2.4165, -1.1411133, 2.4165, 0.0175781, , , , , , , , , , , , , , , , , , , , , , 
0.0934615, 0.0092317, 2.43, -0.6098633, 2.43, -0.8608398, 2.43, 0.3491211, 0.0934615, -0.0078889, 2.43, 0.8149414, 2.43, -0.8574219, 2.43, 0.3066406, 0.0934615, -0.008896, 2.43, 0.3959961, 2.43, -1.1625977, 2.43, -0.2241211, 0.0934615, 0.0404517, 2.43, 0.0966797, 2.43, -1.1162109, 2.43, 0.0327148, , , , , , , , , , , , , , , , , , , , , , 
0.0939808, 0.0129244, 2.4435, -0.7504883, 2.4435, -0.8833008, 2.4435, 0.2241211, 0.0939808, -0.0068818, 2.4435, 0.918457, 2.4435, -0.8457031, 2.4435, 0.2792969, 0.0939808, -0.0082246, 2.4435, 0.3735352, 2.4435, -1.1987305, 2.4435, -0.1748047, 0.0939808, 0.0411231, 2.4435, 0.1367188, 2.4435, -1.1928711, 2.4435, 0.0473633, , , , , , , , , , , , , , , , , , , , , , 
0.0945, 0.0119173, 2.457, -0.9160156, 2.457, -0.8613281, 2.457, 0.3134766, 0.0945, -0.0045319, 2.457, 0.7836914, 2.457, -0.8842773, 2.457, 0.1191406, 0.0945, -0.0082246, 2.457, 0.2978516, 2.457, -1.2026367, 2.457, -0.2260742, 0.0945, 0.0397803, 2.457, 0.3193359, 2.457, -1.2973633, 2.457, 0.1064453, , , , , , , , , , , , , , , , , , , , , , 
0.0950192, 0.0078889, 2.4705, -0.800293, 2.4705, -0.8759766, 2.4705, 0.4741211, 0.0950192, -0.0035248, 2.4705, 0.6821289, 2.4705, -0.8896484, 2.4705, 0.0131836, 0.0950192, -0.0075532, 2.4705, 0.362793, 2.4705, -1.1308594, 2.4705, -0.3481445, 0.0950192, 0.0360876, 2.4705, 0.425293, 2.4705, -1.2070312, 2.4705, 0.0883789, , , , , , , , , , , , , , , , , , , , , , 
0.0955385, 0.0062104, 2.484, -0.6064453, 2.484, -0.875, 2.484, 0.3808594, 0.0955385, -0.0035248, 2.484, 0.6328125, 2.484, -0.8789062, 2.484, 0.0639648, 0.0955385, -0.0082246, 2.484, 0.3706055, 2.484, -1.0473633, 2.484, -0.2084961, 0.0955385, 0.0320592, 2.484, 0.4155273, 2.484, -1.0717773, 2.484, 0.0454102, , , , , , , , , , , , , , , , , , , , , , 
0.0960577, 0.0112459, 2.4975, -0.659668, 2.4975, -0.7680664, 2.4975, 0.3105469, 0.0960577, -0.0043641, 2.4975, 0.7167969, 2.4975, -0.840332, 2.4975, 0.2856445, 0.0960577, -0.0065461, 2.4975, 0.4077148, 2.4975, -1.050293, 2.4975, -0.2270508, 0.0960577, 0.026688, 2.4975, 0.21875, 2.4975, -1.0297852, 2.4975, 0.1083984, , , , , , , , , , , , , , , , , , , , , , 
0.0965769, 0.0199741, 2.511, -0.8027344, 2.511, -0.7397461, 2.511, 0.293457, 0.0965769, -0.0050355, 2.511, 0.9233398, 2.511, -0.762207, 2.511, 0.1782227, 0.0965769, -0.0036927, 2.511, 0.4238281, 2.511, -1.1171875, 2.511, -0.284668, 0.0965769, 0.0209812, 2.511, 0.0371094, 2.511, -1.0917969, 2.511, 0.1333008, , , , , , , , , , , , , , , , , , , , , , 
0.0970962, 0.023331, 2.5245, -0.8149414, 2.5245, -0.7841797, 2.5245, 0.2797852, 0.0970962, -0.0058747, 2.5245, 0.8642578, 2.5245, -0.7919922, 2.5245, 0.2294922, 0.0970962, -0.0018463, 2.5245, 0.3061523, 2.5245, -1.1166992, 2.5245, -0.2475586, 0.0970962, 0.0181277, 2.5245, 0.1323242, 2.5245, -1.1791992, 2.5245, 0.1474609, , , , , , , , , , , , , , , , , , , , , , 
0.0976154, 0.0166171, 2.538, -0.7583008, 2.538, -0.8505859, 2.538, 0.2758789, 0.0976154, -0.0048676, 2.538, 0.6713867, 2.538, -0.8286133, 2.538, 0.2167969, 0.0976154, -0.0028534, 2.538, 0.2246094, 2.538, -1.0161133, 2.538, -0.300293, 0.0976154, 0.0179599, 2.538, 0.2641602, 2.538, -1.1313477, 2.538, 0.1352539, , , , , , , , , , , , , , , , , , , , , , 
0.0981346, 0.0129244, 2.5515, -0.6962891, 2.5515, -0.7832031, 2.5515, 0.2539062, 0.0981346, -0.0036927, 2.5515, 0.6269531, 2.5515, -0.7670898, 2.5515, 0.2954102, 0.0981346, -0.0062104, 2.5515, 0.1977539, 2.5515, -0.9833984, 2.5515, -0.2875977, 0.0981346, 0.0172885, 2.5515, 0.1992188, 2.5515, -1.027832, 2.5515, 0.0703125, , , , , , , , , , , , , , , , , , , , , , 
0.0986538, 0.0169528, 2.565, -0.734375, 2.565, -0.6870117, 2.565, 0.2314453, 0.0986538, -0.0041962, 2.565, 0.7666016, 2.565, -0.6821289, 2.565, 0.2924805, 0.0986538, -0.0082246, 2.565, 0.1796875, 2.565, -1.0629883, 2.565, -0.2827148, 0.0986538, 0.0139315, 2.565, 0.078125, 2.565, -1.0126953, 2.565, 0.0551758, , , , , , , , , , , , , , , , , , , , , , 
0.0991731, 0.0213169, 2.5785, -0.8525391, 2.5785, -0.6582031, 2.5785, 0.2324219, 0.0991731, -0.0045319, 2.5785, 0.8105469, 2.5785, -0.652832, 2.5785, 0.1772461, 0.0991731, -0.0090639, 2.5785, 0.1899414, 2.5785, -1.0966797, 2.5785, -0.2958984, 0.0991731, 0.0115816, 2.5785, 0.0644531, 2.5785, -1.0195312, 2.5785, 0.059082, , , , , , , , , , , , , , , , , , , , , , 
0.0996923, 0.0186313, 2.592, -0.8095703, 2.592, -0.7475586, 2.592, 0.3081055, 0.0996923, -0.0057069, 2.592, 0.6933594, 2.592, -0.7211914, 2.592, 0.1904297, 0.0996923, -0.0082246, 2.592, 0.2246094, 2.592, -1.074707, 2.592, -0.2436523, 0.0996923, 0.0095674, 2.592, 0.1518555, 2.592, -1.0390625, 2.592, 0.0615234, , , , , , , , , , , , , , , , , , , , , , 
0.1002115, 0.0146029, 2.6055, -0.6723633, 2.6055, -0.8051758, 2.6055, 0.2734375, 0.1002115, -0.0062104, 2.6055, 0.6918945, 2.6055, -0.7617188, 2.6055, 0.2641602, 0.1002115, -0.0085603, 2.6055, 0.3139648, 2.6055, -0.9663086, 2.6055, -0.3139648, 0.1002115, 0.0068818, 2.6055, 0.2758789, 2.6055, -1.0410156, 2.6055, 0.0766602, , , , , , , , , , , , , , , , , , , , , , 
0.1007308, 0.0159457, 2.619, -0.6513672, 2.619, -0.7041016, 2.619, 0.2548828, 0.1007308, -0.0057069, 2.619, 0.7226562, 2.619, -0.7719727, 2.619, 0.3164062, 0.1007308, -0.0092317, 2.619, 0.3520508, 2.619, -0.925293, 2.619, -0.3193359, 0.1007308, 0.0050355, 2.619, 0.296875, 2.619, -1.059082, 2.619, 0.1025391, , , , , , , , , , , , , , , , , , , , , , 
0.10125, 0.0199741, 2.6325, -0.8486328, 2.6325, -0.5874023, 2.6325, 0.1513672, 0.10125, -0.0058747, 2.6325, 0.8486328, 2.6325, -0.7016602, 2.6325, 0.3193359, 0.10125, -0.0085603, 2.6325, 0.3364258, 2.6325, -1.0141602, 2.6325, -0.2563477, 0.10125, 0.0025177, 2.6325, 0.2641602, 2.6325, -1.0805664, 2.6325, 0.1157227, , , , , , , , , , , , , , , , , , , , , , 
0.1017692, 0.0226596, 2.646, -0.8725586, 2.646, -0.5981445, 2.646, 0.171875, 0.1017692, -0.0052033, 2.646, 0.7587891, 2.646, -0.6225586, 2.646, 0.1787109, 0.1017692, -0.0085603, 2.646, 0.3173828, 2.646, -1.0454102, 2.646, -0.28125, 0.1017692, 0.0023499, 2.646, 0.2158203, 2.646, -0.9882812, 2.646, 0.1005859, , , , , , , , , , , , , , , , , , , , , , 
0.1022885, 0.0260166, 2.6595, -0.6972656, 2.6595, -0.6533203, 2.6595, 0.2348633, 0.1022885, -0.0041962, 2.6595, 0.5258789, 2.6595, -0.6040039, 2.6595, 0.1811523, 0.1022885, -0.0095674, 2.6595, 0.2958984, 2.6595, -0.9199219, 2.6595, -0.3037109, 0.1022885, 0.0028534, 2.6595, 0.2026367, 2.6595, -0.8583984, 2.6595, 0.0561523, , , , , , , , , , , , , , , , , , , , , , 
0.1028077, 0.0206455, 2.673, -0.6181641, 2.673, -0.6210938, 2.673, 0.2744141, 0.1028077, -0.0041962, 2.673, 0.5258789, 2.673, -0.5830078, 2.673, 0.3081055, 0.1028077, -0.011078, 2.673, 0.2270508, 2.673, -0.7739258, 2.673, -0.3486328, 0.1028077, 0.0038605, 2.673, 0.2255859, 2.673, -0.8061523, 2.673, 0.0444336, , , , , , , , , , , , , , , , , , , , , , 
0.1033269, 0.0151064, 2.6865, -0.6201172, 2.6865, -0.5830078, 2.6865, 0.1821289, 0.1033269, -0.0065461, 2.6865, 0.7324219, 2.6865, -0.5546875, 2.6865, 0.3388672, 0.1033269, -0.0102388, 2.6865, 0.1367188, 2.6865, -0.7666016, 2.6865, -0.3774414, 0.1033269, 0.0065461, 2.6865, 0.2260742, 2.6865, -0.8803711, 2.6865, 0.0449219, , , , , , , , , , , , , , , , , , , , , , 
0.1038462, 0.0172885, 2.7, -0.734375, 2.7, -0.5195312, 2.7, 0.0615234, 0.1038462, -0.0092317, 2.7, 0.7631836, 2.7, -0.5668945, 2.7, 0.2851562, 0.1038462, -0.0072175, 2.7, 0.1230469, 2.7, -0.8847656, 2.7, -0.2509766, 0.1038462, 0.0085603, 2.7, 0.2333984, 2.7, -0.9453125, 2.7, 0.0439453, , , , , , , , , , , , , , , , , , , , , , 
0.1043654, 0.0213169, 2.7135, -0.793457, 2.7135, -0.4824219, 2.7135, 0.171875, 0.1043654, -0.0095674, 2.7135, 0.6142578, 2.7135, -0.4956055, 2.7135, 0.1572266, 0.1043654, -0.0048676, 2.7135, 0.1386719, 2.7135, -0.9345703, 2.7135, -0.2114258, 0.1043654, 0.0052033, 2.7135, 0.1943359, 2.7135, -0.8706055, 2.7135, 0.0639648, , , , , , , , , , , , , , , , , , , , , , 
0.1048846, 0.0213169, 2.727, -0.6342773, 2.727, -0.4428711, 2.727, 0.2636719, 0.1048846, -0.0085603, 2.727, 0.5390625, 2.727, -0.4555664, 2.727, 0.1391602, 0.1048846, -0.005539, 2.727, 0.2529297, 2.727, -0.9125977, 2.727, -0.253418, 0.1048846, 0.0016785, 2.727, 0.1635742, 2.727, -0.7939453, 2.727, 0.0615234, , , , , , , , , , , , , , , , , , , , , , 
0.1054038, 0.0166171, 2.7405, -0.4882812, 2.7405, -0.5, 2.7405, 0.2353516, 0.1054038, -0.0075532, 2.7405, 0.480957, 2.7405, -0.4663086, 2.7405, 0.1826172, 0.1054038, -0.0075532, 2.7405, 0.3686523, 2.7405, -0.7368164, 2.7405, -0.3115234, 0.1054038, -0.0048676, 2.7405, 0.1577148, 2.7405, -0.6806641, 2.7405, 0.0600586, , , , , , , , , , , , , , , , , , , , , , 
0.1059231, 0.0132601, 2.754, -0.6245117, 2.754, -0.5107422, 2.754, 0.2070312, 0.1059231, -0.0065461, 2.754, 0.6171875, 2.754, -0.4975586, 2.754, 0.2978516, 0.1059231, -0.0075532, 2.754, 0.355957, 2.754, -0.5976562, 2.754, -0.3227539, 0.1059231, -0.0119173, 2.754, 0.237793, 2.754, -0.7231445, 2.754, 0.1020508, , , , , , , , , , , , , , , , , , , , , , 
0.1064423, 0.0115816, 2.7675, -0.7509766, 2.7675, -0.4306641, 2.7675, 0.1225586, 0.1064423, -0.0068818, 2.7675, 0.8217773, 2.7675, -0.4223633, 2.7675, 0.1665039, 0.1064423, -0.0078889, 2.7675, 0.2636719, 2.7675, -0.6450195, 2.7675, -0.3154297, 0.1064423, -0.0152743, 2.7675, 0.2602539, 2.7675, -0.8310547, 2.7675, 0.1479492, , , , , , , , , , , , , , , , , , , , , , 
0.1069615, 0.0058747, 2.781, -0.6694336, 2.781, -0.4389648, 2.781, 0.1015625, 0.1069615, -0.0087282, 2.781, 0.5893555, 2.781, -0.484375, 2.781, 0.2133789, 0.1069615, -0.008896, 2.781, 0.2480469, 2.781, -0.784668, 2.781, -0.3276367, 0.1069615, -0.014435, 2.781, 0.2250977, 2.781, -0.8364258, 2.781, 0.1376953, , , , , , , , , , , , , , , , , , , , , , 
0.1074808, 0.0015106, 2.7945, -0.6030273, 2.7945, -0.484375, 2.7945, 0.2543945, 0.1074808, -0.0092317, 2.7945, 0.4365234, 2.7945, -0.5317383, 2.7945, 0.2729492, 0.1074808, -0.0072175, 2.7945, 0.2514648, 2.7945, -0.8168945, 2.7945, -0.2797852, 0.1074808, -0.0135958, 2.7945, 0.1938477, 2.7945, -0.7382812, 2.7945, 0.065918, , , , , , , , , , , , , , , , , , , , , , 
0.108, -0.0001678, 2.808, -0.6523438, 2.808, -0.3984375, 2.808, 0.1816406, 0.108, -0.0078889, 2.808, 0.6289062, 2.808, -0.3823242, 2.808, 0.2431641, 0.108, -0.0045319, 2.808, 0.1870117, 2.808, -0.7763672, 2.808, -0.2641602, 0.108, -0.0112459, 2.808, 0.1577148, 2.808, -0.7006836, 2.808, 0.0610352, , , , , , , , , , , , , , , , , , , , , , 
0.1085192, 0.0008392, 2.8215, -0.7539062, 2.8215, -0.2929688, 2.8215, 0.1132812, 0.1085192, -0.0083925, 2.8215, 0.7255859, 2.8215, -0.2578125, 2.8215, 0.2661133, 0.1085192, -0.0058747, 2.8215, 0.1455078, 2.8215, -0.746582, 2.8215, -0.3105469, 0.1085192, -0.0072175, 2.8215, 0.1259766, 2.8215, -0.7050781, 2.8215, 0.0820312, , , , , , , , , , , , , , , , , , , , , , 
0.1090385, 0.0038605, 2.835, -0.6879883, 2.835, -0.3276367, 2.835, 0.1640625, 0.1090385, -0.0090639, 2.835, 0.6938477, 2.835, -0.347168, 2.835, 0.2944336, 0.1090385, -0.0083925, 2.835, 0.15625, 2.835, -0.7338867, 2.835, -0.3232422, 0.1090385, -0.0018463, 2.835, 0.1430664, 2.835, -0.7026367, 2.835, 0.059082, , , , , , , , , , , , , , , , , , , , , , 
0.1095577, 0.0078889, 2.8485, -0.6269531, 2.8485, -0.3979492, 2.8485, 0.2045898, 0.1095577, -0.0095674, 2.8485, 0.5932617, 2.8485, -0.4204102, 2.8485, 0.3183594, 0.1095577, -0.0095674, 2.8485, 0.2114258, 2.8485, -0.7026367, 2.8485, -0.2929688, 0.1095577, 0.0020142, 2.8485, 0.1879883, 2.8485, -0.7333984, 2.8485, 0.0507812, , , , , , , , , , , , , , , , , , , , , , 
0.1100769, 0.0072175, 2.862, -0.644043, 2.862, -0.3808594, 2.862, 0.1635742, 0.1100769, -0.0082246, 2.862, 0.6123047, 2.862, -0.3911133, 2.862, 0.3212891, 0.1100769, -0.0097353, 2.862, 0.2128906, 2.862, -0.7055664, 2.862, -0.2480469, 0.1100769, 0.0073854, 2.862, 0.1875, 2.862, -0.7724609, 2.862, 0.0898438, , , , , , , , , , , , , , , , , , , , , , 
0.1105962, 0.0052033, 2.8755, -0.7202148, 2.8755, -0.2915039, 2.8755, 0.1826172, 0.1105962, -0.0078889, 2.8755, 0.6777344, 2.8755, -0.2861328, 2.8755, 0.2333984, 0.1105962, -0.0085603, 2.8755, 0.1791992, 2.8755, -0.7651367, 2.8755, -0.2075195, 0.1105962, 0.0130922, 2.8755, 0.1689453, 2.8755, -0.7636719, 2.8755, 0.0961914, , , , , , , , , , , , , , , , , , , , , , 
0.1111154, 0.0038605, 2.889, -0.6806641, 2.889, -0.2451172, 2.889, 0.2524414, 0.1111154, -0.0092317, 2.889, 0.6889648, 2.889, -0.2539062, 2.889, 0.2114258, 0.1111154, -0.0060426, 2.889, 0.2583008, 2.889, -0.8046875, 2.889, -0.2104492, 0.1111154, 0.0166171, 2.889, 0.1333008, 2.889, -0.7143555, 2.889, 0.0712891, , , , , , , , , , , , , , , , , , , , , , 
0.1116346, -0.0018463, 2.9025, -0.6020508, 2.9025, -0.2446289, 2.9025, 0.2661133, 0.1116346, -0.0102388, 2.9025, 0.7231445, 2.9025, -0.2910156, 2.9025, 0.2182617, 0.1116346, -0.005539, 2.9025, 0.3891602, 2.9025, -0.7421875, 2.9025, -0.2631836, 0.1116346, 0.021149, 2.9025, 0.1435547, 2.9025, -0.7055664, 2.9025, 0.0952148, , , , , , , , , , , , , , , , , , , , , , 
0.1121538, -0.0070497, 2.916, -0.6020508, 2.916, -0.2583008, 2.916, 0.3081055, 0.1121538, -0.0087282, 2.916, 0.7075195, 2.916, -0.3061523, 2.916, 0.1738281, 0.1121538, -0.0065461, 2.916, 0.4165039, 2.916, -0.659668, 2.916, -0.2226562, 0.1121538, 0.0280308, 2.916, 0.1728516, 2.916, -0.7324219, 2.916, 0.1640625, , , , , , , , , , , , , , , , , , , , , , 
0.1126731, -0.0041962, 2.9295, -0.7001953, 2.9295, -0.2524414, 2.9295, 0.2670898, 0.1126731, -0.0068818, 2.9295, 0.7084961, 2.9295, -0.3203125, 2.9295, 0.2509766, 0.1126731, -0.0075532, 2.9295, 0.3603516, 2.9295, -0.6420898, 2.9295, -0.1743164, 0.1126731, 0.033402, 2.9295, 0.1040039, 2.9295, -0.7485352, 2.9295, 0.1723633, , , , , , , , , , , , , , , , , , , , , , 
0.1131923, -0.0008392, 2.943, -0.7553711, 2.943, -0.1860352, 2.943, 0.2470703, 0.1131923, -0.0052033, 2.943, 0.7587891, 2.943, -0.2250977, 2.943, 0.2026367, 0.1131923, -0.0075532, 2.943, 0.2475586, 2.943, -0.7382812, 2.943, -0.2060547, 0.1131923, 0.0365911, 2.943, -0.050293, 2.943, -0.7553711, 2.943, 0.1625977, , , , , , , , , , , , , , , , , , , , , , 
0.1137115, -0.0010071, 2.9565, -0.762207, 2.9565, -0.1269531, 2.9565, 0.2993164, 0.1137115, -0.0062104, 2.9565, 0.7592773, 2.9565, -0.1108398, 2.9565, 0.121582, 0.1137115, -0.0062104, 2.9565, 0.1743164, 2.9565, -0.8505859, 2.9565, -0.1884766, 0.1137115, 0.0381018, 2.9565, -0.0913086, 2.9565, -0.7719727, 2.9565, 0.1630859, , , , , , , , , , , , , , , , , , , , , , 
0.1142308, 0.0005035, 2.97, -0.6123047, 2.97, -0.1723633, 2.97, 0.3740234, 0.1142308, -0.0062104, 2.97, 0.6899414, 2.97, -0.1694336, 2.97, 0.0712891, 0.1142308, -0.005539, 2.97, 0.1728516, 2.97, -0.8637695, 2.97, -0.152832, 0.1142308, 0.0404517, 2.97, 0.0043945, 2.97, -0.7666016, 2.97, 0.1796875, , , , , , , , , , , , , , , , , , , , , , 
0.11475, 0.0083925, 2.9835, -0.4833984, 2.9835, -0.2148438, 2.9835, 0.4135742, 0.11475, -0.0058747, 2.9835, 0.6704102, 2.9835, -0.2353516, 2.9835, 0.0834961, 0.11475, -0.0063783, 2.9835, 0.2456055, 2.9835, -0.7714844, 2.9835, -0.1137695, 0.11475, 0.0414588, 2.9835, 0.0205078, 2.9835, -0.7368164, 2.9835, 0.1962891, , , , , , , , , , , , , , , , , , , , , , 
0.1152692, 0.0186313, 2.997, -0.5786133, 2.997, -0.1328125, 2.997, 0.3369141, 0.1152692, -0.0058747, 2.997, 0.6635742, 2.997, -0.2636719, 2.997, 0.1484375, 0.1152692, -0.0070497, 2.997, 0.3823242, 2.997, -0.659668, 2.997, -0.1147461, 0.1152692, 0.0386053, 2.997, -0.0991211, 2.997, -0.7290039, 2.997, 0.1821289, , , , , , , , , , , , , , , , , , , , , , 
0.1157885, 0.0297093, 3.0105, -0.7841797, 3.0105, -0.0048828, 3.0105, 0.2207031, 0.1157885, -0.0058747, 3.0105, 0.8212891, 3.0105, -0.1074219, 3.0105, 0.2451172, 0.1157885, -0.005539, 3.0105, 0.3388672, 3.0105, -0.7255859, 3.0105, -0.1538086, 0.1157885, 0.0317235, 3.0105, -0.1640625, 3.0105, -0.8125, 3.0105, 0.1889648, , , , , , , , , , , , , , , , , , , , , , 
0.1163077, 0.0327306, 3.024, -0.8276367, 3.024, 0.0112305, 3.024, 0.2363281, 0.1163077, -0.0062104, 3.024, 0.9287109, 3.024, 0.0112305, 3.024, 0.1816406, 0.1163077, -0.0028534, 3.024, 0.2451172, 3.024, -0.8803711, 3.024, -0.1484375, 0.1163077, 0.026688, 3.024, -0.1254883, 3.024, -0.84375, 3.024, 0.1767578, , , , , , , , , , , , , , , , , , , , , , 
0.1168269, 0.03122, 3.0375, -0.6958008, 3.0375, -0.0595703, 3.0375, 0.3295898, 0.1168269, -0.0078889, 3.0375, 0.8212891, 3.0375, -0.0639648, 3.0375, 0.0800781, 0.1168269, -0.0028534, 3.0375, 0.2172852, 3.0375, -0.8920898, 3.0375, -0.1259766, 0.1168269, 0.0240024, 3.0375, 0.0107422, 3.0375, -0.8085938, 3.0375, 0.1523438, , , , , , , , , , , , , , , , , , , , , , 
0.1173462, 0.0320592, 3.051, -0.5878906, 3.051, -0.1298828, 3.051, 0.4277344, 0.1173462, -0.0077211, 3.051, 0.699707, 3.051, -0.2128906, 3.051, 0.1123047, 0.1173462, -0.0035248, 3.051, 0.2539062, 3.051, -0.7587891, 3.051, -0.1479492, 0.1173462, 0.0172885, 3.051, 0.0546875, 3.051, -0.7324219, 3.051, 0.206543, , , , , , , , , , , , , , , , , , , , , , 
0.1178654, 0.0337377, 3.0645, -0.6801758, 3.0645, -0.1816406, 3.0645, 0.4194336, 0.1178654, -0.0068818, 3.0645, 0.6137695, 3.0645, -0.309082, 3.0645, 0.1020508, 0.1178654, -0.0038605, 3.0645, 0.4550781, 3.0645, -0.6391602, 3.0645, -0.1430664, 0.1178654, 0.012253, 3.0645, 0.0004883, 3.0645, -0.7158203, 3.0645, 0.2163086, , , , , , , , , , , , , , , , , , , , , , 
0.1183846, 0.0337377, 3.078, -0.7822266, 3.078, -0.1679688, 3.078, 0.3911133, 0.1183846, -0.0077211, 3.078, 0.831543, 3.078, -0.2280273, 3.078, 0.1660156, 0.1183846, -0.0057069, 3.078, 0.5615234, 3.078, -0.6484375, 3.078, -0.1337891, 0.1183846, 0.0105745, 3.078, -0.0576172, 3.078, -0.7861328, 3.078, 0.1796875, , , , , , , , , , , , , , , , , , , , , , 
0.1189038, 0.0344091, 3.0915, -0.7524414, 3.0915, -0.0419922, 3.0915, 0.3164062, 0.1189038, -0.0083925, 3.0915, 0.9912109, 3.0915, 0.0219727, 3.0915, 0.184082, 0.1189038, -0.0082246, 3.0915, 0.4838867, 3.0915, -0.7143555, 3.0915, -0.1293945, 0.1189038, 0.0082246, 3.0915, -0.1088867, 3.0915, -0.8920898, 3.0915, 0.2182617, , , , , , , , , , , , , , , , , , , , , , 
0.1194231, 0.0327306, 3.105, -0.6987305, 3.105, 0.0693359, 3.105, 0.2924805, 0.1194231, -0.008896, 3.105, 0.9663086, 3.105, 0.0922852, 3.105, 0.2104492, 0.1194231, -0.0085603, 3.105, 0.2480469, 3.105, -0.9072266, 3.105, -0.1445312, 0.1194231, 0.0063783, 3.105, -0.1020508, 3.105, -0.878418, 3.105, 0.2573242, , , , , , , , , , , , , , , , , , , , , , 
0.1199423, 0.0313878, 3.1185, -0.6679688, 3.1185, -0.0581055, 3.1185, 0.387207, 0.1199423, -0.0099031, 3.1185, 0.7744141, 3.1185, -0.0200195, 3.1185, 0.1347656, 0.1199423, -0.0065461, 3.1185, 0.1967773, 3.1185, -0.9467773, 3.1185, -0.1464844, 0.1199423, 0.0031891, 3.1185, -0.0395508, 3.1185, -0.7739258, 3.1185, 0.1743164, , , , , , , , , , , , , , , , , , , , , , 
0.1204615, 0.03122, 3.132, -0.7241211, 3.132, -0.1337891, 3.132, 0.3334961, 0.1204615, -0.0132601, 3.132, 0.6713867, 3.132, -0.1870117, 3.132, 0.1298828, 0.1204615, -0.0068818, 3.132, 0.2944336, 3.132, -0.7973633, 3.132, -0.0947266, 0.1204615, 0.0018463, 3.132, -0.0512695, 3.132, -0.7626953, 3.132, 0.121582, , , , , , , , , , , , , , , , , , , , , , 
0.1209808, 0.0307164, 3.1455, -0.847168, 3.1455, -0.0131836, 3.1455, 0.2460938, 0.1209808, -0.0152743, 3.1455, 0.7641602, 3.1455, -0.1235352, 3.1455, 0.3261719, 0.1209808, -0.0075532, 3.1455, 0.324707, 3.1455, -0.7373047, 3.1455, -0.1074219, 0.1209808, 0.0036927, 3.1455, -0.1582031, 3.1455, -0.824707, 3.1455, 0.1713867, , , , , , , , , , , , , , , , , , , , , , 
0.1215, 0.0292058, 3.159, -0.9013672, 3.159, 0.0517578, 3.159, 0.2514648, 0.1215, -0.0135958, 3.159, 0.8129883, 3.159, 0.0429688, 3.159, 0.2338867, 0.1215, -0.0070497, 3.159, 0.2626953, 3.159, -0.7919922, 3.159, -0.1708984, 0.1215, 0.0052033, 3.159, -0.1826172, 3.159, -0.8334961, 3.159, 0.1132812, , , , , , , , , , , , , , , , , , , , , , 
0.1220192, 0.0260166, 3.1725, -0.7001953, 3.1725, 0.0878906, 3.1725, 0.171875, 0.1220192, -0.012253, 3.1725, 0.8530273, 3.1725, 0.1850586, 3.1725, 0.1977539, 0.1220192, -0.0068818, 3.1725, 0.175293, 3.1725, -0.8583984, 3.1725, -0.1098633, 0.1220192, 0.0048676, 3.1725, -0.1064453, 3.1725, -0.8256836, 3.1725, 0.0844727, , , , , , , , , , , , , , , , , , , , , , 
0.1225385, 0.0203098, 3.186, -0.565918, 3.186, 0.0737305, 3.186, 0.3916016, 0.1225385, -0.012253, 3.186, 0.7358398, 3.186, 0.1640625, 3.186, 0.1850586, 0.1225385, -0.0075532, 3.186, 0.1538086, 3.186, -0.8798828, 3.186, -0.0893555, 0.1225385, 0.0036927, 3.186, -0.0732422, 3.186, -0.8242188, 3.186, 0.1157227, , , , , , , , , , , , , , , , , , , , , , 
0.1230577, 0.0193027, 3.1995, -0.5961914, 3.1995, 0.0429688, 3.1995, 0.3696289, 0.1230577, -0.0117494, 3.1995, 0.7646484, 3.1995, 0.0175781, 3.1995, 0.1367188, 0.1230577, -0.0092317, 3.1995, 0.2255859, 3.1995, -0.8237305, 3.1995, -0.0644531, 0.1230577, 0.0018463, 3.1995, -0.0864258, 3.1995, -0.777832, 3.1995, 0.1176758, , , , , , , , , , , , , , , , , , , , , , 
0.1235769, 0.021149, 3.213, -0.7338867, 3.213, 0.0546875, 3.213, 0.3100586, 0.1235769, -0.0095674, 3.213, 0.7246094, 3.213, 0.0151367, 3.213, 0.1787109, 0.1235769, -0.0099031, 3.213, 0.3481445, 3.213, -0.7802734, 3.213, -0.0200195, 0.1235769, 0.0010071, 3.213, -0.1420898, 3.213, -0.7631836, 3.213, 0.0981445, , , , , , , , , , , , , , , , , , , , , , 
0.1240962, 0.0172885, 3.2265, -0.7519531, 3.2265, 0.159668, 3.2265, 0.3256836, 0.1240962, -0.008896, 3.2265, 0.7553711, 3.2265, 0.0859375, 3.2265, 0.1757812, 0.1240962, -0.0109102, 3.2265, 0.390625, 3.2265, -0.7753906, 3.2265, -0.0229492, 0.1240962, 0.0018463, 3.2265, -0.1884766, 3.2265, -0.8305664, 3.2265, 0.1303711, , , , , , , , , , , , , , , , , , , , , , 
0.1246154, 0.012253, 3.24, -0.7456055, 3.24, 0.1938477, 3.24, 0.2822266, 0.1246154, -0.0072175, 3.24, 0.8520508, 3.24, 0.2260742, 3.24, 0.2089844, 0.1246154, -0.0117494, 3.24, 0.3266602, 3.24, -0.8383789, 3.24, -0.0571289, 0.1246154, 0.0018463, 3.24, -0.2104492, 3.24, -0.8916016, 3.24, 0.1796875, , , , , , , , , , , , , , , , , , , , , , 
0.1251346, 0.0092317, 3.2535, -0.7387695, 3.2535, 0.1196289, 3.2535, 0.2700195, 0.1251346, -0.0062104, 3.2535, 0.9033203, 3.2535, 0.1865234, 3.2535, 0.1235352, 0.1251346, -0.0119173, 3.2535, 0.2949219, 3.2535, -0.90625, 3.2535, -0.0615234, 0.1251346, -0.0008392, 3.2535, -0.1806641, 3.2535, -0.8666992, 3.2535, 0.1630859, , , , , , , , , , , , , , , , , , , , , , 
0.1256538, 0.0082246, 3.267, -0.7163086, 3.267, 0.0625, 3.267, 0.3925781, 0.1256538, -0.0062104, 3.267, 0.9150391, 3.267, 0.0922852, 3.267, 0.1469727, 0.1256538, -0.0115816, 3.267, 0.3032227, 3.267, -0.9091797, 3.267, -0.0258789, 0.1256538, -0.0063783, 3.267, -0.1801758, 3.267, -0.8466797, 3.267, 0.1582031, , , , , , , , , , , , , , , , , , , , , , 
0.1261731, 0.0052033, 3.2805, -0.6660156, 3.2805, 0.1289062, 3.2805, 0.3793945, 0.1261731, -0.0068818, 3.2805, 0.8085938, 3.2805, 0.1015625, 3.2805, 0.1098633, 0.1261731, -0.0135958, 3.2805, 0.3183594, 3.2805, -0.8662109, 3.2805, 0.0073242, 0.1261731, -0.0095674, 3.2805, -0.2583008, 3.2805, -0.8520508, 3.2805, 0.1904297, , , , , , , , , , , , , , , , , , , , , , 
0.1266923, 0.002182, 3.294, -0.71875, 3.294, 0.2524414, 3.294, 0.418457, 0.1266923, -0.0058747, 3.294, 0.7988281, 3.294, 0.1738281, 3.294, 0.0922852, 0.1266923, -0.0149386, 3.294, 0.3515625, 3.294, -0.8706055, 3.294, 0.0546875, 0.1266923, -0.0105745, 3.294, -0.3461914, 3.294, -0.8759766, 3.294, 0.1850586, , , , , , , , , , , , , , , , , , , , , , 
0.1272115, 0.0031891, 3.3075, -0.7670898, 3.3075, 0.2797852, 3.3075, 0.3427734, 0.1272115, -0.005539, 3.3075, 0.9580078, 3.3075, 0.2578125, 3.3075, 0.144043, 0.1272115, -0.0149386, 3.3075, 0.3427734, 3.3075, -0.9189453, 3.3075, 0.0307617, 0.1272115, -0.0109102, 3.3075, -0.3789062, 3.3075, -0.9248047, 3.3075, 0.2314453, , , , , , , , , , , , , , , , , , , , , , 
0.1277308, 0.0057069, 3.321, -0.8173828, 3.321, 0.1499023, 3.321, 0.371582, 0.1277308, -0.0068818, 3.321, 0.9331055, 3.321, 0.1694336, 3.321, 0.1040039, 0.1277308, -0.0152743, 3.321, 0.2861328, 3.321, -0.9418945, 3.321, -0.0097656, 0.1277308, -0.0125887, 3.321, -0.3266602, 3.321, -0.9018555, 3.321, 0.2509766, , , , , , , , , , , , , , , , , , , , , , 
0.12825, 0.0078889, 3.3345, -0.7890625, 3.3345, 0.0849609, 3.3345, 0.4008789, 0.12825, -0.0095674, 3.3345, 0.9921875, 3.3345, 0.0668945, 3.3345, 0.1152344, 0.12825, -0.0142672, 3.3345, 0.3203125, 3.3345, -0.890625, 3.3345, -0.0205078, 0.12825, -0.0114137, 3.3345, -0.3041992, 3.3345, -0.8706055, 3.3345, 0.2392578, , , , , , , , , , , , , , , , , , , , , , 
0.1287692, 0.0062104, 3.348, -0.7666016, 3.348, 0.1635742, 3.348, 0.4296875, 0.1287692, -0.008896, 3.348, 0.9604492, 3.348, 0.0776367, 3.348, 0.0913086, 0.1287692, -0.012253, 3.348, 0.3417969, 3.348, -0.8754883, 3.348, 0.0302734, 0.1287692, -0.0058747, 3.348, -0.3022461, 3.348, -0.862793, 3.348, 0.2260742, , , , , , , , , , , , , , , , , , , , , , 
0.1292885, 0.0082246, 3.3615, -0.7607422, 3.3615, 0.237793, 3.3615, 0.3930664, 0.1292885, -0.0068818, 3.3615, 0.9135742, 3.3615, 0.2021484, 3.3615, 0.1381836, 0.1292885, -0.0109102, 3.3615, 0.3549805, 3.3615, -0.8979492, 3.3615, 0.0600586, 0.1292885, 0.0011749, 3.3615, -0.3364258, 3.3615, -0.9023438, 3.3615, 0.2021484, , , , , , , , , , , , , , , , , , , , , , 
0.1298077, 0.0085603, 3.375, -0.7631836, 3.375, 0.3261719, 3.375, 0.3818359, 0.1298077, -0.0062104, 3.375, 0.8759766, 3.375, 0.3100586, 3.375, 0.0898438, 0.1298077, -0.0105745, 3.375, 0.3383789, 3.375, -0.9643555, 3.375, 0.074707, 0.1298077, 0.0052033, 3.375, -0.3442383, 3.375, -0.9257812, 3.375, 0.1967773, , , , , , , , , , , , , , , , , , , , , , 
0.1303269, 0.0050355, 3.3885, -0.7456055, 3.3885, 0.3051758, 3.3885, 0.3676758, 0.1303269, -0.0058747, 3.3885, 0.9042969, 3.3885, 0.3066406, 3.3885, 0.1660156, 0.1303269, -0.0112459, 3.3885, 0.3310547, 3.3885, -0.9604492, 3.3885, 0.0507812, 0.1303269, 0.0105745, 3.3885, -0.2998047, 3.3885, -0.9086914, 3.3885, 0.1787109, , , , , , , , , , , , , , , , , , , , , , 
0.1308462, 0.0005035, 3.402, -0.8432617, 3.402, 0.2416992, 3.402, 0.3920898, 0.1308462, -0.0048676, 3.402, 0.9736328, 3.402, 0.2167969, 3.402, 0.1166992, 0.1308462, -0.012253, 3.402, 0.3173828, 3.402, -0.8964844, 3.402, 0.043457, 0.1308462, 0.0172885, 3.402, -0.2563477, 3.402, -0.8632812, 3.402, 0.1660156, , , , , , , , , , , , , , , , , , , , , , 
0.1313654, -0.0015106, 3.4155, -0.7714844, 3.4155, 0.2563477, 3.4155, 0.3813477, 0.1313654, -0.0043641, 3.4155, 0.8881836, 3.4155, 0.2651367, 3.4155, 0.0419922, 0.1313654, -0.0115816, 3.4155, 0.3393555, 3.4155, -0.8608398, 3.4155, 0.0629883, 0.1313654, 0.0229953, 3.4155, -0.2983398, 3.4155, -0.8417969, 3.4155, 0.1772461, , , , , , , , , , , , , , , , , , , , , , 
0.1318846, -0.0005035, 3.429, -0.6748047, 3.429, 0.2680664, 3.429, 0.4189453, 0.1318846, -0.005539, 3.429, 0.8193359, 3.429, 0.3120117, 3.429, 0.1118164, 0.1318846, -0.0099031, 3.429, 0.3520508, 3.429, -0.8681641, 3.429, 0.046875, 0.1318846, 0.0287022, 3.429, -0.3569336, 3.429, -0.8496094, 3.429, 0.1918945, , , , , , , , , , , , , , , , , , , , , , 
0.1324038, 0.0008392, 3.4425, -0.6992188, 3.4425, 0.2709961, 3.4425, 0.3881836, 0.1324038, -0.0063783, 3.4425, 0.8764648, 3.4425, 0.2719727, 3.4425, 0.1293945, 0.1324038, -0.0078889, 3.4425, 0.3735352, 3.4425, -0.8798828, 3.4425, 0.074707, 0.1324038, 0.0347448, 3.4425, -0.3486328, 3.4425, -0.8691406, 3.4425, 0.1625977, , , , , , , , , , , , , , , , , , , , , , 
0.1329231, 0.0025177, 3.456, -0.7758789, 3.456, 0.324707, 3.456, 0.3193359, 0.1329231, -0.0077211, 3.456, 0.9370117, 3.456, 0.2612305, 3.456, 0.1689453, 0.1329231, -0.0068818, 3.456, 0.3349609, 3.456, -0.9169922, 3.456, 0.0712891, 0.1329231, 0.040116, 3.456, -0.3334961, 3.456, -0.9160156, 3.456, 0.1987305, , , , , , , , , , , , , , , , , , , , , , 
0.1334423, 0.0020142, 3.4695, -0.7397461, 3.4695, 0.3027344, 3.4695, 0.3164062, 0.1334423, -0.0095674, 3.4695, 0.9428711, 3.4695, 0.2666016, 3.4695, 0.1523438, 0.1334423, -0.0068818, 3.4695, 0.2822266, 3.4695, -0.9311523, 3.4695, 0.0517578, 0.1334423, 0.0438087, 3.4695, -0.3461914, 3.4695, -0.8955078, 3.4695, 0.184082, , , , , , , , , , , , , , , , , , , , , , 
0.1339615, 0.0025177, 3.483, -0.6762695, 3.483, 0.2734375, 3.483, 0.3608398, 0.1339615, -0.0095674, 3.483, 0.90625, 3.483, 0.2504883, 3.483, 0.137207, 0.1339615, -0.0068818, 3.483, 0.2783203, 3.483, -0.921875, 3.483, 0.0483398, 0.1339615, 0.0448157, 3.483, -0.3632812, 3.483, -0.8789062, 3.483, 0.1757812, , , , , , , , , , , , , , , , , , , , , , 
0.1344808, 0.0058747, 3.4965, -0.640625, 3.4965, 0.2470703, 3.4965, 0.3500977, 0.1344808, -0.0082246, 3.4965, 0.875, 3.4965, 0.237793, 3.4965, 0.0581055, 0.1344808, -0.005539, 3.4965, 0.2832031, 3.4965, -0.8891602, 3.4965, 0.0483398, 0.1344808, 0.0439765, 3.4965, -0.3969727, 3.4965, -0.8686523, 3.4965, 0.2016602, , , , , , , , , , , , , , , , , , , , , , 
0.135, 0.0092317, 3.51, -0.690918, 3.51, 0.2939453, 3.51, 0.3427734, 0.135, -0.0078889, 3.51, 0.7719727, 3.51, 0.2773438, 3.51, 0.059082, 0.135, -0.0043641, 3.51, 0.3110352, 3.51, -0.8686523, 3.51, 0.0771484, 0.135, 0.0421302, 3.51, -0.3979492, 3.51, -0.8813477, 3.51, 0.1811523, , , , , , , , , , , , , , , , , , , , , , 
0.1355192, 0.0095674, 3.5235, -0.7250977, 3.5235, 0.3852539, 3.5235, 0.324707, 0.1355192, -0.0070497, 3.5235, 0.7626953, 3.5235, 0.3276367, 3.5235, 0.1342773, 0.1355192, -0.0035248, 3.5235, 0.3300781, 3.5235, -0.9091797, 3.5235, 0.1083984, 0.1355192, 0.0384375, 3.5235, -0.3920898, 3.5235, -0.909668, 3.5235, 0.1914062, , , , , , , , , , , , , , , , , , , , , , 
0.1360385, 0.0119173, 3.537, -0.706543, 3.537, 0.3808594, 3.537, 0.3334961, 0.1360385, -0.0072175, 3.537, 0.840332, 3.537, 0.3168945, 3.537, 0.0629883, 0.1360385, -0.0028534, 3.537, 0.3242188, 3.537, -0.9130859, 3.537, 0.0732422, 0.1360385, 0.033402, 3.537, -0.3886719, 3.537, -0.8945312, 3.537, 0.2207031, , , , , , , , , , , , , , , , , , , , , , 
0.1365577, 0.0186313, 3.5505, -0.6245117, 3.5505, 0.2929688, 3.5505, 0.3632812, 0.1365577, -0.0082246, 3.5505, 0.753418, 3.5505, 0.3227539, 3.5505, 0.0205078, 0.1365577, -0.0028534, 3.5505, 0.3334961, 3.5505, -0.8681641, 3.5505, 0.0541992, 0.1365577, 0.0280308, 3.5505, -0.3769531, 3.5505, -0.8720703, 3.5505, 0.1982422, , , , , , , , , , , , , , , , , , , , , , 
0.1370769, 0.0196384, 3.564, -0.6479492, 3.564, 0.2856445, 3.564, 0.3852539, 0.1370769, -0.0085603, 3.564, 0.800293, 3.564, 0.3549805, 3.564, 0.1201172, 0.1370769, -0.0025177, 3.564, 0.3544922, 3.564, -0.8647461, 3.564, 0.0776367, 0.1370769, 0.0250095, 3.564, -0.3598633, 3.564, -0.8813477, 3.564, 0.1601562, , , , , , , , , , , , , , , , , , , , , , 
0.1375962, 0.0166171, 3.5775, -0.7236328, 3.5775, 0.3642578, 3.5775, 0.3413086, 0.1375962, -0.008896, 3.5775, 0.8256836, 3.5775, 0.3920898, 3.5775, 0.0322266, 0.1375962, -0.0043641, 3.5775, 0.3325195, 3.5775, -0.9086914, 3.5775, 0.1005859, 0.1375962, 0.0240024, 3.5775, -0.3671875, 3.5775, -0.8857422, 3.5775, 0.1640625, , , , , , , , , , , , , , , , , , , , , , 
0.1381154, 0.018967, 3.591, -0.6982422, 3.591, 0.3930664, 3.591, 0.3442383, 0.1381154, -0.0078889, 3.591, 0.7607422, 3.591, 0.4345703, 3.591, 0.1098633, 0.1381154, -0.0062104, 3.591, 0.2885742, 3.591, -0.9257812, 3.591, 0.1264648, 0.1381154, 0.0238346, 3.591, -0.3896484, 3.591, -0.8613281, 3.591, 0.152832, , , , , , , , , , , , , , , , , , , , , , 
0.1386346, 0.0250095, 3.6045, -0.65625, 3.6045, 0.4052734, 3.6045, 0.3706055, 0.1386346, -0.0068818, 3.6045, 0.7841797, 3.6045, 0.4389648, 3.6045, 0.137207, 0.1386346, -0.0045319, 3.6045, 0.28125, 3.6045, -0.8969727, 3.6045, 0.1416016, 0.1386346, 0.0209812, 3.6045, -0.402832, 3.6045, -0.8217773, 3.6045, 0.1352539, , , , , , , , , , , , , , , , , , , , , , 
0.1391538, 0.0260166, 3.618, -0.6318359, 3.618, 0.4003906, 3.618, 0.3764648, 0.1391538, -0.0063783, 3.618, 0.8515625, 3.618, 0.4448242, 3.618, 0.0444336, 0.1391538, -0.0028534, 3.618, 0.2802734, 3.618, -0.8774414, 3.618, 0.1259766, 0.1391538, 0.0142672, 3.618, -0.4165039, 3.618, -0.8178711, 3.618, 0.1381836, , , , , , , , , , , , , , , , , , , , , , 
0.1396731, 0.0236667, 3.6315, -0.6572266, 3.6315, 0.3925781, 3.6315, 0.4008789, 0.1396731, -0.0072175, 3.6315, 0.8540039, 3.6315, 0.4633789, 3.6315, 0.0742188, 0.1396731, -0.0035248, 3.6315, 0.2905273, 3.6315, -0.8710938, 3.6315, 0.1123047, 0.1396731, 0.0092317, 3.6315, -0.421875, 3.6315, -0.8276367, 3.6315, 0.140625, , , , , , , , , , , , , , , , , , , , , , 
0.1401923, 0.0229953, 3.645, -0.7016602, 3.645, 0.4023438, 3.645, 0.3984375, 0.1401923, -0.0092317, 3.645, 0.8583984, 3.645, 0.4707031, 3.645, 0.0708008, 0.1401923, -0.0038605, 3.645, 0.3129883, 3.645, -0.90625, 3.645, 0.1572266, 0.1401923, 0.0078889, 3.645, -0.4169922, 3.645, -0.8510742, 3.645, 0.1352539, , , , , , , , , , , , , , , , , , , , , , 
0.1407115, 0.0226596, 3.6585, -0.7246094, 3.6585, 0.40625, 3.6585, 0.3818359, 0.1407115, -0.0115816, 3.6585, 0.847168, 3.6585, 0.4731445, 3.6585, 0.0483398, 0.1407115, -0.0035248, 3.6585, 0.3198242, 3.6585, -0.9560547, 3.6585, 0.1499023, 0.1407115, 0.0102388, 3.6585, -0.4238281, 3.6585, -0.8842773, 3.6585, 0.1396484, , , , , , , , , , , , , , , , , , , , , , 
0.1412308, 0.0206455, 3.672, -0.7456055, 3.672, 0.3823242, 3.672, 0.4282227, 0.1412308, -0.0129244, 3.672, 0.8637695, 3.672, 0.4423828, 3.672, 0.0874023, 0.1412308, -0.005539, 3.672, 0.3276367, 3.672, -0.9560547, 3.672, 0.1313477, 0.1412308, 0.0132601, 3.672, -0.40625, 3.672, -0.8891602, 3.672, 0.1445312, , , , , , , , , , , , , , , , , , , , , , 
0.14175, 0.0152743, 3.6855, -0.6967773, 3.6855, 0.3950195, 3.6855, 0.4179688, 0.14175, -0.0135958, 3.6855, 0.855957, 3.6855, 0.4467773, 3.6855, 0.0688477, 0.14175, -0.0085603, 3.6855, 0.3354492, 3.6855, -0.9155273, 3.6855, 0.1225586, 0.14175, 0.0149386, 3.6855, -0.3950195, 3.6855, -0.8798828, 3.6855, 0.1772461, , , , , , , , , , , , , , , , , , , , , , 
0.1422692, 0.0135958, 3.699, -0.6884766, 3.699, 0.4111328, 3.699, 0.4301758, 0.1422692, -0.0112459, 3.699, 0.9223633, 3.699, 0.4428711, 3.699, 0.0830078, 0.1422692, -0.0095674, 3.699, 0.3520508, 3.699, -0.8979492, 3.699, 0.1308594, 0.1422692, 0.0119173, 3.699, -0.4189453, 3.699, -0.8833008, 3.699, 0.1762695, , , , , , , , , , , , , , , , , , , , , , 
0.1427885, 0.0213169, 3.7125, -0.7001953, 3.7125, 0.4282227, 3.7125, 0.4331055, 0.1427885, -0.0085603, 3.7125, 0.8984375, 3.7125, 0.4467773, 3.7125, 0.0483398, 0.1427885, -0.0068818, 3.7125, 0.3666992, 3.7125, -0.9394531, 3.7125, 0.1430664, 0.1427885, 0.0062104, 3.7125, -0.4682617, 3.7125, -0.9013672, 3.7125, 0.1894531, , , , , , , , , , , , , , , , , , , , , , 
0.1433077, 0.0213169, 3.726, -0.7260742, 3.726, 0.4155273, 3.726, 0.4194336, 0.1433077, -0.0075532, 3.726, 0.8828125, 3.726, 0.4360352, 3.726, 0.0551758, 0.1433077, -0.0028534, 3.726, 0.3544922, 3.726, -0.9731445, 3.726, 0.1572266, 0.1433077, 0.0025177, 3.726, -0.480957, 3.726, -0.9077148, 3.726, 0.1938477, , , , , , , , , , , , , , , , , , , , , , 
0.1438269, 0.0159457, 3.7395, -0.7304688, 3.7395, 0.4140625, 3.7395, 0.4370117, 0.1438269, -0.005539, 3.7395, 0.8657227, 3.7395, 0.4443359, 3.7395, 0.0302734, 0.1438269, -0.0018463, 3.7395, 0.3369141, 3.7395, -0.9638672, 3.7395, 0.1513672, 0.1438269, 0.0025177, 3.7395, -0.4702148, 3.7395, -0.9042969, 3.7395, 0.2148438, , , , , , , , , , , , , , , , , , , , , , 
0.1443462, 0.0132601, 3.753, -0.7177734, 3.753, 0.4086914, 3.753, 0.4589844, 0.1443462, -0.0041962, 3.753, 0.8544922, 3.753, 0.465332, 3.753, 0.0263672, 0.1443462, -0.0038605, 3.753, 0.34375, 3.753, -0.9492188, 3.753, 0.1489258, 0.1443462, 0.0038605, 3.753, -0.4594727, 3.753, -0.8945312, 3.753, 0.2036133, , , , , , , , , , , , , , , , , , , , , , 
0.1448654, 0.0151064, 3.7665, -0.7075195, 3.7665, 0.4238281, 3.7665, 0.4516602, 0.1448654, -0.0062104, 3.7665, 0.878418, 3.7665, 0.46875, 3.7665, 0.0234375, 0.1448654, -0.0048676, 3.7665, 0.3710938, 3.7665, -0.9345703, 3.7665, 0.1430664, 0.1448654, 0.002182, 3.7665, -0.4506836, 3.7665, -0.9003906, 3.7665, 0.1870117, , , , , , , , , , , , , , , , , , , , , , 
0.1453846, 0.01561, 3.78, -0.7011719, 3.78, 0.4316406, 3.78, 0.4501953, 0.1453846, -0.0068818, 3.78, 0.8896484, 3.78, 0.4770508, 3.78, 0.0429688, 0.1453846, -0.005539, 3.78, 0.3759766, 3.78, -0.9501953, 3.78, 0.1572266, 0.1453846, -0.0018463, 3.78, -0.4492188, 3.78, -0.9140625, 3.78, 0.1821289, , , , , , , , , , , , , , , , , , , , , , 
0.1459038, 0.0119173, 3.7935, -0.6835938, 3.7935, 0.440918, 3.7935, 0.4199219, 0.1459038, -0.0062104, 3.7935, 0.8764648, 3.7935, 0.4794922, 3.7935, 0.0415039, 0.1459038, -0.0068818, 3.7935, 0.3447266, 3.7935, -0.9711914, 3.7935, 0.1757812, 0.1459038, -0.0045319, 3.7935, -0.4511719, 3.7935, -0.9160156, 3.7935, 0.1796875, , , , , , , , , , , , , , , , , , , , , , 
0.1464231, 0.0139315, 3.807, -0.6889648, 3.807, 0.4467773, 3.807, 0.4301758, 0.1464231, -0.0062104, 3.807, 0.847168, 3.807, 0.4794922, 3.807, 0.0317383, 0.1464231, -0.0075532, 3.807, 0.3334961, 3.807, -0.9643555, 3.807, 0.1650391, 0.1464231, -0.0073854, 3.807, -0.449707, 3.807, -0.8974609, 3.807, 0.1669922, , , , , , , , , , , , , , , , , , , , , , 
0.1469423, 0.017792, 3.8205, -0.699707, 3.8205, 0.4277344, 3.8205, 0.4516602, 0.1469423, -0.0062104, 3.8205, 0.8359375, 3.8205, 0.4868164, 3.8205, 0.0283203, 0.1469423, -0.0075532, 3.8205, 0.3422852, 3.8205, -0.9194336, 3.8205, 0.1455078, 0.1469423, -0.0095674, 3.8205, -0.4487305, 3.8205, -0.8618164, 3.8205, 0.1591797, , , , , , , , , , , , , , , , , , , , , , 
0.1474615, 0.0182956, 3.834, -0.7124023, 3.834, 0.4067383, 3.834, 0.4306641, 0.1474615, -0.0068818, 3.834, 0.8730469, 3.834, 0.4638672, 3.834, 0.0532227, 0.1474615, -0.0082246, 3.834, 0.3300781, 3.834, -0.9111328, 3.834, 0.1455078, 0.1474615, -0.0095674, 3.834, -0.4438477, 3.834, -0.8583984, 3.834, 0.1704102, , , , , , , , , , , , , , , , , , , , , , 
0.1479808, 0.0182956, 3.8475, -0.7133789, 3.8475, 0.4003906, 3.8475, 0.4189453, 0.1479808, -0.0082246, 3.8475, 0.8862305, 3.8475, 0.449707, 3.8475, 0.0537109, 0.1479808, -0.008896, 3.8475, 0.3481445, 3.8475, -0.9267578, 3.8475, 0.1538086, 0.1479808, -0.0105745, 3.8475, -0.4389648, 3.8475, -0.8818359, 3.8475, 0.1748047, , , , , , , , , , , , , , , , , , , , , , 
0.1485, 0.0172885, 3.861, -0.7099609, 3.861, 0.4008789, 3.861, 0.4174805, 0.1485, -0.0082246, 3.861, 0.8925781, 3.861, 0.4350586, 3.861, 0.0688477, 0.1485, -0.0082246, 3.861, 0.3491211, 3.861, -0.9389648, 3.861, 0.1567383, 0.1485, -0.0082246, 3.861, -0.4306641, 3.861, -0.8950195, 3.861, 0.1650391, , , , , , , , , , , , , , , , , , , , , , 
0.1490192, 0.0152743, 3.8745, -0.7119141, 3.8745, 0.3935547, 3.8745, 0.4067383, 0.1490192, -0.0082246, 3.8745, 0.8881836, 3.8745, 0.4311523, 3.8745, 0.0966797, 0.1490192, -0.0068818, 3.8745, 0.3413086, 3.8745, -0.9384766, 3.8745, 0.1425781, 0.1490192, -0.0008392, 3.8745, -0.4326172, 3.8745, -0.8930664, 3.8745, 0.1621094, , , , , , , , , , , , , , , , , , , , , , 
0.1495385, 0.0125887, 3.888, -0.7329102, 3.888, 0.3916016, 3.888, 0.3959961, 0.1495385, -0.0077211, 3.888, 0.8681641, 3.888, 0.4379883, 3.888, 0.0961914, 0.1495385, -0.005539, 3.888, 0.3110352, 3.888, -0.9238281, 3.888, 0.1118164, 0.1495385, 0.0072175, 3.888, -0.4277344, 3.888, -0.8725586, 3.888, 0.1635742, , , , , , , , , , , , , , , , , , , , , , 
0.1500577, 0.0090639, 3.9015, -0.7329102, 3.9015, 0.3974609, 3.9015, 0.3925781, 0.1500577, -0.0062104, 3.9015, 0.8725586, 3.9015, 0.4458008, 3.9015, 0.097168, 0.1500577, -0.0052033, 3.9015, 0.2900391, 3.9015, -0.9169922, 3.9015, 0.1196289, 0.1500577, 0.0125887, 3.9015, -0.4272461, 3.9015, -0.8574219, 3.9015, 0.159668, , , , , , , , , , , , , , , , , , , , , , 
0.1505769, 0.0038605, 3.915, -0.7226562, 3.915, 0.4042969, 3.915, 0.3984375, 0.1505769, -0.0062104, 3.915, 0.8779297, 3.915, 0.4414062, 3.915, 0.097168, 0.1505769, -0.0062104, 3.915, 0.3046875, 3.915, -0.9267578, 3.915, 0.128418, 0.1505769, 0.0146029, 3.915, -0.4311523, 3.915, -0.8720703, 3.915, 0.1591797, , , , , , , , , , , , , , , , , , , , , , 
0.1510962, 0.0005035, 3.9285, -0.7319336, 3.9285, 0.390625, 3.9285, 0.3999023, 0.1510962, -0.005539, 3.9285, 0.8857422, 3.9285, 0.4233398, 3.9285, 0.0932617, 0.1510962, -0.0062104, 3.9285, 0.3271484, 3.9285, -0.9379883, 3.9285, 0.1235352, 0.1510962, 0.0193027, 3.9285, -0.4057617, 3.9285, -0.8984375, 3.9285, 0.1655273, , , , , , , , , , , , , , , , , , , , , , 
0.1516154, 0.0011749, 3.942, -0.7250977, 3.942, 0.3862305, 3.942, 0.3950195, 0.1516154, -0.005539, 3.942, 0.8657227, 3.942, 0.4150391, 3.942, 0.0986328, 0.1516154, -0.0053712, 3.942, 0.3500977, 3.942, -0.9306641, 3.942, 0.1245117, 0.1516154, 0.0273594, 3.942, -0.3935547, 3.942, -0.9042969, 3.942, 0.1665039, , , , , , , , , , , , , , , , , , , , , , 
0.1521346, 0.0036927, 3.9555, -0.7143555, 3.9555, 0.4008789, 3.9555, 0.4018555, 0.1521346, -0.0072175, 3.9555, 0.8706055, 3.9555, 0.425293, 3.9555, 0.0942383, 0.1521346, -0.0057069, 3.9555, 0.3613281, 3.9555, -0.9243164, 3.9555, 0.1240234, 0.1521346, 0.0347448, 3.9555, -0.3857422, 3.9555, -0.8994141, 3.9555, 0.1713867, , , , , , , , , , , , , , , , , , , , , , 
0.1526538, 0.0052033, 3.969, -0.7148438, 3.969, 0.4067383, 3.969, 0.3994141, 0.1526538, -0.0075532, 3.969, 0.8725586, 3.969, 0.4399414, 3.969, 0.0786133, 0.1526538, -0.0072175, 3.969, 0.3544922, 3.969, -0.9243164, 3.969, 0.1176758, 0.1526538, 0.0384375, 3.969, -0.3989258, 3.969, -0.8774414, 3.969, 0.1699219, , , , , , , , , , , , , , , , , , , , , , 
0.1531731, 0.005539, 3.9825, -0.7006836, 3.9825, 0.3945312, 3.9825, 0.4023438, 0.1531731, -0.0082246, 3.9825, 0.8696289, 3.9825, 0.4492188, 3.9825, 0.065918, 0.1531731, -0.0070497, 3.9825, 0.34375, 3.9825, -0.9257812, 3.9825, 0.1196289, 0.1531731, 0.0386053, 3.9825, -0.4082031, 3.9825, -0.8608398, 3.9825, 0.1655273, , , , , , , , , , , , , , , , , , , , , , 
0.1536923, 0.0085603, 3.996, -0.7094727, 3.996, 0.4018555, 3.996, 0.4150391, 0.1536923, -0.0085603, 3.996, 0.8530273, 3.996, 0.4472656, 3.996, 0.0751953, 0.1536923, -0.0075532, 3.996, 0.3208008, 3.996, -0.9213867, 3.996, 0.1357422, 0.1536923, 0.0381018, 3.996, -0.4204102, 3.996, -0.8642578, 3.996, 0.1640625, , , , , , , , , , , , , , , , , , , , , , 
0.1542115, 0.0119173, 4.0095, -0.7172852, 4.0095, 0.4174805, 4.0095, 0.4111328, 0.1542115, -0.008896, 4.0095, 0.8486328, 4.0095, 0.4487305, 4.0095, 0.0688477, 0.1542115, -0.0072175, 4.0095, 0.3139648, 4.0095, -0.921875, 4.0095, 0.1411133, 0.1542115, 0.0407874, 4.0095, -0.4335938, 4.0095, -0.8793945, 4.0095, 0.168457, , , , , , , , , , , , , , , , , , , , , , 
0.1547308, 0.0124208, 4.023, -0.7124023, 4.023, 0.4189453, 4.023, 0.4057617, 0.1547308, -0.0102388, 4.023, 0.8657227, 4.023, 0.4555664, 4.023, 0.0727539, 0.1547308, -0.0072175, 4.023, 0.3129883, 4.023, -0.9311523, 4.023, 0.1459961, 0.1547308, 0.0407874, 4.023, -0.4458008, 4.023, -0.8818359, 4.023, 0.1572266, , , , , , , , , , , , , , , , , , , , , , 
0.15525, 0.0142672, 4.0365, -0.706543, 4.0365, 0.4204102, 4.0365, 0.3999023, 0.15525, -0.012253, 4.0365, 0.8842773, 4.0365, 0.4707031, 4.0365, 0.0737305, 0.15525, -0.0082246, 4.0365, 0.3081055, 4.0365, -0.9506836, 4.0365, 0.1508789, 0.15525, 0.0354162, 4.0365, -0.4433594, 4.0365, -0.8808594, 4.0365, 0.1577148, , , , , , , , , , , , , , , , , , , , , , 
0.1557692, 0.0193027, 4.05, -0.7050781, 4.05, 0.4228516, 4.05, 0.4038086, 0.1557692, -0.0119173, 4.05, 0.8730469, 4.05, 0.4707031, 4.05, 0.0737305, 0.1557692, -0.0099031, 4.05, 0.3144531, 4.05, -0.9472656, 4.05, 0.1386719, 0.1557692, 0.0273594, 4.05, -0.4277344, 4.05, -0.8681641, 4.05, 0.1577148, , , , , , , , , , , , , , , , , , , , , , 
0.1562885, 0.0256809, 4.0635, -0.7050781, 4.0635, 0.418457, 4.0635, 0.4208984, 0.1562885, -0.008896, 4.0635, 0.8574219, 4.0635, 0.4614258, 4.0635, 0.0625, 0.1562885, -0.0102388, 4.0635, 0.3330078, 4.0635, -0.9282227, 4.0635, 0.1313477, 0.1562885, 0.0224918, 4.0635, -0.4106445, 4.0635, -0.8696289, 4.0635, 0.1538086, , , , , , , , , , , , , , , , , , , , , , 
0.1568077, 0.0229953, 4.077, -0.7197266, 4.077, 0.4174805, 4.077, 0.418457, 0.1568077, -0.0068818, 4.077, 0.862793, 4.077, 0.4511719, 4.077, 0.0610352, 0.1568077, -0.0087282, 4.077, 0.3476562, 4.077, -0.9272461, 4.077, 0.1396484, 0.1568077, 0.0203098, 4.077, -0.4091797, 4.077, -0.8862305, 4.077, 0.171875, , , , , , , , , , , , , , , , , , , , , , 
0.1573269, 0.0169528, 4.0905, -0.7285156, 4.0905, 0.4091797, 4.0905, 0.4296875, 0.1573269, -0.0075532, 4.0905, 0.8652344, 4.0905, 0.4472656, 4.0905, 0.0639648, 0.1573269, -0.0083925, 4.0905, 0.3598633, 4.0905, -0.9370117, 4.0905, 0.140625, 0.1573269, 0.0172885, 4.0905, -0.4150391, 4.0905, -0.8925781, 4.0905, 0.1767578, , , , , , , , , , , , , , , , , , , , , , 
0.1578462, 0.0142672, 4.104, -0.7246094, 4.104, 0.4140625, 4.104, 0.4248047, 0.1578462, -0.0099031, 4.104, 0.887207, 4.104, 0.4487305, 4.104, 0.0698242, 0.1578462, -0.0095674, 4.104, 0.3583984, 4.104, -0.9482422, 4.104, 0.1411133, 0.1578462, 0.0152743, 4.104, -0.4287109, 4.104, -0.90625, 4.104, 0.1796875, , , , , , , , , , , , , , , , , , , , , , 
0.1583654, 0.0135958, 4.1175, -0.7172852, 4.1175, 0.4204102, 4.1175, 0.4174805, 0.1583654, -0.0112459, 4.1175, 0.8950195, 4.1175, 0.4560547, 4.1175, 0.0644531, 0.1583654, -0.008896, 4.1175, 0.3334961, 4.1175, -0.9599609, 4.1175, 0.1464844, 0.1583654, 0.0146029, 4.1175, -0.4360352, 4.1175, -0.8925781, 4.1175, 0.1738281, , , , , , , , , , , , , , , , , , , , , , 
0.1588846, 0.0132601, 4.131, -0.7231445, 4.131, 0.4174805, 4.131, 0.4179688, 0.1588846, -0.0095674, 4.131, 0.8964844, 4.131, 0.4492188, 4.131, 0.0771484, 0.1588846, -0.0070497, 4.131, 0.3105469, 4.131, -0.9506836, 4.131, 0.1484375, 0.1588846, 0.0129244, 4.131, -0.4404297, 4.131, -0.8789062, 4.131, 0.1694336, , , , , , , , , , , , , , , , , , , , , , 
0.1594038, 0.0125887, 4.1445, -0.7285156, 4.1445, 0.4121094, 4.1445, 0.4248047, 0.1594038, -0.0077211, 4.1445, 0.8886719, 4.1445, 0.4418945, 4.1445, 0.0771484, 0.1594038, -0.0078889, 4.1445, 0.3139648, 4.1445, -0.940918, 4.1445, 0.1464844, 0.1594038, 0.0112459, 4.1445, -0.4472656, 4.1445, -0.8876953, 4.1445, 0.1738281, , , , , , , , , , , , , , , , , , , , , , 
0.1599231, 0.0092317, 4.158, -0.7333984, 4.158, 0.4067383, 4.158, 0.4238281, 0.1599231, -0.0072175, 4.158, 0.8891602, 4.158, 0.4399414, 4.158, 0.0776367, 0.1599231, -0.0072175, 4.158, 0.3330078, 4.158, -0.9291992, 4.158, 0.1357422, 0.1599231, 0.012253, 4.158, -0.4487305, 4.158, -0.8920898, 4.158, 0.1723633, , , , , , , , , , , , , , , , , , , , , , 
0.1604423, 0.0085603, 4.1715, -0.7338867, 4.1715, 0.4018555, 4.1715, 0.4208984, 0.1604423, -0.0095674, 4.1715, 0.8945312, 4.1715, 0.4477539, 4.1715, 0.081543, 0.1604423, -0.0062104, 4.1715, 0.3461914, 4.1715, -0.9370117, 4.1715, 0.1328125, 0.1604423, 0.0139315, 4.1715, -0.4365234, 4.1715, -0.8911133, 4.1715, 0.1669922, , , , , , , , , , , , , , , , , , , , , , 
0.1609615, 0.0115816, 4.185, -0.7324219, 4.185, 0.4121094, 4.185, 0.4116211, 0.1609615, -0.0095674, 4.185, 0.8950195, 4.185, 0.4516602, 4.185, 0.0830078, 0.1609615, -0.0082246, 4.185, 0.3432617, 4.185, -0.9541016, 4.185, 0.1396484, 0.1609615, 0.014435, 4.185, -0.4223633, 4.185, -0.8911133, 4.185, 0.1645508, , , , , , , , , , , , , , , , , , , , , , 
0.1614808, 0.0139315, 4.1985, -0.7290039, 4.1985, 0.4140625, 4.1985, 0.4140625, 0.1614808, -0.0057069, 4.1985, 0.8891602, 4.1985, 0.4541016, 4.1985, 0.0786133, 0.1614808, -0.0105745, 4.1985, 0.3286133, 4.1985, -0.9541016, 4.1985, 0.1435547, 0.1614808, 0.0119173, 4.1985, -0.418457, 4.1985, -0.8891602, 4.1985, 0.1591797, , , , , , , , , , , , , , , , , , , , , , 
0.162, 0.0152743, 4.212, -0.7075195, 4.212, 0.4160156, 4.212, 0.421875, 0.162, -0.0041962, 4.212, 0.875, 4.212, 0.4575195, 4.212, 0.0693359, 0.162, -0.0105745, 4.212, 0.3300781, 4.212, -0.9404297, 4.212, 0.1591797, 0.162, 0.0099031, 4.212, -0.4248047, 4.212, -0.8808594, 4.212, 0.1538086, , , , , , , , , , , , , , , , , , , , , , 
0.1625192, 0.0139315, 4.2255, -0.6958008, 4.2255, 0.4179688, 4.2255, 0.4208984, 0.1625192, -0.0060426, 4.2255, 0.8603516, 4.2255, 0.4594727, 4.2255, 0.059082, 0.1625192, -0.0092317, 4.2255, 0.3266602, 4.2255, -0.918457, 4.2255, 0.1469727, 0.1625192, 0.0075532, 4.2255, -0.4321289, 4.2255, -0.8706055, 4.2255, 0.15625, , , , , , , , , , , , , , , , , , , , , , 
0.1630385, 0.0137636, 4.239, -0.7138672, 4.239, 0.4194336, 4.239, 0.4248047, 0.1630385, -0.0085603, 4.239, 0.8652344, 4.239, 0.4584961, 4.239, 0.0639648, 0.1630385, -0.0099031, 4.239, 0.3310547, 4.239, -0.9257812, 4.239, 0.1450195, 0.1630385, 0.0060426, 4.239, -0.4379883, 4.239, -0.8754883, 4.239, 0.1572266, , , , , , , , , , , , , , , , , , , , , , 
0.1635577, 0.0152743, 4.2525, -0.7299805, 4.2525, 0.4208984, 4.2525, 0.4213867, 0.1635577, -0.0095674, 4.2525, 0.8823242, 4.2525, 0.4604492, 4.2525, 0.078125, 0.1635577, -0.0119173, 4.2525, 0.3364258, 4.2525, -0.953125, 4.2525, 0.1577148, 0.1635577, 0.0065461, 4.2525, -0.4453125, 4.2525, -0.8911133, 4.2525, 0.1586914, , , , , , , , , , , , , , , , , , , , , , 
0.1640769, 0.0157778, 4.266, -0.7060547, 4.266, 0.4291992, 4.266, 0.4067383, 0.1640769, -0.0082246, 4.266, 0.8701172, 4.266, 0.4731445, 4.266, 0.0712891, 0.1640769, -0.0125887, 4.266, 0.3286133, 4.266, -0.9575195, 4.266, 0.1591797, 0.1640769, 0.005539, 4.266, -0.4482422, 4.266, -0.8911133, 4.266, 0.1621094, , , , , , , , , , , , , , , , , , , , , , 
0.1645962, 0.0159457, 4.2795, -0.6801758, 4.2795, 0.4438477, 4.2795, 0.4086914, 0.1645962, -0.0075532, 4.2795, 0.8613281, 4.2795, 0.4858398, 4.2795, 0.0615234, 0.1645962, -0.012253, 4.2795, 0.3027344, 4.2795, -0.9487305, 4.2795, 0.1640625, 0.1645962, 0.0031891, 4.2795, -0.4506836, 4.2795, -0.8637695, 4.2795, 0.1518555, , , , , , , , , , , , , , , , , , , , , , 
0.1651154, 0.0166171, 4.293, -0.690918, 4.293, 0.4399414, 4.293, 0.421875, 0.1651154, -0.0078889, 4.293, 0.8666992, 4.293, 0.4829102, 4.293, 0.0644531, 0.1651154, -0.0117494, 4.293, 0.2910156, 4.293, -0.9282227, 4.293, 0.1601562, 0.1651154, -0.0025177, 4.293, -0.4580078, 4.293, -0.8520508, 4.293, 0.1435547, , , , , , , , , , , , , , , , , , , , , , 
0.1656346, 0.0193027, 4.3065, -0.7197266, 4.3065, 0.4257812, 4.3065, 0.4169922, 0.1656346, -0.008896, 4.3065, 0.8754883, 4.3065, 0.4672852, 4.3065, 0.0756836, 0.1656346, -0.0112459, 4.3065, 0.3149414, 4.3065, -0.9228516, 4.3065, 0.1669922, 0.1656346, -0.0065461, 4.3065, -0.4555664, 4.3065, -0.8691406, 4.3065, 0.1464844, , , , , , , , , , , , , , , , , , , , , , 
0.1661538, 0.0204776, 4.32, -0.7285156, 4.32, 0.4262695, 4.32, 0.4145508, 0.1661538, -0.0075532, 4.32, 0.8598633, 4.32, 0.4638672, 4.32, 0.0791016, 0.1661538, -0.0115816, 4.32, 0.3212891, 4.32, -0.9428711, 4.32, 0.1704102, 0.1661538, -0.0095674, 4.32, -0.4536133, 4.32, -0.8896484, 4.32, 0.1489258, , , , , , , , , , , , , , , , , , , , , , 
0.1666731, 0.0166171, 4.3335, -0.6948242, 4.3335, 0.4389648, 4.3335, 0.4204102, 0.1666731, -0.0062104, 4.3335, 0.862793, 4.3335, 0.4716797, 4.3335, 0.0742188, 0.1666731, -0.011078, 4.3335, 0.3178711, 4.3335, -0.953125, 4.3335, 0.1630859, 0.1666731, -0.0142672, 4.3335, -0.4477539, 4.3335, -0.8862305, 4.3335, 0.1542969, , , , , , , , , , , , , , , , , , , , , , 
0.1671923, 0.0097353, 4.347, -0.675293, 4.347, 0.4350586, 4.347, 0.4189453, 0.1671923, -0.0057069, 4.347, 0.862793, 4.347, 0.4760742, 4.347, 0.0556641, 0.1671923, -0.0099031, 4.347, 0.3125, 4.347, -0.9326172, 4.347, 0.1533203, 0.1671923, -0.0166171, 4.347, -0.4414062, 4.347, -0.8647461, 4.347, 0.1582031, , , , , , , , , , , , , , , , , , , , , , 
0.1677115, 0.005539, 4.3605, -0.7197266, 4.3605, 0.4267578, 4.3605, 0.4272461, 0.1677115, -0.0068818, 4.3605, 0.8847656, 4.3605, 0.4516602, 4.3605, 0.0869141, 0.1677115, -0.0099031, 4.3605, 0.3408203, 4.3605, -0.9194336, 4.3605, 0.1601562, 0.1677115, -0.0166171, 4.3605, -0.4399414, 4.3605, -0.871582, 4.3605, 0.1547852, , , , , , , , , , , , , , , , , , , , , , 
0.1682308, 0.0070497, 4.374, -0.7329102, 4.374, 0.4243164, 4.374, 0.4111328, 0.1682308, -0.0077211, 4.374, 0.8862305, 4.374, 0.4399414, 4.374, 0.0727539, 0.1682308, -0.0104067, 4.374, 0.347168, 4.374, -0.9384766, 4.374, 0.1547852, 0.1682308, -0.0135958, 4.374, -0.4472656, 4.374, -0.8920898, 4.374, 0.1630859, , , , , , , , , , , , , , , , , , , , , , 
0.16875, 0.0109102, 4.3875, -0.730957, 4.3875, 0.4140625, 4.3875, 0.4082031, 0.16875, -0.0075532, 4.3875, 0.8735352, 4.3875, 0.4379883, 4.3875, 0.0825195, 0.16875, -0.0114137, 4.3875, 0.324707, 4.3875, -0.9516602, 4.3875, 0.1474609, 0.16875, -0.0075532, 4.3875, -0.4492188, 4.3875, -0.8964844, 4.3875, 0.1655273, , , , , , , , , , , , , , , , , , , , , , 
0.1692692, 0.0092317, 4.401, -0.7138672, 4.401, 0.4233398, 4.401, 0.4057617, 0.1692692, -0.008896, 4.401, 0.8730469, 4.401, 0.4555664, 4.401, 0.0869141, 0.1692692, -0.0125887, 4.401, 0.3085938, 4.401, -0.9501953, 4.401, 0.1479492, 0.1692692, -0.0035248, 4.401, -0.4487305, 4.401, -0.8852539, 4.401, 0.1640625, , , , , , , , , , , , , , , , , , , , , , 
0.1697885, 0.0036927, 4.4145, -0.7080078, 4.4145, 0.4257812, 4.4145, 0.4082031, 0.1697885, -0.0082246, 4.4145, 0.8676758, 4.4145, 0.4506836, 4.4145, 0.0874023, 0.1697885, -0.0125887, 4.4145, 0.293457, 4.4145, -0.9321289, 4.4145, 0.1474609, 0.1697885, -0.0006714, 4.4145, -0.4467773, 4.4145, -0.8754883, 4.4145, 0.15625, , , , , , , , , , , , , , , , , , , , , , 
0.1703077, -0.0025177, 4.428, -0.7197266, 4.428, 0.4208984, 4.428, 0.4052734, 0.1703077, -0.0075532, 4.428, 0.8764648, 4.428, 0.4511719, 4.428, 0.0795898, 0.1703077, -0.010071, 4.428, 0.3115234, 4.428, -0.9326172, 4.428, 0.1425781, 0.1703077, 0.0043641, 4.428, -0.4438477, 4.428, -0.8759766, 4.428, 0.152832, , , , , , , , , , , , , , , , , , , , , , 
0.1708269, -0.0001678, 4.4415, -0.7163086, 4.4415, 0.4047852, 4.4415, 0.4033203, 0.1708269, -0.0082246, 4.4415, 0.8676758, 4.4415, 0.4414062, 4.4415, 0.0732422, 0.1708269, -0.0082246, 4.4415, 0.328125, 4.4415, -0.9375, 4.4415, 0.1459961, 0.1708269, 0.011078, 4.4415, -0.4311523, 4.4415, -0.8876953, 4.4415, 0.1547852, , , , , , , , , , , , , , , , , , , , , , 
0.1713462, 0.0038605, 4.455, -0.7143555, 4.455, 0.4082031, 4.455, 0.4130859, 0.1713462, -0.0082246, 4.455, 0.8642578, 4.455, 0.4467773, 4.455, 0.0927734, 0.1713462, -0.008896, 4.455, 0.3413086, 4.455, -0.9370117, 4.455, 0.1464844, 0.1713462, 0.0186313, 4.455, -0.4155273, 4.455, -0.8969727, 4.455, 0.1479492, , , , , , , , , , , , , , , , , , , , , , 
