Application:, Trigno Discover (2.0.1.2)
Date/Time:, 5/14/2025 12:09:37 PM
Collection Length (seconds):, 45.7515
Forearm 2 (83169), , , , , , , , Forearm 1 (82633), , , , , , , , Biceps (83254), , , , , , , , Triceps (83087)
sensor mode: 45, , , , , , , , sensor mode: 45, , , , , , , , sensor mode: 45, , , , , , , , sensor mode: 45
EMG 1 Time Series (s), EMG 1 (mV), ACC X Time Series (s), ACC X (G), ACC Y Time Series (s), ACC Y (G), ACC Z Time Series (s), ACC Z (G), EMG 1 Time Series (s), EMG 1 (mV), ACC X Time Series (s), ACC X (G), ACC Y Time Series (s), ACC Y (G), ACC Z Time Series (s), ACC Z (G), EMG 1 Time Series (s), EMG 1 (mV), ACC X Time Series (s), ACC X (G), ACC Y Time Series (s), ACC Y (G), ACC Z Time Series (s), ACC Z (G), EMG 1 Time Series (s), EMG 1 (mV), ACC X Time Series (s), ACC X (G), ACC Y Time Series (s), ACC Y (G), ACC Z Time Series (s), ACC Z (G)
, 1925.9259 Hz, , 74.0741 Hz, , 74.0741 Hz, , 74.0741 Hz, , 1925.9259 Hz, , 74.0741 Hz, , 74.0741 Hz, , 74.0741 Hz, , 1925.9259 Hz, , 74.0741 Hz, , 74.0741 Hz, , 74.0741 Hz, , 1925.9259 Hz, , 74.0741 Hz, , 74.0741 Hz, , 74.0741 Hz
, 0.0005192307692307692 s, , 0.0135 s, , 0.0135 s, , 0.0135 s, , 0.0005192307692307692 s, , 0.0135 s, , 0.0135 s, , 0.0135 s, , 0.0005192307692307692 s, , 0.0135 s, , 0.0135 s, , 0.0135 s, , 0.0005192307692307692 s, , 0.0135 s, , 0.0135 s, , 0.0135 s, , Type, Name, Label, Time (s), , Pair, E1, E2, T1, T2, V1, V2, Sensor, Channel, Units, Delta T, RMS, PKPK, Peak Value, TPK, Integral
0, 0.0045319, 0, -0.3256836, 0, -0.9594727, 0, 0.1235352, 0, -0.0075532, 0, 0.3569336, 0, -0.9277344, 0, -0.1538086, 0, -0.0095674, 0, 0.1206055, 0, -1.0068359, 0, -0.0078125, 0, 0.0139315, 0, -0.1977539, 0, -0.9853516, 0, 0.0410156, , , , , , , , , , , , , , , , , , , , , , 
0.0005192, 0.0008392, 0.0135, -0.3256836, 0.0135, -0.9580078, 0.0135, 0.1235352, 0.0005192, -0.0052033, 0.0135, 0.3598633, 0.0135, -0.9291992, 0.0135, -0.1572266, 0.0005192, -0.0085603, 0.0135, 0.1196289, 0.0135, -1.0083008, 0.0135, -0.0078125, 0.0005192, 0.0182956, 0.0135, -0.1918945, 0.0135, -0.9858398, 0.0135, 0.0395508, , , , , , , , , , , , , , , , , , , , , , 
0.0010385, -0.0099031, 0.027, -0.3203125, 0.027, -0.9614258, 0.027, 0.1235352, 0.0010385, -0.0048676, 0.027, 0.3652344, 0.027, -0.9316406, 0.027, -0.1552734, 0.0010385, -0.0068818, 0.027, 0.1206055, 0.027, -1.0043945, 0.027, -0.0053711, 0.0010385, 0.0223239, 0.027, -0.1884766, 0.027, -0.984375, 0.027, 0.0395508, , , , , , , , , , , , , , , , , , , , , , 
0.0015577, -0.0234989, 0.0405, -0.3168945, 0.0405, -0.9614258, 0.0405, 0.1220703, 0.0015577, -0.0058747, 0.0405, 0.3642578, 0.0405, -0.9287109, 0.0405, -0.1547852, 0.0015577, -0.0057069, 0.0405, 0.1254883, 0.0405, -1, 0.0405, -0.0073242, 0.0015577, 0.0290379, 0.0405, -0.1894531, 0.0405, -0.9794922, 0.0405, 0.0395508, , , , , , , , , , , , , , , , , , , , , , 
0.0020769, -0.0374304, 0.054, -0.3095703, 0.054, -0.9614258, 0.054, 0.1220703, 0.0020769, -0.0082246, 0.054, 0.3623047, 0.054, -0.9257812, 0.054, -0.1582031, 0.0020769, -0.0048676, 0.054, 0.1274414, 0.054, -1.0004883, 0.054, -0.0102539, 0.0020769, 0.0352483, 0.054, -0.1918945, 0.054, -0.9838867, 0.054, 0.0400391, , , , , , , , , , , , , , , , , , , , , , 
0.0025962, -0.0481727, 0.0675, -0.3139648, 0.0675, -0.9628906, 0.0675, 0.1240234, 0.0025962, -0.0109102, 0.0675, 0.3623047, 0.0675, -0.9272461, 0.0675, -0.1572266, 0.0025962, -0.0045319, 0.0675, 0.128418, 0.0675, -1.0043945, 0.0675, -0.0068359, 0.0025962, 0.0397803, 0.0675, -0.1923828, 0.0675, -0.9858398, 0.0675, 0.0395508, , , , , , , , , , , , , , , , , , , , , , 
0.0031154, -0.0506905, 0.081, -0.3256836, 0.081, -0.965332, 0.081, 0.1210938, 0.0031154, -0.0105745, 0.081, 0.3588867, 0.081, -0.9321289, 0.081, -0.15625, 0.0031154, -0.005539, 0.081, 0.1240234, 0.081, -1.0102539, 0.081, -0.0078125, 0.0031154, 0.0419623, 0.081, -0.1914062, 0.081, -0.9887695, 0.081, 0.0424805, , , , , , , , , , , , , , , , , , , , , , 
0.0036346, -0.0513619, 0.0945, -0.3276367, 0.0945, -0.965332, 0.0945, 0.1210938, 0.0036346, -0.0102388, 0.0945, 0.3564453, 0.0945, -0.9350586, 0.0945, -0.1572266, 0.0036346, -0.0041962, 0.0945, 0.1201172, 0.0945, -1.0112305, 0.0945, -0.0063477, 0.0036346, 0.0441444, 0.0945, -0.1904297, 0.0945, -0.9873047, 0.0945, 0.0400391, , , , , , , , , , , , , , , , , , , , , , 
0.0041538, -0.0485084, 0.108, -0.328125, 0.108, -0.9667969, 0.108, 0.1230469, 0.0041538, -0.0115816, 0.108, 0.359375, 0.108, -0.934082, 0.108, -0.1557617, 0.0041538, -0.0005035, 0.108, 0.1225586, 0.108, -1.0107422, 0.108, -0.0068359, 0.0041538, 0.0453193, 0.108, -0.1928711, 0.108, -0.9882812, 0.108, 0.0410156, , , , , , , , , , , , , , , , , , , , , , 
0.0046731, -0.0347448, 0.1215, -0.3208008, 0.1215, -0.965332, 0.1215, 0.125, 0.0046731, -0.0112459, 0.1215, 0.3618164, 0.1215, -0.9350586, 0.1215, -0.1577148, 0.0046731, -0.0001678, 0.1215, 0.1259766, 0.1215, -1.0097656, 0.1215, -0.0073242, 0.0046731, 0.0404517, 0.1215, -0.1962891, 0.1215, -0.9873047, 0.1215, 0.0415039, , , , , , , , , , , , , , , , , , , , , , 
0.0051923, -0.0182956, 0.135, -0.3125, 0.135, -0.9624023, 0.135, 0.1274414, 0.0051923, -0.008896, 0.135, 0.3608398, 0.135, -0.9311523, 0.135, -0.1601562, 0.0051923, -0.0038605, 0.135, 0.1298828, 0.135, -1.0068359, 0.135, -0.0058594, 0.0051923, 0.0313878, 0.135, -0.1958008, 0.135, -0.9882812, 0.135, 0.0429688, , , , , , , , , , , , , , , , , , , , , , 
0.0057115, -0.0038605, 0.1485, -0.3100586, 0.1485, -0.9624023, 0.1485, 0.1289062, 0.0057115, -0.0082246, 0.1485, 0.3618164, 0.1485, -0.9296875, 0.1485, -0.1616211, 0.0057115, -0.0058747, 0.1485, 0.1240234, 0.1485, -1.003418, 0.1485, -0.0068359, 0.0057115, 0.024506, 0.1485, -0.1982422, 0.1485, -0.9829102, 0.1485, 0.0429688, , , , , , , , , , , , , , , , , , , , , , 
0.0062308, 0.0072175, 0.162, -0.3173828, 0.162, -0.9628906, 0.162, 0.1225586, 0.0062308, -0.0087282, 0.162, 0.3613281, 0.162, -0.9243164, 0.162, -0.1621094, 0.0062308, -0.005539, 0.162, 0.1206055, 0.162, -1.0019531, 0.162, -0.0083008, 0.0062308, 0.0206455, 0.162, -0.1962891, 0.162, -0.9799805, 0.162, 0.0419922, , , , , , , , , , , , , , , , , , , , , , 
0.00675, 0.0132601, 0.1755, -0.3188477, 0.1755, -0.9604492, 0.1755, 0.1230469, 0.00675, -0.008896, 0.1755, 0.3588867, 0.1755, -0.9248047, 0.1755, -0.1586914, 0.00675, -0.0052033, 0.1755, 0.1220703, 0.1755, -1.0039062, 0.1755, -0.0073242, 0.00675, 0.017792, 0.1755, -0.1923828, 0.1755, -0.9814453, 0.1755, 0.0390625, , , , , , , , , , , , , , , , , , , , , , 
0.0072692, 0.0182956, 0.189, -0.3222656, 0.189, -0.9594727, 0.189, 0.1225586, 0.0072692, -0.0075532, 0.189, 0.3579102, 0.189, -0.925293, 0.189, -0.1591797, 0.0072692, -0.0058747, 0.189, 0.1220703, 0.189, -1.0039062, 0.189, -0.0102539, 0.0072692, 0.0139315, 0.189, -0.1884766, 0.189, -0.9833984, 0.189, 0.0375977, , , , , , , , , , , , , , , , , , , , , , 
0.0077885, 0.023331, 0.2025, -0.3222656, 0.2025, -0.9604492, 0.2025, 0.1235352, 0.0077885, -0.0070497, 0.2025, 0.355957, 0.2025, -0.9262695, 0.2025, -0.1572266, 0.0077885, -0.0065461, 0.2025, 0.125, 0.2025, -1.0029297, 0.2025, -0.0146484, 0.0077885, 0.0099031, 0.2025, -0.1855469, 0.2025, -0.9853516, 0.2025, 0.0366211, , , , , , , , , , , , , , , , , , , , , , 
0.0083077, 0.0219883, 0.216, -0.3188477, 0.216, -0.9619141, 0.216, 0.125, 0.0083077, -0.0078889, 0.216, 0.3598633, 0.216, -0.9287109, 0.216, -0.1567383, 0.0083077, -0.0068818, 0.216, 0.1259766, 0.216, -1.0078125, 0.216, -0.0097656, 0.0083077, 0.0072175, 0.216, -0.1894531, 0.216, -0.9873047, 0.216, 0.0351562, , , , , , , , , , , , , , , , , , , , , , 
0.0088269, 0.0204776, 0.2295, -0.3164062, 0.2295, -0.9648438, 0.2295, 0.1259766, 0.0088269, -0.0078889, 0.2295, 0.362793, 0.2295, -0.9311523, 0.2295, -0.1557617, 0.0088269, -0.0050355, 0.2295, 0.125, 0.2295, -1.0078125, 0.2295, -0.0068359, 0.0088269, 0.0060426, 0.2295, -0.1884766, 0.2295, -0.9863281, 0.2295, 0.0356445, , , , , , , , , , , , , , , , , , , , , , 
0.0093462, 0.0253452, 0.243, -0.315918, 0.243, -0.9628906, 0.243, 0.1259766, 0.0093462, -0.0082246, 0.243, 0.3623047, 0.243, -0.9345703, 0.243, -0.1552734, 0.0093462, -0.0041962, 0.243, 0.1240234, 0.243, -1.0078125, 0.243, -0.0043945, 0.0093462, 0.005539, 0.243, -0.1928711, 0.243, -0.9853516, 0.243, 0.0375977, , , , , , , , , , , , , , , , , , , , , , 
0.0098654, 0.0307164, 0.2565, -0.3149414, 0.2565, -0.965332, 0.2565, 0.1259766, 0.0098654, -0.0070497, 0.2565, 0.3623047, 0.2565, -0.9296875, 0.2565, -0.1601562, 0.0098654, -0.0058747, 0.2565, 0.1245117, 0.2565, -1.0053711, 0.2565, -0.0073242, 0.0098654, 0.0065461, 0.2565, -0.1972656, 0.2565, -0.9838867, 0.2565, 0.0424805, , , , , , , , , , , , , , , , , , , , , , 
0.0103846, 0.0307164, 0.27, -0.3164062, 0.27, -0.9663086, 0.27, 0.125, 0.0103846, -0.005539, 0.27, 0.3642578, 0.27, -0.9291992, 0.27, -0.1572266, 0.0103846, -0.0072175, 0.27, 0.1245117, 0.27, -1.0053711, 0.27, -0.0078125, 0.0103846, 0.0083925, 0.27, -0.1933594, 0.27, -0.9848633, 0.27, 0.0419922, , , , , , , , , , , , , , , , , , , , , , 
0.0109038, 0.0293736, 0.2835, -0.3164062, 0.2835, -0.9619141, 0.2835, 0.1240234, 0.0109038, -0.0068818, 0.2835, 0.362793, 0.2835, -0.9311523, 0.2835, -0.152832, 0.0109038, -0.0062104, 0.2835, 0.1245117, 0.2835, -1.0063477, 0.2835, -0.0107422, 0.0109038, 0.0085603, 0.2835, -0.1884766, 0.2835, -0.9858398, 0.2835, 0.0410156, , , , , , , , , , , , , , , , , , , , , , 
0.0114231, 0.0292058, 0.297, -0.3188477, 0.297, -0.9633789, 0.297, 0.121582, 0.0114231, -0.0085603, 0.297, 0.355957, 0.297, -0.9311523, 0.297, -0.1542969, 0.0114231, -0.0057069, 0.297, 0.125, 0.297, -1.0019531, 0.297, -0.0107422, 0.0114231, 0.0092317, 0.297, -0.1875, 0.297, -0.9848633, 0.297, 0.0400391, , , , , , , , , , , , , , , , , , , , , , 
0.0119423, 0.0270237, 0.3105, -0.3188477, 0.3105, -0.9609375, 0.3105, 0.1196289, 0.0119423, -0.0099031, 0.3105, 0.3530273, 0.3105, -0.9301758, 0.3105, -0.15625, 0.0119423, -0.0075532, 0.3105, 0.1240234, 0.3105, -1.0053711, 0.3105, -0.0073242, 0.0119423, 0.0099031, 0.3105, -0.1914062, 0.3105, -0.9858398, 0.3105, 0.0385742, , , , , , , , , , , , , , , , , , , , , , 
0.0124615, 0.0219883, 0.324, -0.3232422, 0.324, -0.9619141, 0.324, 0.1206055, 0.0124615, -0.0082246, 0.324, 0.3510742, 0.324, -0.9296875, 0.324, -0.1557617, 0.0124615, -0.0085603, 0.324, 0.1240234, 0.324, -1.0078125, 0.324, -0.0063477, 0.0124615, 0.0105745, 0.324, -0.1958008, 0.324, -0.9848633, 0.324, 0.0371094, , , , , , , , , , , , , , , , , , , , , , 
0.0129808, 0.0171206, 0.3375, -0.3271484, 0.3375, -0.9638672, 0.3375, 0.1201172, 0.0129808, -0.0065461, 0.3375, 0.355957, 0.3375, -0.9326172, 0.3375, -0.1552734, 0.0129808, -0.0075532, 0.3375, 0.121582, 0.3375, -1.0092773, 0.3375, -0.0048828, 0.0129808, 0.0112459, 0.3375, -0.1977539, 0.3375, -0.9868164, 0.3375, 0.0380859, , , , , , , , , , , , , , , , , , , , , , 
0.0135, 0.0167849, 0.351, -0.324707, 0.351, -0.9638672, 0.351, 0.1220703, 0.0135, -0.0050355, 0.351, 0.3603516, 0.351, -0.9311523, 0.351, -0.1523438, 0.0135, -0.0065461, 0.351, 0.1191406, 0.351, -1.0092773, 0.351, -0.0048828, 0.0135, 0.0115816, 0.351, -0.1953125, 0.351, -0.9863281, 0.351, 0.0429688, , , , , , , , , , , , , , , , , , , , , , 
0.0140192, 0.0219883, 0.3645, -0.3173828, 0.3645, -0.9628906, 0.3645, 0.1220703, 0.0140192, -0.0068818, 0.3645, 0.3647461, 0.3645, -0.9311523, 0.3645, -0.1499023, 0.0140192, -0.0072175, 0.3645, 0.1235352, 0.3645, -1.0063477, 0.3645, -0.0068359, 0.0140192, 0.0097353, 0.3645, -0.1933594, 0.3645, -0.9838867, 0.3645, 0.0410156, , , , , , , , , , , , , , , , , , , , , , 
0.0145385, 0.0339055, 0.378, -0.3144531, 0.378, -0.9614258, 0.378, 0.1225586, 0.0145385, -0.008896, 0.378, 0.3671875, 0.378, -0.9291992, 0.378, -0.152832, 0.0145385, -0.0099031, 0.378, 0.1254883, 0.378, -1.0043945, 0.378, -0.0087891, 0.0145385, 0.0052033, 0.378, -0.1948242, 0.378, -0.9814453, 0.378, 0.0415039, , , , , , , , , , , , , , , , , , , , , , 
0.0150577, 0.0488441, 0.3915, -0.3139648, 0.3915, -0.9584961, 0.3915, 0.1220703, 0.0150577, -0.0078889, 0.3915, 0.362793, 0.3915, -0.9291992, 0.3915, -0.1547852, 0.0150577, -0.0119173, 0.3915, 0.1289062, 0.3915, -1.0029297, 0.3915, -0.0063477, 0.0150577, -0.0013428, 0.3915, -0.1938477, 0.3915, -0.980957, 0.3915, 0.0410156, , , , , , , , , , , , , , , , , , , , , , 
0.0155769, 0.0585794, 0.405, -0.3193359, 0.405, -0.9594727, 0.405, 0.1210938, 0.0155769, -0.0068818, 0.405, 0.3564453, 0.405, -0.9272461, 0.405, -0.1567383, 0.0155769, -0.0125887, 0.405, 0.1279297, 0.405, -1, 0.405, -0.0058594, 0.0155769, -0.0058747, 0.405, -0.1962891, 0.405, -0.9814453, 0.405, 0.0454102, , , , , , , , , , , , , , , , , , , , , , 
0.0160962, 0.0604257, 0.4185, -0.3232422, 0.4185, -0.9580078, 0.4185, 0.1210938, 0.0160962, -0.0075532, 0.4185, 0.3535156, 0.4185, -0.9282227, 0.4185, -0.1567383, 0.0160962, -0.0137636, 0.4185, 0.1225586, 0.4185, -1, 0.4185, -0.0058594, 0.0160962, -0.0070497, 0.4185, -0.1972656, 0.4185, -0.9804688, 0.4185, 0.0429688, , , , , , , , , , , , , , , , , , , , , , 
0.0166154, 0.0595865, 0.432, -0.3237305, 0.432, -0.9594727, 0.432, 0.1196289, 0.0166154, -0.0097353, 0.432, 0.3530273, 0.432, -0.9296875, 0.432, -0.15625, 0.0166154, -0.0142672, 0.432, 0.1201172, 0.432, -1.0019531, 0.432, -0.0058594, 0.0166154, -0.0075532, 0.432, -0.2011719, 0.432, -0.9794922, 0.432, 0.0400391, , , , , , , , , , , , , , , , , , , , , , 
0.0171346, 0.0538796, 0.4455, -0.324707, 0.4455, -0.9594727, 0.4455, 0.1225586, 0.0171346, -0.0092317, 0.4455, 0.3535156, 0.4455, -0.9296875, 0.4455, -0.1547852, 0.0171346, -0.0142672, 0.4455, 0.1162109, 0.4455, -1.0063477, 0.4455, -0.0087891, 0.0171346, -0.0070497, 0.4455, -0.1987305, 0.4455, -0.9814453, 0.4455, 0.0415039, , , , , , , , , , , , , , , , , , , , , , 
0.0176538, 0.0468299, 0.459, -0.324707, 0.459, -0.9624023, 0.459, 0.1220703, 0.0176538, -0.0062104, 0.459, 0.3574219, 0.459, -0.9321289, 0.459, -0.1567383, 0.0176538, -0.0132601, 0.459, 0.1176758, 0.459, -1.0068359, 0.459, -0.0078125, 0.0176538, -0.0065461, 0.459, -0.1962891, 0.459, -0.9853516, 0.459, 0.0395508, , , , , , , , , , , , , , , , , , , , , , 
0.0181731, 0.0411231, 0.4725, -0.3193359, 0.4725, -0.9604492, 0.4725, 0.1230469, 0.0181731, -0.005539, 0.4725, 0.3662109, 0.4725, -0.9291992, 0.4725, -0.1523438, 0.0181731, -0.0105745, 0.4725, 0.1254883, 0.4725, -1.0039062, 0.4725, -0.0058594, 0.0181731, -0.0052033, 0.4725, -0.1918945, 0.4725, -0.9819336, 0.4725, 0.0390625, , , , , , , , , , , , , , , , , , , , , , 
0.0186923, 0.0292058, 0.486, -0.3139648, 0.486, -0.9604492, 0.486, 0.1235352, 0.0186923, -0.005539, 0.486, 0.3681641, 0.486, -0.9291992, 0.486, -0.1479492, 0.0186923, -0.0085603, 0.486, 0.128418, 0.486, -0.9995117, 0.486, -0.0087891, 0.0186923, -0.0015106, 0.486, -0.1914062, 0.486, -0.9790039, 0.486, 0.0380859, , , , , , , , , , , , , , , , , , , , , , 
0.0192115, 0.0166171, 0.4995, -0.3149414, 0.4995, -0.956543, 0.4995, 0.1235352, 0.0192115, -0.0058747, 0.4995, 0.3632812, 0.4995, -0.9257812, 0.4995, -0.1523438, 0.0192115, -0.0068818, 0.4995, 0.1289062, 0.4995, -1.0009766, 0.4995, -0.0063477, 0.0192115, 0.0052033, 0.4995, -0.1914062, 0.4995, -0.980957, 0.4995, 0.0371094, , , , , , , , , , , , , , , , , , , , , , 
0.0197308, 0.0078889, 0.513, -0.3183594, 0.513, -0.9589844, 0.513, 0.1225586, 0.0197308, -0.0072175, 0.513, 0.3618164, 0.513, -0.9291992, 0.513, -0.1533203, 0.0197308, -0.0065461, 0.513, 0.128418, 0.513, -1.003418, 0.513, -0.0058594, 0.0197308, 0.0105745, 0.513, -0.1928711, 0.513, -0.9838867, 0.513, 0.0366211, , , , , , , , , , , , , , , , , , , , , , 
0.02025, 0.0011749, 0.5265, -0.3266602, 0.5265, -0.9584961, 0.5265, 0.1206055, 0.02025, -0.008896, 0.5265, 0.3574219, 0.5265, -0.9316406, 0.5265, -0.152832, 0.02025, -0.0075532, 0.5265, 0.1210938, 0.5265, -1.0063477, 0.5265, -0.0053711, 0.02025, 0.0125887, 0.5265, -0.1967773, 0.5265, -0.9863281, 0.5265, 0.0356445, , , , , , , , , , , , , , , , , , , , , , 
0.0207692, -0.0068818, 0.54, -0.3320312, 0.54, -0.9594727, 0.54, 0.1210938, 0.0207692, -0.0095674, 0.54, 0.355957, 0.54, -0.9291992, 0.54, -0.1533203, 0.0207692, -0.0078889, 0.54, 0.1152344, 0.54, -1.0083008, 0.54, -0.0014648, 0.0207692, 0.017792, 0.54, -0.1982422, 0.54, -0.9848633, 0.54, 0.0361328, , , , , , , , , , , , , , , , , , , , , , 
0.0212885, -0.0164492, 0.5535, -0.3374023, 0.5535, -0.9624023, 0.5535, 0.1225586, 0.0212885, -0.0095674, 0.5535, 0.362793, 0.5535, -0.9311523, 0.5535, -0.1489258, 0.0212885, -0.0065461, 0.5535, 0.1137695, 0.5535, -1.0092773, 0.5535, 0.0004883, 0.0212885, 0.0256809, 0.5535, -0.2011719, 0.5535, -0.9858398, 0.5535, 0.0327148, , , , , , , , , , , , , , , , , , , , , , 
0.0218077, -0.0290379, 0.567, -0.3320312, 0.567, -0.9609375, 0.567, 0.1220703, 0.0218077, -0.0109102, 0.567, 0.3652344, 0.567, -0.9321289, 0.567, -0.1484375, 0.0218077, -0.003357, 0.567, 0.1147461, 0.567, -1.0126953, 0.567, 0, 0.0218077, 0.033402, 0.567, -0.203125, 0.567, -0.9858398, 0.567, 0.0317383, , , , , , , , , , , , , , , , , , , , , , 
0.0223269, -0.0377661, 0.5805, -0.3256836, 0.5805, -0.9609375, 0.5805, 0.1254883, 0.0223269, -0.0119173, 0.5805, 0.3710938, 0.5805, -0.9345703, 0.5805, -0.1474609, 0.0223269, -0.0001678, 0.5805, 0.1132812, 0.5805, -1.0092773, 0.5805, -0.0004883, 0.0223269, 0.0384375, 0.5805, -0.2016602, 0.5805, -0.9868164, 0.5805, 0.03125, , , , , , , , , , , , , , , , , , , , , , 
0.0228462, -0.0421302, 0.594, -0.3256836, 0.594, -0.9580078, 0.594, 0.1259766, 0.0228462, -0.0099031, 0.594, 0.3696289, 0.594, -0.9326172, 0.594, -0.1494141, 0.0228462, 0.0015106, 0.594, 0.1113281, 0.594, -1.0078125, 0.594, -0.0004883, 0.0228462, 0.0419623, 0.594, -0.2045898, 0.594, -0.9863281, 0.594, 0.0317383, , , , , , , , , , , , , , , , , , , , , , 
0.0233654, -0.0451514, 0.6075, -0.3276367, 0.6075, -0.9589844, 0.6075, 0.1274414, 0.0233654, -0.0075532, 0.6075, 0.3706055, 0.6075, -0.9321289, 0.6075, -0.1533203, 0.0233654, 0.0015106, 0.6075, 0.1108398, 0.6075, -1.0112305, 0.6075, 0.0029297, 0.0233654, 0.0448157, 0.6075, -0.2084961, 0.6075, -0.9853516, 0.6075, 0.0302734, , , , , , , , , , , , , , , , , , , , , , 
0.0238846, -0.0451514, 0.621, -0.3388672, 0.621, -0.9604492, 0.621, 0.1289062, 0.0238846, -0.0082246, 0.621, 0.3696289, 0.621, -0.9306641, 0.621, -0.1503906, 0.0238846, 0.0010071, 0.621, 0.1074219, 0.621, -1.0166016, 0.621, 0.0083008, 0.0238846, 0.0454871, 0.621, -0.2158203, 0.621, -0.987793, 0.621, 0.027832, , , , , , , , , , , , , , , , , , , , , , 
0.0244038, -0.0364233, 0.6345, -0.3496094, 0.6345, -0.9589844, 0.6345, 0.1303711, 0.0244038, -0.0092317, 0.6345, 0.3681641, 0.6345, -0.9335938, 0.6345, -0.1445312, 0.0244038, -0.0001678, 0.6345, 0.1064453, 0.6345, -1.0180664, 0.6345, 0.0097656, 0.0244038, 0.0407874, 0.6345, -0.2241211, 0.6345, -0.9887695, 0.6345, 0.0263672, , , , , , , , , , , , , , , , , , , , , , 
0.0249231, -0.0213169, 0.648, -0.362793, 0.648, -0.9521484, 0.648, 0.1347656, 0.0249231, -0.0090639, 0.648, 0.3740234, 0.648, -0.9331055, 0.648, -0.1416016, 0.0249231, -0.0011749, 0.648, 0.0986328, 0.648, -1.0195312, 0.648, 0.0244141, 0.0249231, 0.0340734, 0.648, -0.2402344, 0.648, -0.9897461, 0.648, 0.027832, , , , , , , , , , , , , , , , , , , , , , 
0.0254423, -0.0072175, 0.6615, -0.3764648, 0.6615, -0.9467773, 0.6615, 0.1352539, 0.0254423, -0.0095674, 0.6615, 0.3847656, 0.6615, -0.9301758, 0.6615, -0.137207, 0.0254423, -0.0031891, 0.6615, 0.0917969, 0.6615, -1.012207, 0.6615, 0.034668, 0.0254423, 0.0287022, 0.6615, -0.2607422, 0.6615, -0.9848633, 0.6615, 0.0263672, , , , , , , , , , , , , , , , , , , , , , 
0.0259615, 0.0016785, 0.675, -0.3837891, 0.675, -0.9448242, 0.675, 0.1391602, 0.0259615, -0.0119173, 0.675, 0.3989258, 0.675, -0.9311523, 0.675, -0.1308594, 0.0259615, -0.0038605, 0.675, 0.0913086, 0.675, -1.0234375, 0.675, 0.0581055, 0.0259615, 0.0223239, 0.675, -0.28125, 0.675, -0.9887695, 0.675, 0.019043, , , , , , , , , , , , , , , , , , , , , , 
0.0264808, 0.0124208, 0.6885, -0.4008789, 0.6885, -0.9453125, 0.6885, 0.1479492, 0.0264808, -0.0109102, 0.6885, 0.4047852, 0.6885, -0.9370117, 0.6885, -0.1279297, 0.0264808, -0.003357, 0.6885, 0.0776367, 0.6885, -1.0336914, 0.6885, 0.0629883, 0.0264808, 0.0209812, 0.6885, -0.2924805, 0.6885, -0.9926758, 0.6885, 0.0151367, , , , , , , , , , , , , , , , , , , , , , 
0.027, 0.0199741, 0.702, -0.4145508, 0.702, -0.9404297, 0.702, 0.1503906, 0.027, -0.0078889, 0.702, 0.4135742, 0.702, -0.9394531, 0.702, -0.1176758, 0.027, -0.0035248, 0.702, 0.046875, 0.702, -1.0263672, 0.702, 0.0595703, 0.027, 0.0198062, 0.702, -0.3076172, 0.702, -0.9902344, 0.702, 0.0175781, , , , , , , , , , , , , , , , , , , , , , 
0.0275192, 0.023331, 0.7155, -0.4082031, 0.7155, -0.9365234, 0.7155, 0.1435547, 0.0275192, -0.0085603, 0.7155, 0.4262695, 0.7155, -0.9291992, 0.7155, -0.112793, 0.0275192, -0.0065461, 0.7155, 0.0371094, 0.7155, -1.0161133, 0.7155, 0.0732422, 0.0275192, 0.0179599, 0.7155, -0.3149414, 0.7155, -0.9819336, 0.7155, 0.0161133, , , , , , , , , , , , , , , , , , , , , , 
0.0280385, 0.0256809, 0.729, -0.394043, 0.729, -0.9296875, 0.729, 0.1391602, 0.0280385, -0.0087282, 0.729, 0.4321289, 0.729, -0.9223633, 0.729, -0.1074219, 0.0280385, -0.0092317, 0.729, 0.0522461, 0.729, -1.0073242, 0.729, 0.0708008, 0.0280385, 0.0166171, 0.729, -0.315918, 0.729, -0.96875, 0.729, 0.0063477, , , , , , , , , , , , , , , , , , , , , , 
0.0285577, 0.0287022, 0.7425, -0.4008789, 0.7425, -0.9204102, 0.7425, 0.1386719, 0.0285577, -0.0065461, 0.7425, 0.4199219, 0.7425, -0.9199219, 0.7425, -0.1054688, 0.0285577, -0.0102388, 0.7425, 0.0712891, 0.7425, -0.9970703, 0.7425, 0.0644531, 0.0285577, 0.0142672, 0.7425, -0.2949219, 0.7425, -0.9702148, 0.7425, -0.0009766, , , , , , , , , , , , , , , , , , , , , , 
0.0290769, 0.0313878, 0.756, -0.4169922, 0.756, -0.9125977, 0.756, 0.1318359, 0.0290769, -0.0068818, 0.756, 0.4077148, 0.756, -0.9165039, 0.756, -0.0996094, 0.0290769, -0.0095674, 0.756, 0.0732422, 0.756, -0.9902344, 0.756, 0.0644531, 0.0290769, 0.0095674, 0.756, -0.2822266, 0.756, -0.9692383, 0.756, -0.0043945, , , , , , , , , , , , , , , , , , , , , , 
0.0295962, 0.0357519, 0.7695, -0.4267578, 0.7695, -0.909668, 0.7695, 0.1279297, 0.0295962, -0.0092317, 0.7695, 0.4038086, 0.7695, -0.9082031, 0.7695, -0.0986328, 0.0295962, -0.0099031, 0.7695, 0.0678711, 0.7695, -0.9931641, 0.7695, 0.0673828, 0.0295962, 0.0052033, 0.7695, -0.2866211, 0.7695, -0.96875, 0.7695, -0.0131836, , , , , , , , , , , , , , , , , , , , , , 
0.0301154, 0.0381018, 0.783, -0.4438477, 0.783, -0.90625, 0.783, 0.1230469, 0.0301154, -0.0093996, 0.783, 0.4008789, 0.783, -0.9023438, 0.783, -0.0952148, 0.0301154, -0.0115816, 0.783, 0.0473633, 0.783, -0.9936523, 0.783, 0.0727539, 0.0301154, 0.0045319, 0.783, -0.2988281, 0.783, -0.9609375, 0.783, -0.0229492, , , , , , , , , , , , , , , , , , , , , , 
0.0306346, 0.0340734, 0.7965, -0.4604492, 0.7965, -0.9042969, 0.7965, 0.1264648, 0.0306346, -0.0070497, 0.7965, 0.4116211, 0.7965, -0.8994141, 0.7965, -0.0874023, 0.0306346, -0.012253, 0.7965, 0.0288086, 0.7965, -0.9941406, 0.7965, 0.0703125, 0.0306346, 0.0062104, 0.7965, -0.3100586, 0.7965, -0.9575195, 0.7965, -0.0292969, , , , , , , , , , , , , , , , , , , , , , 
0.0311538, 0.0310521, 0.81, -0.4658203, 0.81, -0.8974609, 0.81, 0.121582, 0.0311538, -0.0065461, 0.81, 0.4189453, 0.81, -0.8999023, 0.81, -0.0810547, 0.0311538, -0.0102388, 0.81, 0.0039062, 0.81, -0.9975586, 0.81, 0.0634766, 0.0311538, 0.0058747, 0.81, -0.3115234, 0.81, -0.9541016, 0.81, -0.0366211, , , , , , , , , , , , , , , , , , , , , , 
0.0316731, 0.0293736, 0.8235, -0.4619141, 0.8235, -0.8955078, 0.8235, 0.1166992, 0.0316731, -0.0082246, 0.8235, 0.4311523, 0.8235, -0.8994141, 0.8235, -0.0678711, 0.0316731, -0.0083925, 0.8235, -0.0063477, 0.8235, -1.0048828, 0.8235, 0.0566406, 0.0316731, 0.0045319, 0.8235, -0.3056641, 0.8235, -0.9555664, 0.8235, -0.0444336, , , , , , , , , , , , , , , , , , , , , , 
0.0321923, 0.0256809, 0.837, -0.4594727, 0.837, -0.8994141, 0.837, 0.1157227, 0.0321923, -0.0085603, 0.837, 0.4458008, 0.837, -0.8945312, 0.837, -0.0551758, 0.0321923, -0.0095674, 0.837, -0.0029297, 0.837, -1.0068359, 0.837, 0.0424805, 0.0321923, 0.0038605, 0.837, -0.2983398, 0.837, -0.9584961, 0.837, -0.0483398, , , , , , , , , , , , , , , , , , , , , , 
0.0327115, 0.0229953, 0.8505, -0.465332, 0.8505, -0.9033203, 0.8505, 0.1083984, 0.0327115, -0.0082246, 0.8505, 0.4492188, 0.8505, -0.8930664, 0.8505, -0.0522461, 0.0327115, -0.0092317, 0.8505, 0, 0.8505, -1.0097656, 0.8505, 0.0302734, 0.0327115, 0.0025177, 0.8505, -0.2792969, 0.8505, -0.9624023, 0.8505, -0.0585938, , , , , , , , , , , , , , , , , , , , , , 
0.0332308, 0.0231632, 0.864, -0.4750977, 0.864, -0.9086914, 0.864, 0.1000977, 0.0332308, -0.0095674, 0.864, 0.4448242, 0.864, -0.8974609, 0.864, -0.0483398, 0.0332308, -0.0095674, 0.864, -0.0019531, 0.864, -1.0126953, 0.864, 0.0239258, 0.0332308, 0.0028534, 0.864, -0.2583008, 0.864, -0.9697266, 0.864, -0.0673828, , , , , , , , , , , , , , , , , , , , , , 
0.03375, 0.0246738, 0.8775, -0.472168, 0.8775, -0.9160156, 0.8775, 0.09375, 0.03375, -0.0105745, 0.8775, 0.4345703, 0.8775, -0.902832, 0.8775, -0.043457, 0.03375, -0.0115816, 0.8775, -0.0024414, 0.8775, -1.019043, 0.8775, 0.019043, 0.03375, 0.0025177, 0.8775, -0.2416992, 0.8775, -0.9746094, 0.8775, -0.0776367, , , , , , , , , , , , , , , , , , , , , , 
0.0342692, 0.030045, 0.891, -0.4692383, 0.891, -0.9189453, 0.891, 0.0825195, 0.0342692, -0.0095674, 0.891, 0.4296875, 0.891, -0.9067383, 0.891, -0.0429688, 0.0342692, -0.0129244, 0.891, -0.0014648, 0.891, -1.0200195, 0.891, 0.0175781, 0.0342692, 0.0016785, 0.891, -0.230957, 0.891, -0.9760742, 0.891, -0.0878906, , , , , , , , , , , , , , , , , , , , , , 
0.0347885, 0.0412909, 0.9045, -0.4584961, 0.9045, -0.9257812, 0.9045, 0.0805664, 0.0347885, -0.0093996, 0.9045, 0.4311523, 0.9045, -0.9057617, 0.9045, -0.0415039, 0.0347885, -0.0109102, 0.9045, 0.0087891, 0.9045, -1.0200195, 0.9045, 0.0073242, 0.0347885, -0.0008392, 0.9045, -0.2158203, 0.9045, -0.9790039, 0.9045, -0.0878906, , , , , , , , , , , , , , , , , , , , , , 
0.0353077, 0.049012, 0.918, -0.4477539, 0.918, -0.9248047, 0.918, 0.078125, 0.0353077, -0.0102388, 0.918, 0.434082, 0.918, -0.9038086, 0.918, -0.0390625, 0.0353077, -0.0119173, 0.918, 0.0146484, 0.918, -1.0175781, 0.918, -0.0039062, 0.0353077, -0.002182, 0.918, -0.2006836, 0.918, -0.9804688, 0.918, -0.0854492, , , , , , , , , , , , , , , , , , , , , , 
0.0358269, 0.0515297, 0.9315, -0.4423828, 0.9315, -0.9257812, 0.9315, 0.0771484, 0.0358269, -0.0095674, 0.9315, 0.4370117, 0.9315, -0.9023438, 0.9315, -0.0380859, 0.0358269, -0.0139315, 0.9315, 0.0292969, 0.9315, -1.0048828, 0.9315, -0.0058594, 0.0358269, -0.0043641, 0.9315, -0.1884766, 0.9315, -0.9794922, 0.9315, -0.0874023, , , , , , , , , , , , , , , , , , , , , , 
0.0363462, 0.0528725, 0.945, -0.434082, 0.945, -0.9223633, 0.945, 0.074707, 0.0363462, -0.008896, 0.945, 0.4379883, 0.945, -0.8979492, 0.945, -0.0351562, 0.0363462, -0.0169528, 0.945, 0.0356445, 0.945, -1.0004883, 0.945, 0.003418, 0.0363462, -0.0078889, 0.945, -0.1982422, 0.945, -0.9765625, 0.945, -0.0913086, , , , , , , , , , , , , , , , , , , , , , 
0.0368654, 0.0558938, 0.9585, -0.4360352, 0.9585, -0.9267578, 0.9585, 0.0761719, 0.0368654, -0.008896, 0.9585, 0.4375, 0.9585, -0.9067383, 0.9585, -0.0371094, 0.0368654, -0.0193027, 0.9585, 0.0112305, 0.9585, -1.0136719, 0.9585, 0.0097656, 0.0368654, -0.0099031, 0.9585, -0.215332, 0.9585, -0.9790039, 0.9585, -0.090332, , , , , , , , , , , , , , , , , , , , , , 
0.0373846, 0.0528725, 0.972, -0.440918, 0.972, -0.9355469, 0.972, 0.0776367, 0.0373846, -0.0085603, 0.972, 0.4291992, 0.972, -0.9199219, 0.972, -0.0405273, 0.0373846, -0.018967, 0.972, -0.0073242, 0.972, -1.0297852, 0.972, 0.0117188, 0.0373846, -0.0102388, 0.972, -0.2255859, 0.972, -0.9956055, 0.972, -0.0825195, , , , , , , , , , , , , , , , , , , , , , 
0.0379038, 0.0468299, 0.9855, -0.4501953, 0.9855, -0.9492188, 0.9855, 0.0791016, 0.0379038, -0.0085603, 0.9855, 0.4213867, 0.9855, -0.9360352, 0.9855, -0.046875, 0.0379038, -0.0196384, 0.9855, 0.0068359, 0.9855, -1.0429688, 0.9855, 0.0102539, 0.0379038, -0.0075532, 0.9855, -0.2211914, 0.9855, -1.0234375, 0.9855, -0.0683594, , , , , , , , , , , , , , , , , , , , , , 
0.0384231, 0.0357519, 0.999, -0.4536133, 0.999, -0.9667969, 0.999, 0.0795898, 0.0384231, -0.0075532, 0.999, 0.4169922, 0.999, -0.9521484, 0.999, -0.0541992, 0.0384231, -0.0182956, 0.999, 0.0424805, 0.999, -1.0488281, 0.999, 0.0083008, 0.0384231, -0.0036927, 0.999, -0.2250977, 0.999, -1.0332031, 0.999, -0.0625, , , , , , , , , , , , , , , , , , , , , , 
0.0389423, 0.0216526, 1.0125, -0.4418945, 1.0125, -0.9824219, 1.0125, 0.0844727, 0.0389423, -0.0072175, 1.0125, 0.4111328, 1.0125, -0.9755859, 1.0125, -0.0693359, 0.0389423, -0.01561, 1.0125, 0.0600586, 1.0125, -1.0532227, 1.0125, 0.0053711, 0.0389423, 0.0006714, 1.0125, -0.2338867, 1.0125, -1.0395508, 1.0125, -0.0551758, , , , , , , , , , , , , , , , , , , , , , 
0.0394615, 0.0092317, 1.026, -0.4291992, 1.026, -0.9956055, 1.026, 0.0922852, 0.0394615, -0.0082246, 1.026, 0.3984375, 1.026, -0.9926758, 1.026, -0.0908203, 0.0394615, -0.0119173, 1.026, 0.0600586, 1.026, -1.0576172, 1.026, 0.0014648, 0.0394615, 0.0036927, 1.026, -0.2397461, 1.026, -1.0473633, 1.026, -0.0366211, , , , , , , , , , , , , , , , , , , , , , 
0.0399808, 0.0008392, 1.0395, -0.4169922, 1.0395, -1.0083008, 1.0395, 0.1025391, 0.0399808, -0.0075532, 1.0395, 0.3901367, 1.0395, -0.9985352, 1.0395, -0.1069336, 0.0399808, -0.0102388, 1.0395, 0.0571289, 1.0395, -1.0683594, 1.0395, -0.0058594, 0.0399808, 0.0057069, 1.0395, -0.2446289, 1.0395, -1.0493164, 1.0395, -0.0053711, , , , , , , , , , , , , , , , , , , , , , 
0.0405, -0.0085603, 1.053, -0.3945312, 1.053, -1.0039062, 1.053, 0.1074219, 0.0405, -0.0048676, 1.053, 0.387207, 1.053, -0.9980469, 1.053, -0.1157227, 0.0405, -0.0099031, 1.053, 0.0634766, 1.053, -1.0634766, 1.053, -0.0126953, 0.0405, 0.0099031, 1.053, -0.2319336, 1.053, -1.027832, 1.053, 0.0175781, , , , , , , , , , , , , , , , , , , , , , 
0.0410192, -0.0216526, 1.0665, -0.3613281, 1.0665, -0.9848633, 1.0665, 0.1108398, 0.0410192, -0.0031891, 1.0665, 0.3745117, 1.0665, -0.9799805, 1.0665, -0.1298828, 0.0410192, -0.0097353, 1.0665, 0.09375, 1.0665, -1.0444336, 1.0665, -0.0209961, 0.0410192, 0.0199741, 1.0665, -0.2016602, 1.0665, -1.0009766, 1.0665, 0.0463867, , , , , , , , , , , , , , , , , , , , , , 
0.0415385, -0.0310521, 1.08, -0.3359375, 1.08, -0.965332, 1.08, 0.1181641, 0.0415385, -0.0038605, 1.08, 0.3681641, 1.08, -0.9462891, 1.08, -0.1464844, 0.0415385, -0.0078889, 1.08, 0.1396484, 1.08, -1.0117188, 1.08, -0.0336914, 0.0415385, 0.0293736, 1.08, -0.1757812, 1.08, -0.9814453, 1.08, 0.0737305, , , , , , , , , , , , , , , , , , , , , , 
0.0420577, -0.0347448, 1.0935, -0.3208008, 1.0935, -0.9443359, 1.0935, 0.1191406, 0.0420577, -0.005539, 1.0935, 0.3632812, 1.0935, -0.9174805, 1.0935, -0.1494141, 0.0420577, -0.0072175, 1.0935, 0.1826172, 1.0935, -0.9692383, 1.0935, -0.0390625, 0.0420577, 0.0340734, 1.0935, -0.159668, 1.0935, -0.9575195, 1.0935, 0.0834961, , , , , , , , , , , , , , , , , , , , , , 
0.0425769, -0.036759, 1.107, -0.3144531, 1.107, -0.934082, 1.107, 0.1157227, 0.0425769, -0.0058747, 1.107, 0.3608398, 1.107, -0.8911133, 1.107, -0.1538086, 0.0425769, -0.0063783, 1.107, 0.1943359, 1.107, -0.9331055, 1.107, -0.0390625, 0.0425769, 0.0350805, 1.107, -0.1479492, 1.107, -0.9360352, 1.107, 0.0766602, , , , , , , , , , , , , , , , , , , , , , 
0.0430962, -0.0394446, 1.1205, -0.2929688, 1.1205, -0.921875, 1.1205, 0.1191406, 0.0430962, -0.0062104, 1.1205, 0.3588867, 1.1205, -0.8691406, 1.1205, -0.1577148, 0.0430962, -0.0062104, 1.1205, 0.1738281, 1.1205, -0.9111328, 1.1205, -0.0424805, 0.0430962, 0.0360876, 1.1205, -0.1381836, 1.1205, -0.9208984, 1.1205, 0.0693359, , , , , , , , , , , , , , , , , , , , , , 
0.0436154, -0.0409552, 1.134, -0.2734375, 1.134, -0.9101562, 1.134, 0.1201172, 0.0436154, -0.0052033, 1.134, 0.359375, 1.134, -0.8535156, 1.134, -0.1625977, 0.0436154, -0.0062104, 1.134, 0.159668, 1.134, -0.9038086, 1.134, -0.0463867, 0.0436154, 0.0391089, 1.134, -0.1240234, 1.134, -0.902832, 1.134, 0.0678711, , , , , , , , , , , , , , , , , , , , , , 
0.0441346, -0.0391089, 1.1475, -0.2729492, 1.1475, -0.9023438, 1.1475, 0.1245117, 0.0441346, -0.0050355, 1.1475, 0.3540039, 1.1475, -0.8442383, 1.1475, -0.168457, 0.0441346, -0.0041962, 1.1475, 0.1621094, 1.1475, -0.9042969, 1.1475, -0.0498047, 0.0441346, 0.0421302, 1.1475, -0.1152344, 1.1475, -0.8989258, 1.1475, 0.0698242, , , , , , , , , , , , , , , , , , , , , , 
0.0446538, -0.0318914, 1.161, -0.2836914, 1.161, -0.8989258, 1.161, 0.1279297, 0.0446538, -0.0068818, 1.161, 0.3491211, 1.161, -0.847168, 1.161, -0.1738281, 0.0446538, -0.0028534, 1.161, 0.1748047, 1.161, -0.9086914, 1.161, -0.0507812, 0.0446538, 0.0396124, 1.161, -0.1103516, 1.161, -0.902832, 1.161, 0.0805664, , , , , , , , , , , , , , , , , , , , , , 
0.0451731, -0.0172885, 1.1745, -0.3066406, 1.1745, -0.9106445, 1.1745, 0.1416016, 0.0451731, -0.0078889, 1.1745, 0.3505859, 1.1745, -0.8535156, 1.1745, -0.1782227, 0.0451731, -0.0018463, 1.1745, 0.203125, 1.1745, -0.9482422, 1.1745, -0.050293, 0.0451731, 0.033402, 1.1745, -0.1186523, 1.1745, -0.9379883, 1.1745, 0.0927734, , , , , , , , , , , , , , , , , , , , , , 
0.0456923, -0.0008392, 1.188, -0.3383789, 1.188, -0.9511719, 1.188, 0.1518555, 0.0456923, -0.005539, 1.188, 0.3666992, 1.188, -0.8901367, 1.188, -0.1801758, 0.0456923, -0.0008392, 1.188, 0.2265625, 1.188, -1.0185547, 1.188, -0.0390625, 0.0456923, 0.0276951, 1.188, -0.1425781, 1.188, -0.9912109, 1.188, 0.1074219, , , , , , , , , , , , , , , , , , , , , , 
0.0462115, 0.0095674, 1.2015, -0.3637695, 1.2015, -0.9985352, 1.2015, 0.1474609, 0.0462115, -0.0050355, 1.2015, 0.4106445, 1.2015, -0.9433594, 1.2015, -0.1591797, 0.0462115, -0.0011749, 1.2015, 0.2338867, 1.2015, -1.0878906, 1.2015, -0.0151367, 0.0462115, 0.0250095, 1.2015, -0.1655273, 1.2015, -1.0424805, 1.2015, 0.1162109, , , , , , , , , , , , , , , , , , , , , , 
0.0467308, 0.0146029, 1.215, -0.3710938, 1.215, -1.0488281, 1.215, 0.1503906, 0.0467308, -0.0070497, 1.215, 0.4633789, 1.215, -1.0014648, 1.215, -0.1313477, 0.0467308, -0.0035248, 1.215, 0.2192383, 1.215, -1.1357422, 1.215, -0.0014648, 0.0467308, 0.0209812, 1.215, -0.1738281, 1.215, -1.0776367, 1.215, 0.1220703, , , , , , , , , , , , , , , , , , , , , , 
0.04725, 0.0193027, 1.2285, -0.3383789, 1.2285, -1.0800781, 1.2285, 0.1518555, 0.04725, -0.0095674, 1.2285, 0.5009766, 1.2285, -1.0463867, 1.2285, -0.1201172, 0.04725, -0.0028534, 1.2285, 0.2128906, 1.2285, -1.1391602, 1.2285, -0.0043945, 0.04725, 0.01561, 1.2285, -0.1738281, 1.2285, -1.0913086, 1.2285, 0.128418, , , , , , , , , , , , , , , , , , , , , , 
0.0477692, 0.023331, 1.242, -0.2993164, 1.242, -1.0854492, 1.242, 0.1743164, 0.0477692, -0.0078889, 1.242, 0.4975586, 1.242, -1.0585938, 1.242, -0.137207, 0.0477692, -0.0041962, 1.242, 0.2163086, 1.242, -1.1201172, 1.242, -0.0283203, 0.0477692, 0.0135958, 1.242, -0.1787109, 1.242, -1.0913086, 1.242, 0.1386719, , , , , , , , , , , , , , , , , , , , , , 
0.0482885, 0.0226596, 1.2555, -0.2817383, 1.2555, -1.0673828, 1.2555, 0.1870117, 0.0482885, -0.0075532, 1.2555, 0.4614258, 1.2555, -1.0463867, 1.2555, -0.1743164, 0.0482885, -0.0058747, 1.2555, 0.2353516, 1.2555, -1.09375, 1.2555, -0.0458984, 0.0482885, 0.0115816, 1.2555, -0.1879883, 1.2555, -1.0800781, 1.2555, 0.1523438, , , , , , , , , , , , , , , , , , , , , , 
0.0488077, 0.0199741, 1.269, -0.2836914, 1.269, -1.0541992, 1.269, 0.1889648, 0.0488077, -0.0085603, 1.269, 0.4121094, 1.269, -1.0141602, 1.269, -0.2119141, 0.0488077, -0.0077211, 1.269, 0.2558594, 1.269, -1.0766602, 1.269, -0.0341797, 0.0488077, 0.0092317, 1.269, -0.1875, 1.269, -1.065918, 1.269, 0.1699219, , , , , , , , , , , , , , , , , , , , , , 
0.0493269, 0.0218204, 1.2825, -0.309082, 1.2825, -1.0375977, 1.2825, 0.1904297, 0.0493269, -0.0065461, 1.2825, 0.3681641, 1.2825, -0.9873047, 1.2825, -0.2392578, 0.0493269, -0.0068818, 1.2825, 0.262207, 1.2825, -1.0683594, 1.2825, -0.0229492, 0.0493269, 0.0095674, 1.2825, -0.1855469, 1.2825, -1.0424805, 1.2825, 0.1796875, , , , , , , , , , , , , , , , , , , , , , 
0.0498462, 0.023331, 1.296, -0.3237305, 1.296, -1.0166016, 1.296, 0.1884766, 0.0498462, -0.0045319, 1.296, 0.3510742, 1.296, -0.9741211, 1.296, -0.2416992, 0.0498462, -0.0072175, 1.296, 0.2641602, 1.296, -1.0375977, 1.296, -0.0097656, 0.0498462, 0.0099031, 1.296, -0.1801758, 1.296, -1.0219727, 1.296, 0.1850586, , , , , , , , , , , , , , , , , , , , , , 
0.0503654, 0.0219883, 1.3095, -0.2993164, 1.3095, -0.9814453, 1.3095, 0.1914062, 0.0503654, -0.0050355, 1.3095, 0.3413086, 1.3095, -0.940918, 1.3095, -0.2426758, 0.0503654, -0.0090639, 1.3095, 0.2729492, 1.3095, -0.9804688, 1.3095, -0.0019531, 0.0503654, 0.0085603, 1.3095, -0.1694336, 1.3095, -0.9770508, 1.3095, 0.1870117, , , , , , , , , , , , , , , , , , , , , , 
0.0508846, 0.0224918, 1.323, -0.2514648, 1.323, -0.9360352, 1.323, 0.2041016, 0.0508846, -0.0068818, 1.323, 0.3530273, 1.323, -0.8955078, 1.323, -0.2421875, 0.0508846, -0.008896, 1.323, 0.2890625, 1.323, -0.918457, 1.323, -0.0048828, 0.0508846, 0.0058747, 1.323, -0.1606445, 1.323, -0.9316406, 1.323, 0.1889648, , , , , , , , , , , , , , , , , , , , , , 
0.0514038, 0.0260166, 1.3365, -0.2001953, 1.3365, -0.8994141, 1.3365, 0.2114258, 0.0514038, -0.0068818, 1.3365, 0.3710938, 1.3365, -0.8466797, 1.3365, -0.2475586, 0.0514038, -0.0092317, 1.3365, 0.2993164, 1.3365, -0.8691406, 1.3365, -0.0126953, 0.0514038, 0.0035248, 1.3365, -0.1611328, 1.3365, -0.8969727, 1.3365, 0.1889648, , , , , , , , , , , , , , , , , , , , , , 
0.0519231, 0.0270237, 1.35, -0.1860352, 1.35, -0.8740234, 1.35, 0.222168, 0.0519231, -0.0065461, 1.35, 0.3920898, 1.35, -0.8110352, 1.35, -0.2495117, 0.0519231, -0.0109102, 1.35, 0.3007812, 1.35, -0.8476562, 1.35, -0.0083008, 0.0519231, 0.0041962, 1.35, -0.1699219, 1.35, -0.8745117, 1.35, 0.1879883, , , , , , , , , , , , , , , , , , , , , , 
0.0524423, 0.0273594, 1.3635, -0.2133789, 1.3635, -0.8530273, 1.3635, 0.2260742, 0.0524423, -0.0075532, 1.3635, 0.3984375, 1.3635, -0.7973633, 1.3635, -0.2416992, 0.0524423, -0.0102388, 1.3635, 0.2861328, 1.3635, -0.8564453, 1.3635, 0.0053711, 0.0524423, 0.0053712, 1.3635, -0.1845703, 1.3635, -0.8696289, 1.3635, 0.1845703, , , , , , , , , , , , , , , , , , , , , , 
0.0529615, 0.0273594, 1.377, -0.2641602, 1.377, -0.8442383, 1.377, 0.2250977, 0.0529615, -0.0082246, 1.377, 0.3994141, 1.377, -0.7949219, 1.377, -0.2285156, 0.0529615, -0.0095674, 1.377, 0.2578125, 1.377, -0.8847656, 1.377, 0.0307617, 0.0529615, 0.0062104, 1.377, -0.199707, 1.377, -0.8720703, 1.377, 0.1796875, , , , , , , , , , , , , , , , , , , , , , 
0.0534808, 0.0256809, 1.3905, -0.3056641, 1.3905, -0.8398438, 1.3905, 0.2319336, 0.0534808, -0.0085603, 1.3905, 0.3994141, 1.3905, -0.7978516, 1.3905, -0.2143555, 0.0534808, -0.0092317, 1.3905, 0.2348633, 1.3905, -0.8994141, 1.3905, 0.0493164, 0.0534808, 0.005539, 1.3905, -0.215332, 1.3905, -0.8735352, 1.3905, 0.1762695, , , , , , , , , , , , , , , , , , , , , , 
0.054, 0.0231632, 1.404, -0.315918, 1.404, -0.8325195, 1.404, 0.2373047, 0.054, -0.0092317, 1.404, 0.409668, 1.404, -0.7949219, 1.404, -0.2080078, 0.054, -0.0062104, 1.404, 0.2265625, 1.404, -0.9023438, 1.404, 0.0551758, 0.054, 0.0048676, 1.404, -0.2333984, 1.404, -0.8706055, 1.404, 0.1660156, , , , , , , , , , , , , , , , , , , , , , 
0.0545192, 0.0265202, 1.4175, -0.3071289, 1.4175, -0.8266602, 1.4175, 0.2460938, 0.0545192, -0.0092317, 1.4175, 0.4208984, 1.4175, -0.7905273, 1.4175, -0.2070312, 0.0545192, -0.005539, 1.4175, 0.2304688, 1.4175, -0.90625, 1.4175, 0.0556641, 0.0545192, -0.0003357, 1.4175, -0.2426758, 1.4175, -0.8745117, 1.4175, 0.1635742, , , , , , , , , , , , , , , , , , , , , , 
0.0550385, 0.0397803, 1.431, -0.309082, 1.431, -0.8198242, 1.431, 0.253418, 0.0550385, -0.0097353, 1.431, 0.4472656, 1.431, -0.7807617, 1.431, -0.2001953, 0.0550385, -0.0078889, 1.431, 0.2397461, 1.431, -0.9125977, 1.431, 0.0546875, 0.0550385, -0.0082246, 1.431, -0.2412109, 1.431, -0.878418, 1.431, 0.1655273, , , , , , , , , , , , , , , , , , , , , , 
0.0555577, 0.0532082, 1.4445, -0.3149414, 1.4445, -0.8168945, 1.4445, 0.2519531, 0.0555577, -0.0099031, 1.4445, 0.4672852, 1.4445, -0.7758789, 1.4445, -0.1938477, 0.0555577, -0.0095674, 1.4445, 0.2348633, 1.4445, -0.9135742, 1.4445, 0.0537109, 0.0555577, -0.0135958, 1.4445, -0.2392578, 1.4445, -0.8779297, 1.4445, 0.1650391, , , , , , , , , , , , , , , , , , , , , , 
0.0560769, 0.0575723, 1.458, -0.3242188, 1.458, -0.815918, 1.458, 0.25, 0.0560769, -0.0102388, 1.458, 0.480957, 1.458, -0.7744141, 1.458, -0.1855469, 0.0560769, -0.0125887, 1.458, 0.2207031, 1.458, -0.9194336, 1.458, 0.059082, 0.0560769, -0.0142672, 1.458, -0.2368164, 1.458, -0.878418, 1.458, 0.1611328, , , , , , , , , , , , , , , , , , , , , , 
0.0565962, 0.0525368, 1.4715, -0.3305664, 1.4715, -0.8120117, 1.4715, 0.2495117, 0.0565962, -0.0102388, 1.4715, 0.4824219, 1.4715, -0.7724609, 1.4715, -0.1787109, 0.0565962, -0.0139315, 1.4715, 0.2270508, 1.4715, -0.9179688, 1.4715, 0.0629883, 0.0565962, -0.0146029, 1.4715, -0.2387695, 1.4715, -0.8769531, 1.4715, 0.1542969, , , , , , , , , , , , , , , , , , , , , , 
0.0571154, 0.0468299, 1.485, -0.3325195, 1.485, -0.8144531, 1.485, 0.2480469, 0.0571154, -0.0102388, 1.485, 0.4804688, 1.485, -0.7724609, 1.485, -0.1757812, 0.0571154, -0.0129244, 1.485, 0.2319336, 1.485, -0.9121094, 1.485, 0.0610352, 0.0571154, -0.0167849, 1.485, -0.2314453, 1.485, -0.8789062, 1.485, 0.1484375, , , , , , , , , , , , , , , , , , , , , , 
0.0576346, 0.0438087, 1.4985, -0.3286133, 1.4985, -0.8164062, 1.4985, 0.246582, 0.0576346, -0.0090639, 1.4985, 0.4780273, 1.4985, -0.7729492, 1.4985, -0.175293, 0.0576346, -0.0109102, 1.4985, 0.2319336, 1.4985, -0.9023438, 1.4985, 0.0556641, 0.0576346, -0.0135958, 1.4985, -0.2246094, 1.4985, -0.8793945, 1.4985, 0.1425781, , , , , , , , , , , , , , , , , , , , , , 
0.0581538, 0.0411231, 1.512, -0.3227539, 1.512, -0.8125, 1.512, 0.2426758, 0.0581538, -0.0085603, 1.512, 0.4667969, 1.512, -0.7724609, 1.512, -0.1772461, 0.0581538, -0.0092317, 1.512, 0.2255859, 1.512, -0.8969727, 1.512, 0.0483398, 0.0581538, -0.0087282, 1.512, -0.2197266, 1.512, -0.871582, 1.512, 0.1420898, , , , , , , , , , , , , , , , , , , , , , 
0.0586731, 0.033402, 1.5255, -0.3300781, 1.5255, -0.8134766, 1.5255, 0.2426758, 0.0586731, -0.0082246, 1.5255, 0.4604492, 1.5255, -0.7680664, 1.5255, -0.1762695, 0.0586731, -0.0095674, 1.5255, 0.2216797, 1.5255, -0.9033203, 1.5255, 0.0385742, 0.0586731, -0.0035248, 1.5255, -0.2192383, 1.5255, -0.8740234, 1.5255, 0.1396484, , , , , , , , , , , , , , , , , , , , , , 
0.0591923, 0.0206455, 1.539, -0.3388672, 1.539, -0.8193359, 1.539, 0.2373047, 0.0591923, -0.0077211, 1.539, 0.4599609, 1.539, -0.7714844, 1.539, -0.1728516, 0.0591923, -0.0090639, 1.539, 0.2255859, 1.539, -0.9125977, 1.539, 0.0361328, 0.0591923, 0.0018463, 1.539, -0.2011719, 1.539, -0.8808594, 1.539, 0.1391602, , , , , , , , , , , , , , , , , , , , , , 
0.0597115, 0.0068818, 1.5525, -0.3496094, 1.5525, -0.8261719, 1.5525, 0.234375, 0.0597115, -0.0082246, 1.5525, 0.4648438, 1.5525, -0.7758789, 1.5525, -0.1694336, 0.0597115, -0.0082246, 1.5525, 0.2294922, 1.5525, -0.9155273, 1.5525, 0.0366211, 0.0597115, 0.0092317, 1.5525, -0.1879883, 1.5525, -0.8862305, 1.5525, 0.1386719, , , , , , , , , , , , , , , , , , , , , , 
0.0602308, -0.0045319, 1.566, -0.3530273, 1.566, -0.8305664, 1.566, 0.2324219, 0.0602308, -0.008896, 1.566, 0.4750977, 1.566, -0.7788086, 1.566, -0.1625977, 0.0602308, -0.008896, 1.566, 0.2333984, 1.566, -0.9160156, 1.566, 0.0317383, 0.0602308, 0.0152743, 1.566, -0.1860352, 1.566, -0.8935547, 1.566, 0.1367188, , , , , , , , , , , , , , , , , , , , , , 
0.06075, -0.0159457, 1.5795, -0.3481445, 1.5795, -0.8388672, 1.5795, 0.2353516, 0.06075, -0.0085603, 1.5795, 0.4833984, 1.5795, -0.7915039, 1.5795, -0.1582031, 0.06075, -0.0087282, 1.5795, 0.2373047, 1.5795, -0.9267578, 1.5795, 0.034668, 0.06075, 0.0186313, 1.5795, -0.1918945, 1.5795, -0.90625, 1.5795, 0.1347656, , , , , , , , , , , , , , , , , , , , , , 
0.0612692, -0.026688, 1.593, -0.347168, 1.593, -0.8500977, 1.593, 0.2382812, 0.0612692, -0.0082246, 1.593, 0.4946289, 1.593, -0.8110352, 1.593, -0.1542969, 0.0612692, -0.0097353, 1.593, 0.2407227, 1.593, -0.9379883, 1.593, 0.0488281, 0.0612692, 0.0240024, 1.593, -0.203125, 1.593, -0.9140625, 1.593, 0.1401367, , , , , , , , , , , , , , , , , , , , , , 
0.0617885, -0.0327306, 1.6065, -0.347168, 1.6065, -0.8544922, 1.6065, 0.2382812, 0.0617885, -0.0082246, 1.6065, 0.5014648, 1.6065, -0.824707, 1.6065, -0.1518555, 0.0617885, -0.008896, 1.6065, 0.2456055, 1.6065, -0.9477539, 1.6065, 0.0581055, 0.0617885, 0.030045, 1.6065, -0.2143555, 1.6065, -0.9208984, 1.6065, 0.1425781, , , , , , , , , , , , , , , , , , , , , , 
0.0623077, -0.0421302, 1.62, -0.3535156, 1.62, -0.8642578, 1.62, 0.2426758, 0.0623077, -0.008896, 1.62, 0.5048828, 1.62, -0.8378906, 1.62, -0.1518555, 0.0623077, -0.0068818, 1.62, 0.2509766, 1.62, -0.9594727, 1.62, 0.0644531, 0.0623077, 0.0327306, 1.62, -0.2299805, 1.62, -0.9311523, 1.62, 0.1503906, , , , , , , , , , , , , , , , , , , , , , 
0.0628269, -0.0485084, 1.6335, -0.359375, 1.6335, -0.8725586, 1.6335, 0.2392578, 0.0628269, -0.0104067, 1.6335, 0.5073242, 1.6335, -0.8496094, 1.6335, -0.1523438, 0.0628269, -0.0062104, 1.6335, 0.2509766, 1.6335, -0.9707031, 1.6335, 0.0673828, 0.0628269, 0.0340734, 1.6335, -0.2451172, 1.6335, -0.9355469, 1.6335, 0.1572266, , , , , , , , , , , , , , , , , , , , , , 
0.0633462, -0.0475013, 1.647, -0.3613281, 1.647, -0.875, 1.647, 0.2358398, 0.0633462, -0.0102388, 1.647, 0.503418, 1.647, -0.8540039, 1.647, -0.152832, 0.0633462, -0.0045319, 1.647, 0.2470703, 1.647, -0.96875, 1.647, 0.065918, 0.0633462, 0.0384375, 1.647, -0.2524414, 1.647, -0.9355469, 1.647, 0.1645508, , , , , , , , , , , , , , , , , , , , , , 
0.0638654, -0.0485084, 1.6605, -0.3637695, 1.6605, -0.8754883, 1.6605, 0.2382812, 0.0638654, -0.0102388, 1.6605, 0.4926758, 1.6605, -0.8574219, 1.6605, -0.1572266, 0.0638654, -0.002182, 1.6605, 0.2451172, 1.6605, -0.9672852, 1.6605, 0.0727539, 0.0638654, 0.0411231, 1.6605, -0.2578125, 1.6605, -0.9375, 1.6605, 0.171875, , , , , , , , , , , , , , , , , , , , , , 
0.0643846, -0.0468299, 1.674, -0.3623047, 1.674, -0.8764648, 1.674, 0.2382812, 0.0643846, -0.0109102, 1.674, 0.4887695, 1.674, -0.8598633, 1.674, -0.1572266, 0.0643846, 0.0001678, 1.674, 0.2480469, 1.674, -0.9648438, 1.674, 0.0756836, 0.0643846, 0.0381018, 1.674, -0.2744141, 1.674, -0.9414062, 1.674, 0.1757812, , , , , , , , , , , , , , , , , , , , , , 
0.0649038, -0.0350805, 1.6875, -0.3671875, 1.6875, -0.8837891, 1.6875, 0.234375, 0.0649038, -0.0102388, 1.6875, 0.4819336, 1.6875, -0.8652344, 1.6875, -0.1557617, 0.0649038, -0.0001678, 1.6875, 0.253418, 1.6875, -0.9692383, 1.6875, 0.0776367, 0.0649038, 0.0310521, 1.6875, -0.2856445, 1.6875, -0.9580078, 1.6875, 0.1762695, , , , , , , , , , , , , , , , , , , , , , 
0.0654231, -0.01561, 1.701, -0.3862305, 1.701, -0.9013672, 1.701, 0.2324219, 0.0654231, -0.0072175, 1.701, 0.4804688, 1.701, -0.8789062, 1.701, -0.15625, 0.0654231, -0.0001678, 1.701, 0.2617188, 1.701, -0.9858398, 1.701, 0.074707, 0.0654231, 0.0270237, 1.701, -0.2822266, 1.701, -0.980957, 1.701, 0.1801758, , , , , , , , , , , , , , , , , , , , , , 
0.0659423, 0.002182, 1.7145, -0.4038086, 1.7145, -0.9238281, 1.7145, 0.2138672, 0.0659423, -0.005539, 1.7145, 0.4819336, 1.7145, -0.9052734, 1.7145, -0.1464844, 0.0659423, -0.0005035, 1.7145, 0.253418, 1.7145, -1.0073242, 1.7145, 0.0703125, 0.0659423, 0.0236667, 1.7145, -0.2578125, 1.7145, -0.9946289, 1.7145, 0.1743164, , , , , , , , , , , , , , , , , , , , , , 
0.0664615, 0.0139315, 1.728, -0.4003906, 1.728, -0.9394531, 1.728, 0.2109375, 0.0664615, -0.0043641, 1.728, 0.4853516, 1.728, -0.9301758, 1.728, -0.1367188, 0.0664615, -0.0011749, 1.728, 0.2451172, 1.728, -1.0214844, 1.728, 0.0581055, 0.0664615, 0.0199741, 1.728, -0.2416992, 1.728, -1.0024414, 1.728, 0.1650391, , , , , , , , , , , , , , , , , , , , , , 
0.0669808, 0.0224918, 1.7415, -0.3896484, 1.7415, -0.9511719, 1.7415, 0.206543, 0.0669808, -0.0048676, 1.7415, 0.4882812, 1.7415, -0.9379883, 1.7415, -0.1333008, 0.0669808, -0.002182, 1.7415, 0.2529297, 1.7415, -1.0395508, 1.7415, 0.0317383, 0.0669808, 0.0184634, 1.7415, -0.2226562, 1.7415, -1.0209961, 1.7415, 0.1582031, , , , , , , , , , , , , , , , , , , , , , 
0.0675, 0.0250095, 1.755, -0.3920898, 1.755, -0.9770508, 1.755, 0.2016602, 0.0675, -0.0058747, 1.755, 0.4931641, 1.755, -0.953125, 1.755, -0.1333008, 0.0675, -0.0028534, 1.755, 0.2705078, 1.755, -1.0708008, 1.755, 0.0078125, 0.0675, 0.0172885, 1.755, -0.2124023, 1.755, -1.0400391, 1.755, 0.1513672, , , , , , , , , , , , , , , , , , , , , , 
0.0680192, 0.0240024, 1.7685, -0.4018555, 1.7685, -0.9956055, 1.7685, 0.199707, 0.0680192, -0.0062104, 1.7685, 0.5009766, 1.7685, -0.9902344, 1.7685, -0.1264648, 0.0680192, -0.0048676, 1.7685, 0.2670898, 1.7685, -1.1381836, 1.7685, -0.0161133, 0.0680192, 0.0152743, 1.7685, -0.1884766, 1.7685, -1.1040039, 1.7685, 0.137207, , , , , , , , , , , , , , , , , , , , , , 
0.0685385, 0.0280308, 1.782, -0.4467773, 1.782, -1.0488281, 1.782, 0.1884766, 0.0685385, -0.0063783, 1.782, 0.5151367, 1.782, -1.0517578, 1.782, -0.1049805, 0.0685385, -0.005539, 1.782, 0.237793, 1.782, -1.2285156, 1.782, -0.0322266, 0.0685385, 0.0129244, 1.782, -0.1757812, 1.782, -1.171875, 1.782, 0.1206055, , , , , , , , , , , , , , , , , , , , , , 
0.0690577, 0.0360876, 1.7955, -0.5117188, 1.7955, -1.1113281, 1.7955, 0.1660156, 0.0690577, -0.0048676, 1.7955, 0.5273438, 1.7955, -1.0874023, 1.7955, -0.0883789, 0.0690577, -0.005539, 1.7955, 0.1923828, 1.7955, -1.3183594, 1.7955, -0.0571289, 0.0690577, 0.0132601, 1.7955, -0.1567383, 1.7955, -1.2416992, 1.7955, 0.0893555, , , , , , , , , , , , , , , , , , , , , , 
0.0695769, 0.0391089, 1.809, -0.565918, 1.809, -1.1831055, 1.809, 0.1435547, 0.0695769, -0.0015106, 1.809, 0.550293, 1.809, -1.1611328, 1.809, -0.0576172, 0.0695769, -0.0057069, 1.809, 0.1689453, 1.809, -1.3549805, 1.809, -0.0708008, 0.0695769, 0.0132601, 1.809, -0.1108398, 1.809, -1.28125, 1.809, 0.0683594, , , , , , , , , , , , , , , , , , , , , , 
0.0700962, 0.0370947, 1.8225, -0.5639648, 1.8225, -1.2426758, 1.8225, 0.1230469, 0.0700962, -0.0025177, 1.8225, 0.5639648, 1.8225, -1.2163086, 1.8225, -0.0463867, 0.0700962, -0.0065461, 1.8225, 0.1347656, 1.8225, -1.362793, 1.8225, -0.1181641, 0.0700962, 0.0125887, 1.8225, -0.043457, 1.8225, -1.2602539, 1.8225, 0.0522461, , , , , , , , , , , , , , , , , , , , , , 
0.0706154, 0.0347448, 1.836, -0.4770508, 1.836, -1.2480469, 1.836, 0.1054688, 0.0706154, -0.0036927, 1.836, 0.534668, 1.836, -1.2158203, 1.836, -0.0625, 0.0706154, -0.0068818, 1.836, 0.1430664, 1.836, -1.2792969, 1.836, -0.1801758, 0.0706154, 0.012253, 1.836, 0.012207, 1.836, -1.2011719, 1.836, 0.0488281, , , , , , , , , , , , , , , , , , , , , , 
0.0711346, 0.0354162, 1.8495, -0.3364258, 1.8495, -1.1977539, 1.8495, 0.1005859, 0.0711346, -0.0035248, 1.8495, 0.4516602, 1.8495, -1.1518555, 1.8495, -0.1201172, 0.0711346, -0.0092317, 1.8495, 0.1801758, 1.8495, -1.1611328, 1.8495, -0.2495117, 0.0711346, 0.0125887, 1.8495, 0.0605469, 1.8495, -1.1289062, 1.8495, 0.0566406, , , , , , , , , , , , , , , , , , , , , , 
0.0716538, 0.0387732, 1.863, -0.2182617, 1.863, -1.1333008, 1.863, 0.0922852, 0.0716538, -0.0035248, 1.863, 0.34375, 1.863, -1.0620117, 1.863, -0.1777344, 0.0716538, -0.0115816, 1.863, 0.2260742, 1.863, -1.0458984, 1.863, -0.2895508, 0.0716538, 0.0142672, 1.863, 0.0976562, 1.863, -1.0576172, 1.863, 0.0756836, , , , , , , , , , , , , , , , , , , , , , 
0.0721731, 0.0391089, 1.8765, -0.1708984, 1.8765, -1.0717773, 1.8765, 0.0834961, 0.0721731, -0.0041962, 1.8765, 0.2504883, 1.8765, -0.9926758, 1.8765, -0.2226562, 0.0721731, -0.0129244, 1.8765, 0.2548828, 1.8765, -0.9443359, 1.8765, -0.2875977, 0.0721731, 0.0166171, 1.8765, 0.1157227, 1.8765, -1.0019531, 1.8765, 0.0986328, , , , , , , , , , , , , , , , , , , , , , 
0.0726923, 0.0350805, 1.89, -0.1831055, 1.89, -1.0195312, 1.89, 0.0761719, 0.0726923, -0.0041962, 1.89, 0.1816406, 1.89, -0.9370117, 1.89, -0.2558594, 0.0726923, -0.0124208, 1.89, 0.2705078, 1.89, -0.8686523, 1.89, -0.2695312, 0.0726923, 0.0152743, 1.89, 0.1025391, 1.89, -0.9785156, 1.89, 0.1035156, , , , , , , , , , , , , , , , , , , , , , 
0.0732115, 0.0310521, 1.9035, -0.2231445, 1.9035, -0.9907227, 1.9035, 0.0712891, 0.0732115, -0.0062104, 1.9035, 0.1342773, 1.9035, -0.9145508, 1.9035, -0.2626953, 0.0732115, -0.0095674, 1.9035, 0.2832031, 1.9035, -0.8632812, 1.9035, -0.2446289, 0.0732115, 0.0112459, 1.9035, 0.0942383, 1.9035, -0.9819336, 1.9035, 0.0986328, , , , , , , , , , , , , , , , , , , , , , 
0.0737308, 0.0290379, 1.917, -0.2919922, 1.917, -1.0009766, 1.917, 0.0605469, 0.0737308, -0.0075532, 1.917, 0.1293945, 1.917, -0.921875, 1.917, -0.2519531, 0.0737308, -0.0052033, 1.917, 0.2607422, 1.917, -0.9379883, 1.917, -0.2192383, 0.0737308, 0.0099031, 1.917, 0.0742188, 1.917, -1.0166016, 1.917, 0.0712891, , , , , , , , , , , , , , , , , , , , , , 
0.07425, 0.0340734, 1.9305, -0.3730469, 1.9305, -1.0390625, 1.9305, 0.0551758, 0.07425, -0.0063783, 1.9305, 0.1640625, 1.9305, -0.9663086, 1.9305, -0.199707, 0.07425, -0.0048676, 1.9305, 0.1855469, 1.9305, -1.0380859, 1.9305, -0.1928711, 0.07425, 0.0082246, 1.9305, 0.0449219, 1.9305, -1.0625, 1.9305, 0.0458984, , , , , , , , , , , , , , , , , , , , , , 
0.0747692, 0.0459907, 1.944, -0.4052734, 1.944, -1.0581055, 1.944, 0.0541992, 0.0747692, -0.005539, 1.944, 0.2597656, 1.944, -1.0268555, 1.944, -0.1303711, 0.0747692, -0.0082246, 1.944, 0.1420898, 1.944, -1.074707, 1.944, -0.1889648, 0.0747692, 0.0018463, 1.944, 0.0195312, 1.944, -1.0854492, 1.944, 0.0195312, , , , , , , , , , , , , , , , , , , , , , 
0.0752885, 0.0575723, 1.9575, -0.4272461, 1.9575, -1.0888672, 1.9575, 0.0541992, 0.0752885, -0.0052033, 1.9575, 0.3603516, 1.9575, -1.0610352, 1.9575, -0.0727539, 0.0752885, -0.0087282, 1.9575, 0.0786133, 1.9575, -1.1181641, 1.9575, -0.1884766, 0.0752885, -0.0048676, 1.9575, -0.0063477, 1.9575, -1.0966797, 1.9575, -0.0043945, , , , , , , , , , , , , , , , , , , , , , 
0.0758077, 0.0585794, 1.971, -0.3891602, 1.971, -1.09375, 1.971, 0.0605469, 0.0758077, -0.005539, 1.971, 0.4291992, 1.971, -1.0673828, 1.971, -0.0493164, 0.0758077, -0.0102388, 1.971, 0.0546875, 1.971, -1.1381836, 1.971, -0.1831055, 0.0758077, -0.0082246, 1.971, -0.0429688, 1.971, -1.0976562, 1.971, -0.0131836, , , , , , , , , , , , , , , , , , , , , , 
0.0763269, 0.0533761, 1.9845, -0.3383789, 1.9845, -1.0830078, 1.9845, 0.0712891, 0.0763269, -0.0068818, 1.9845, 0.4521484, 1.9845, -1.0512695, 1.9845, -0.0610352, 0.0763269, -0.0139315, 1.9845, 0.0595703, 1.9845, -1.1333008, 1.9845, -0.1787109, 0.0763269, -0.0090639, 1.9845, -0.0766602, 1.9845, -1.0922852, 1.9845, -0.0058594, , , , , , , , , , , , , , , , , , , , , , 
0.0768462, 0.051194, 1.998, -0.3164062, 1.998, -1.0678711, 1.998, 0.0727539, 0.0768462, -0.008896, 1.998, 0.4296875, 1.998, -1.0341797, 1.998, -0.0751953, 0.0768462, -0.0149386, 1.998, 0.090332, 1.998, -1.1162109, 1.998, -0.159668, 0.0768462, -0.0075532, 1.998, -0.090332, 1.998, -1.097168, 1.998, 0.0136719, , , , , , , , , , , , , , , , , , , , , , 
0.0773654, 0.047837, 2.0115, -0.34375, 2.0115, -1.0537109, 2.0115, 0.0634766, 0.0773654, -0.0095674, 2.0115, 0.375, 2.0115, -1.0239258, 2.0115, -0.0874023, 0.0773654, -0.0149386, 2.0115, 0.125, 2.0115, -1.1069336, 2.0115, -0.128418, 0.0773654, -0.0043641, 2.0115, -0.0878906, 2.0115, -1.0976562, 2.0115, 0.03125, , , , , , , , , , , , , , , , , , , , , , 
0.0778846, 0.0407874, 2.025, -0.3935547, 2.025, -1.0429688, 2.025, 0.0585938, 0.0778846, -0.0109102, 2.025, 0.328125, 2.025, -1.0107422, 2.025, -0.0908203, 0.0778846, -0.0142672, 2.025, 0.1538086, 2.025, -1.09375, 2.025, -0.1108398, 0.0778846, -0.0001678, 2.025, -0.0605469, 2.025, -1.0732422, 2.025, 0.0380859, , , , , , , , , , , , , , , , , , , , , , 
0.0784038, 0.0323949, 2.0385, -0.3999023, 2.0385, -1.0239258, 2.0385, 0.0424805, 0.0784038, -0.0115816, 2.0385, 0.315918, 2.0385, -1.0004883, 2.0385, -0.0913086, 0.0784038, -0.0139315, 2.0385, 0.1767578, 2.0385, -1.0512695, 2.0385, -0.1137695, 0.0784038, 0.0038605, 2.0385, -0.0239258, 2.0385, -1.0297852, 2.0385, 0.0375977, , , , , , , , , , , , , , , , , , , , , , 
0.0789231, 0.0186313, 2.052, -0.3432617, 2.052, -0.9892578, 2.052, 0.0454102, 0.0789231, -0.0104067, 2.052, 0.3085938, 2.052, -0.9746094, 2.052, -0.0942383, 0.0789231, -0.012253, 2.052, 0.1943359, 2.052, -0.9892578, 2.052, -0.1352539, 0.0789231, 0.0072175, 2.052, -0.0048828, 2.052, -1.0048828, 2.052, 0.0400391, , , , , , , , , , , , , , , , , , , , , , 
0.0794423, 0.0052033, 2.0655, -0.2661133, 2.0655, -0.9472656, 2.0655, 0.0668945, 0.0794423, -0.0095674, 2.0655, 0.3032227, 2.0655, -0.9345703, 2.0655, -0.1157227, 0.0794423, -0.0102388, 2.0655, 0.2060547, 2.0655, -0.9545898, 2.0655, -0.1479492, 0.0794423, 0.0114137, 2.0655, 0.0175781, 2.0655, -0.9643555, 2.0655, 0.0444336, , , , , , , , , , , , , , , , , , , , , , 
0.0799615, -0.0028534, 2.079, -0.2138672, 2.079, -0.9125977, 2.079, 0.0786133, 0.0799615, -0.0082246, 2.079, 0.2998047, 2.079, -0.887207, 2.079, -0.1381836, 0.0799615, -0.010071, 2.079, 0.2202148, 2.079, -0.8911133, 2.079, -0.1606445, 0.0799615, 0.01561, 2.079, 0.0200195, 2.079, -0.9311523, 2.079, 0.0458984, , , , , , , , , , , , , , , , , , , , , , 
0.0804808, -0.0112459, 2.0925, -0.222168, 2.0925, -0.8876953, 2.0925, 0.0795898, 0.0804808, -0.0072175, 2.0925, 0.3012695, 2.0925, -0.8432617, 2.0925, -0.1479492, 0.0804808, -0.010071, 2.0925, 0.2094727, 2.0925, -0.8515625, 2.0925, -0.1494141, 0.0804808, 0.0172885, 2.0925, 0.0078125, 2.0925, -0.9008789, 2.0925, 0.0419922, , , , , , , , , , , , , , , , , , , , , , 
0.081, -0.0236667, 2.106, -0.234375, 2.106, -0.8779297, 2.106, 0.0800781, 0.081, -0.0078889, 2.106, 0.3027344, 2.106, -0.8144531, 2.106, -0.1450195, 0.081, -0.0115816, 2.106, 0.1679688, 2.106, -0.8295898, 2.106, -0.1313477, 0.081, 0.0206455, 2.106, -0.0136719, 2.106, -0.8706055, 2.106, 0.0302734, , , , , , , , , , , , , , , , , , , , , , 
0.0815192, -0.0372625, 2.1195, -0.2617188, 2.1195, -0.8583984, 2.1195, 0.0771484, 0.0815192, -0.008896, 2.1195, 0.2944336, 2.1195, -0.7998047, 2.1195, -0.1308594, 0.0815192, -0.0105745, 2.1195, 0.1196289, 2.1195, -0.8256836, 2.1195, -0.1137695, 0.0815192, 0.0246738, 2.1195, -0.0400391, 2.1195, -0.8505859, 2.1195, 0.0131836, , , , , , , , , , , , , , , , , , , , , , 
0.0820385, -0.0441444, 2.133, -0.2880859, 2.133, -0.8378906, 2.133, 0.0742188, 0.0820385, -0.0092317, 2.133, 0.293457, 2.133, -0.7827148, 2.133, -0.1186523, 0.0820385, -0.0062104, 2.133, 0.0942383, 2.133, -0.8369141, 2.133, -0.0932617, 0.0820385, 0.030045, 2.133, -0.0605469, 2.133, -0.8422852, 2.133, -0.0043945, , , , , , , , , , , , , , , , , , , , , , 
0.0825577, -0.0458228, 2.1465, -0.309082, 2.1465, -0.8173828, 2.1465, 0.0810547, 0.0825577, -0.008896, 2.1465, 0.3134766, 2.1465, -0.7651367, 2.1465, -0.1030273, 0.0825577, -0.0035248, 2.1465, 0.0874023, 2.1465, -0.8457031, 2.1465, -0.081543, 0.0825577, 0.0327306, 2.1465, -0.0800781, 2.1465, -0.8359375, 2.1465, -0.0083008, , , , , , , , , , , , , , , , , , , , , , 
0.0830769, -0.0458228, 2.16, -0.3325195, 2.16, -0.8037109, 2.16, 0.0883789, 0.0830769, -0.0095674, 2.16, 0.3266602, 2.16, -0.7583008, 2.16, -0.0957031, 0.0830769, -0.0030213, 2.16, 0.0888672, 2.16, -0.8525391, 2.16, -0.0673828, 0.0830769, 0.0320592, 2.16, -0.0927734, 2.16, -0.8378906, 2.16, -0.0092773, , , , , , , , , , , , , , , , , , , , , , 
0.0835962, -0.0468299, 2.1735, -0.3486328, 2.1735, -0.7880859, 2.1735, 0.0957031, 0.0835962, -0.0095674, 2.1735, 0.3603516, 2.1735, -0.7441406, 2.1735, -0.0830078, 0.0835962, -0.0028534, 2.1735, 0.0864258, 2.1735, -0.8491211, 2.1735, -0.0498047, 0.0835962, 0.0320592, 2.1735, -0.105957, 2.1735, -0.840332, 2.1735, -0.0126953, , , , , , , , , , , , , , , , , , , , , , 
0.0841154, -0.0461585, 2.187, -0.3515625, 2.187, -0.7758789, 2.187, 0.1069336, 0.0841154, -0.0095674, 2.187, 0.3876953, 2.187, -0.7314453, 2.187, -0.074707, 0.0841154, -0.0015106, 2.187, 0.078125, 2.187, -0.8476562, 2.187, -0.0292969, 0.0841154, 0.0323949, 2.187, -0.1235352, 2.187, -0.8452148, 2.187, -0.0249023, , , , , , , , , , , , , , , , , , , , , , 
0.0846346, -0.0352483, 2.2005, -0.355957, 2.2005, -0.7719727, 2.2005, 0.1206055, 0.0846346, -0.0105745, 2.2005, 0.40625, 2.2005, -0.7270508, 2.2005, -0.0742188, 0.0846346, -0.0028534, 2.2005, 0.0756836, 2.2005, -0.8491211, 2.2005, -0.019043, 0.0846346, 0.0297093, 2.2005, -0.1450195, 2.2005, -0.84375, 2.2005, -0.03125, , , , , , , , , , , , , , , , , , , , , , 
0.0851538, -0.01561, 2.214, -0.3598633, 2.214, -0.7685547, 2.214, 0.1220703, 0.0851538, -0.0119173, 2.214, 0.4204102, 2.214, -0.7294922, 2.214, -0.0678711, 0.0851538, -0.0035248, 2.214, 0.0673828, 2.214, -0.8564453, 2.214, 0.0161133, 0.0851538, 0.0223239, 2.214, -0.1567383, 2.214, -0.840332, 2.214, -0.034668, , , , , , , , , , , , , , , , , , , , , , 
0.0856731, 0.0025177, 2.2275, -0.3657227, 2.2275, -0.765625, 2.2275, 0.1303711, 0.0856731, -0.011078, 2.2275, 0.4321289, 2.2275, -0.7294922, 2.2275, -0.0673828, 0.0856731, -0.0041962, 2.2275, 0.0703125, 2.2275, -0.8613281, 2.2275, 0.0454102, 0.0856731, 0.0146029, 2.2275, -0.1787109, 2.2275, -0.8383789, 2.2275, -0.0351562, , , , , , , , , , , , , , , , , , , , , , 
0.0861923, 0.0129244, 2.241, -0.371582, 2.241, -0.7607422, 2.241, 0.1479492, 0.0861923, -0.0085603, 2.241, 0.4384766, 2.241, -0.7314453, 2.241, -0.0756836, 0.0861923, -0.0078889, 2.241, 0.0859375, 2.241, -0.8657227, 2.241, 0.0625, 0.0861923, 0.0112459, 2.241, -0.1938477, 2.241, -0.8447266, 2.241, -0.0292969, , , , , , , , , , , , , , , , , , , , , , 
0.0867115, 0.0159457, 2.2545, -0.3706055, 2.2545, -0.7587891, 2.2545, 0.159668, 0.0867115, -0.0068818, 2.2545, 0.4418945, 2.2545, -0.7329102, 2.2545, -0.0869141, 0.0867115, -0.0095674, 2.2545, 0.1132812, 2.2545, -0.8623047, 2.2545, 0.0849609, 0.0867115, 0.0117494, 2.2545, -0.2226562, 2.2545, -0.8505859, 2.2545, -0.0166016, , , , , , , , , , , , , , , , , , , , , , 
0.0872308, 0.0186313, 2.268, -0.3647461, 2.268, -0.7607422, 2.268, 0.1611328, 0.0872308, -0.0058747, 2.268, 0.4492188, 2.268, -0.7392578, 2.268, -0.0922852, 0.0872308, -0.008896, 2.268, 0.1362305, 2.268, -0.8505859, 2.268, 0.112793, 0.0872308, 0.0119173, 2.268, -0.2504883, 2.268, -0.8427734, 2.268, 0.0019531, , , , , , , , , , , , , , , , , , , , , , 
0.08775, 0.0238346, 2.2815, -0.359375, 2.2815, -0.7563477, 2.2815, 0.1601562, 0.08775, -0.0068818, 2.2815, 0.4487305, 2.2815, -0.7373047, 2.2815, -0.0927734, 0.08775, -0.0065461, 2.2815, 0.1499023, 2.2815, -0.8349609, 2.2815, 0.128418, 0.08775, 0.0095674, 2.2815, -0.2871094, 2.2815, -0.8330078, 2.2815, 0.019043, , , , , , , , , , , , , , , , , , , , , , 
0.0882692, 0.0310521, 2.295, -0.3564453, 2.295, -0.7504883, 2.295, 0.1689453, 0.0882692, -0.0082246, 2.295, 0.4433594, 2.295, -0.730957, 2.295, -0.0966797, 0.0882692, -0.0050355, 2.295, 0.1489258, 2.295, -0.8359375, 2.295, 0.1254883, 0.0882692, 0.0068818, 2.295, -0.3222656, 2.295, -0.8359375, 2.295, 0.0375977, , , , , , , , , , , , , , , , , , , , , , 
0.0887885, 0.033402, 2.3085, -0.3676758, 2.3085, -0.7539062, 2.3085, 0.1787109, 0.0887885, -0.008896, 2.3085, 0.4335938, 2.3085, -0.7460938, 2.3085, -0.1015625, 0.0887885, -0.0068818, 2.3085, 0.1435547, 2.3085, -0.871582, 2.3085, 0.1264648, 0.0887885, 0.0052033, 2.3085, -0.3535156, 2.3085, -0.8701172, 2.3085, 0.0551758, , , , , , , , , , , , , , , , , , , , , , 
0.0893077, 0.0276951, 2.322, -0.4077148, 2.322, -0.7807617, 2.322, 0.1787109, 0.0893077, -0.008896, 2.322, 0.4355469, 2.322, -0.777832, 2.322, -0.0981445, 0.0893077, -0.0078889, 2.322, 0.1391602, 2.322, -0.940918, 2.322, 0.1293945, 0.0893077, 0.0038605, 2.322, -0.387207, 2.322, -0.9272461, 2.322, 0.0673828, , , , , , , , , , , , , , , , , , , , , , 
0.0898269, 0.0263523, 2.3355, -0.4609375, 2.3355, -0.8222656, 2.3355, 0.1762695, 0.0898269, -0.008896, 2.3355, 0.4638672, 2.3355, -0.8227539, 2.3355, -0.0859375, 0.0898269, -0.0070497, 2.3355, 0.1293945, 2.3355, -0.9882812, 2.3355, 0.1323242, 0.0898269, 0.0052033, 2.3355, -0.4121094, 2.3355, -0.9990234, 2.3355, 0.0791016, , , , , , , , , , , , , , , , , , , , , , 
0.0903462, 0.0303807, 2.349, -0.519043, 2.349, -0.8813477, 2.349, 0.1777344, 0.0903462, -0.0107424, 2.349, 0.5039062, 2.349, -0.8886719, 2.349, -0.065918, 0.0903462, -0.0075532, 2.349, 0.1069336, 2.349, -1.0957031, 2.349, 0.1420898, 0.0903462, 0.0075532, 2.349, -0.4067383, 2.349, -1.0639648, 2.349, 0.081543, , , , , , , , , , , , , , , , , , , , , , 
0.0908654, 0.0344091, 2.3625, -0.543457, 2.3625, -0.9448242, 2.3625, 0.1708984, 0.0908654, -0.0109102, 2.3625, 0.5498047, 2.3625, -0.9628906, 2.3625, -0.0444336, 0.0908654, -0.0090639, 2.3625, 0.0917969, 2.3625, -1.1674805, 2.3625, 0.1489258, 0.0908654, 0.0078889, 2.3625, -0.3974609, 2.3625, -1.0927734, 2.3625, 0.0776367, , , , , , , , , , , , , , , , , , , , , , 
0.0913846, 0.036759, 2.376, -0.5229492, 2.376, -1.0073242, 2.376, 0.1762695, 0.0913846, -0.0075532, 2.376, 0.5722656, 2.376, -1.034668, 2.376, -0.0493164, 0.0913846, -0.0102388, 2.376, 0.105957, 2.376, -1.1967773, 2.376, 0.1474609, 0.0913846, 0.0068818, 2.376, -0.3964844, 2.376, -1.1450195, 2.376, 0.0698242, , , , , , , , , , , , , , , , , , , , , , 
0.0919038, 0.0381018, 2.3895, -0.4775391, 2.3895, -1.0571289, 2.3895, 0.1879883, 0.0919038, -0.0050355, 2.3895, 0.5649414, 2.3895, -1.0908203, 2.3895, -0.074707, 0.0919038, -0.0099031, 2.3895, 0.1254883, 2.3895, -1.2109375, 2.3895, 0.140625, 0.0919038, 0.0065461, 2.3895, -0.4052734, 2.3895, -1.175293, 2.3895, 0.0683594, , , , , , , , , , , , , , , , , , , , , , 
0.0924231, 0.036759, 2.403, -0.4428711, 2.403, -1.0766602, 2.403, 0.1938477, 0.0924231, -0.005539, 2.403, 0.5507812, 2.403, -1.1054688, 2.403, -0.0883789, 0.0924231, -0.0090639, 2.403, 0.1450195, 2.403, -1.1879883, 2.403, 0.128418, 0.0924231, 0.0072175, 2.403, -0.4208984, 2.403, -1.1708984, 2.403, 0.0791016, , , , , , , , , , , , , , , , , , , , , , 
0.0929423, 0.0347448, 2.4165, -0.4389648, 2.4165, -1.0698242, 2.4165, 0.1972656, 0.0929423, -0.0065461, 2.4165, 0.5151367, 2.4165, -1.1000977, 2.4165, -0.1171875, 0.0929423, -0.0090639, 2.4165, 0.1552734, 2.4165, -1.1616211, 2.4165, 0.1103516, 0.0929423, 0.0082246, 2.4165, -0.4345703, 2.4165, -1.1635742, 2.4165, 0.0883789, , , , , , , , , , , , , , , , , , , , , , 
0.0934615, 0.030045, 2.43, -0.4853516, 2.43, -1.0717773, 2.43, 0.1933594, 0.0934615, -0.0072175, 2.43, 0.4658203, 2.43, -1.0756836, 2.43, -0.1420898, 0.0934615, -0.0085603, 2.43, 0.1577148, 2.43, -1.1948242, 2.43, 0.0712891, 0.0934615, 0.0092317, 2.43, -0.4121094, 2.43, -1.2084961, 2.43, 0.0952148, , , , , , , , , , , , , , , , , , , , , , 
0.0939808, 0.0310521, 2.4435, -0.5258789, 2.4435, -1.0898438, 2.4435, 0.1855469, 0.0939808, -0.0099031, 2.4435, 0.4326172, 2.4435, -1.0795898, 2.4435, -0.1518555, 0.0939808, -0.0078889, 2.4435, 0.1489258, 2.4435, -1.2802734, 2.4435, 0.0170898, 0.0939808, 0.0095674, 2.4435, -0.3334961, 2.4435, -1.2714844, 2.4435, 0.0888672, , , , , , , , , , , , , , , , , , , , , , 
0.0945, 0.0387732, 2.457, -0.6054688, 2.457, -1.1601562, 2.457, 0.1469727, 0.0945, -0.011078, 2.457, 0.4575195, 2.457, -1.1303711, 2.457, -0.1235352, 0.0945, -0.0082246, 2.457, 0.1401367, 2.457, -1.324707, 2.457, -0.0097656, 0.0945, 0.0078889, 2.457, -0.2124023, 2.457, -1.3144531, 2.457, 0.0761719, , , , , , , , , , , , , , , , , , , , , , 
0.0950192, 0.0438087, 2.4705, -0.6230469, 2.4705, -1.2353516, 2.4705, 0.1142578, 0.0950192, -0.0102388, 2.4705, 0.5083008, 2.4705, -1.2207031, 2.4705, -0.0678711, 0.0950192, -0.0085603, 2.4705, 0.1289062, 2.4705, -1.3759766, 2.4705, -0.0449219, 0.0950192, 0.0035248, 2.4705, -0.1040039, 2.4705, -1.3266602, 2.4705, 0.0668945, , , , , , , , , , , , , , , , , , , , , , 
0.0955385, 0.0485084, 2.484, -0.5415039, 2.484, -1.2758789, 2.484, 0.1113281, 0.0955385, -0.0104067, 2.484, 0.5307617, 2.484, -1.2851562, 2.484, -0.0581055, 0.0955385, -0.0082246, 2.484, 0.1782227, 2.484, -1.3720703, 2.484, -0.065918, 0.0955385, -0.0015106, 2.484, -0.0625, 2.484, -1.3608398, 2.484, 0.0859375, , , , , , , , , , , , , , , , , , , , , , 
0.0960577, 0.0542153, 2.4975, -0.4272461, 2.4975, -1.3085938, 2.4975, 0.1376953, 0.0960577, -0.0097353, 2.4975, 0.5336914, 2.4975, -1.3325195, 2.4975, -0.0976562, 0.0960577, -0.008896, 2.4975, 0.300293, 2.4975, -1.4204102, 2.4975, -0.0688477, 0.0960577, -0.0028534, 2.4975, -0.0283203, 2.4975, -1.3930664, 2.4975, 0.1425781, , , , , , , , , , , , , , , , , , , , , , 
0.0965769, 0.056733, 2.511, -0.4111328, 2.511, -1.3706055, 2.511, 0.1445312, 0.0965769, -0.0099031, 2.511, 0.5576172, 2.511, -1.3828125, 2.511, -0.1069336, 0.0965769, -0.0095674, 2.511, 0.4208984, 2.511, -1.4487305, 2.511, -0.0341797, 0.0965769, -0.0030213, 2.511, -0.0253906, 2.511, -1.3486328, 2.511, 0.1757812, , , , , , , , , , , , , , , , , , , , , , 
0.0970962, 0.0527047, 2.5245, -0.3569336, 2.5245, -1.3334961, 2.5245, 0.0991211, 0.0970962, -0.0105745, 2.5245, 0.5708008, 2.5245, -1.3754883, 2.5245, -0.097168, 0.0970962, -0.0090639, 2.5245, 0.4858398, 2.5245, -1.2290039, 2.5245, -0.0131836, 0.0970962, -0.0031891, 2.5245, -0.0512695, 2.5245, -1.1552734, 2.5245, 0.2333984, , , , , , , , , , , , , , , , , , , , , , 
0.0976154, 0.0438087, 2.538, -0.1088867, 2.538, -1.1625977, 2.538, 0.097168, 0.0976154, -0.0095674, 2.538, 0.5185547, 2.538, -1.2138672, 2.538, -0.1308594, 0.0976154, -0.0102388, 2.538, 0.4951172, 2.538, -0.9267578, 2.538, -0.1279297, 0.0976154, -0.0015106, 2.538, -0.034668, 2.538, -0.9750977, 2.538, 0.2817383, , , , , , , , , , , , , , , , , , , , , , 
0.0981346, 0.0345769, 2.5515, 0.1513672, 2.5515, -0.984375, 2.5515, 0.1445312, 0.0981346, -0.005539, 2.5515, 0.3383789, 2.5515, -0.9643555, 2.5515, -0.2617188, 0.0981346, -0.012253, 2.5515, 0.4702148, 2.5515, -0.6982422, 2.5515, -0.3256836, 0.0981346, 0.0008392, 2.5515, 0.0654297, 2.5515, -0.8676758, 2.5515, 0.3178711, , , , , , , , , , , , , , , , , , , , , , 
0.0986538, 0.0251774, 2.565, 0.1738281, 2.565, -0.8588867, 2.565, 0.1577148, 0.0986538, -0.0025177, 2.565, 0.1386719, 2.565, -0.7583008, 2.565, -0.3920898, 0.0986538, -0.0139315, 2.565, 0.4204102, 2.565, -0.5849609, 2.565, -0.4770508, 0.0986538, 0.0028534, 2.565, 0.2050781, 2.565, -0.8173828, 2.565, 0.3183594, , , , , , , , , , , , , , , , , , , , , , 
0.0991731, 0.0105745, 2.5785, -0.0537109, 2.5785, -0.8271484, 2.5785, 0.1069336, 0.0991731, -0.0025177, 2.5785, 0.0180664, 2.5785, -0.6542969, 2.5785, -0.4736328, 0.0991731, -0.0139315, 2.5785, 0.3178711, 2.5785, -0.6411133, 2.5785, -0.5170898, 0.0991731, 0.0057069, 2.5785, 0.3046875, 2.5785, -0.8237305, 2.5785, 0.2763672, , , , , , , , , , , , , , , , , , , , , , 
0.0996923, -0.0005035, 2.592, -0.3266602, 2.592, -0.8876953, 2.592, 0.0258789, 0.0996923, -0.0035248, 2.592, -0.0180664, 2.592, -0.7001953, 2.592, -0.4291992, 0.0996923, -0.0130922, 2.592, 0.2524414, 2.592, -0.7304688, 2.592, -0.4931641, 0.0996923, 0.0102388, 2.592, 0.3056641, 2.592, -0.847168, 2.592, 0.1899414, , , , , , , , , , , , , , , , , , , , , , 
0.1002115, -0.0057069, 2.6055, -0.4458008, 2.6055, -0.9863281, 2.6055, -0.0126953, 0.1002115, -0.005539, 2.6055, -0.0102539, 2.6055, -0.8647461, 2.6055, -0.2822266, 0.1002115, -0.0109102, 2.6055, 0.159668, 2.6055, -0.9462891, 2.6055, -0.3862305, 0.1002115, 0.01561, 2.6055, 0.2495117, 2.6055, -0.8881836, 2.6055, 0.1279297, , , , , , , , , , , , , , , , , , , , , , 
0.1007308, -0.0125887, 2.619, -0.4208984, 2.619, -1.0307617, 2.619, -0.0170898, 0.1007308, -0.0072175, 2.619, 0.0654297, 2.619, -1.0087891, 2.619, -0.1430664, 0.1007308, -0.0095674, 2.619, 0.1713867, 2.619, -1.0605469, 2.619, -0.2856445, 0.1007308, 0.0219883, 2.619, 0.1777344, 2.619, -0.9775391, 2.619, 0.0864258, , , , , , , , , , , , , , , , , , , , , , 
0.10125, -0.023331, 2.6325, -0.293457, 2.6325, -1.0957031, 2.6325, 0.0083008, 0.10125, -0.0068818, 2.6325, 0.2246094, 2.6325, -1.0805664, 2.6325, -0.0834961, 0.10125, -0.0085603, 2.6325, 0.2456055, 2.6325, -1.046875, 2.6325, -0.2456055, 0.10125, 0.0280308, 2.6325, 0.1259766, 2.6325, -1.0419922, 2.6325, 0.074707, , , , , , , , , , , , , , , , , , , , , , 
0.1017692, -0.0303807, 2.646, -0.175293, 2.646, -1.1401367, 2.646, 0.0380859, 0.1017692, -0.0065461, 2.646, 0.4199219, 2.646, -1.1040039, 2.646, -0.0742188, 0.1017692, -0.0075532, 2.646, 0.3164062, 2.646, -1.0224609, 2.646, -0.2133789, 0.1017692, 0.0303807, 2.646, 0.1142578, 2.646, -1.03125, 2.646, 0.0878906, , , , , , , , , , , , , , , , , , , , , , 
0.1022885, -0.0330663, 2.6595, -0.1000977, 2.6595, -1.1367188, 2.6595, 0.0717773, 0.1022885, -0.005539, 2.6595, 0.4970703, 2.6595, -1.0917969, 2.6595, -0.078125, 0.1022885, -0.0050355, 2.6595, 0.3300781, 2.6595, -1.0029297, 2.6595, -0.1821289, 0.1022885, 0.03122, 2.6595, 0.1157227, 2.6595, -1.0029297, 2.6595, 0.1030273, , , , , , , , , , , , , , , , , , , , , , 
0.1028077, -0.0384375, 2.673, -0.0493164, 2.673, -1.0649414, 2.673, 0.1201172, 0.1028077, -0.0058747, 2.673, 0.5683594, 2.673, -1.0180664, 2.673, -0.1083984, 0.1028077, -0.0035248, 2.673, 0.3256836, 2.673, -0.9575195, 2.673, -0.1572266, 0.1028077, 0.0354162, 2.673, 0.0913086, 2.673, -0.9399414, 2.673, 0.1401367, , , , , , , , , , , , , , , , , , , , , , 
0.1033269, -0.0431373, 2.6865, -0.0327148, 2.6865, -0.9521484, 2.6865, 0.152832, 0.1033269, -0.0068818, 2.6865, 0.5146484, 2.6865, -0.9023438, 2.6865, -0.1845703, 0.1033269, -0.0028534, 2.6865, 0.3383789, 2.6865, -0.8901367, 2.6865, -0.1230469, 0.1033269, 0.0399481, 2.6865, 0.0415039, 2.6865, -0.890625, 2.6865, 0.168457, , , , , , , , , , , , , , , , , , , , , , 
0.1038462, -0.0431373, 2.7, -0.0922852, 2.7, -0.8535156, 2.7, 0.1845703, 0.1038462, -0.0082246, 2.7, 0.3911133, 2.7, -0.800293, 2.7, -0.2680664, 0.1038462, -0.003357, 2.7, 0.3544922, 2.7, -0.824707, 2.7, -0.074707, 0.1038462, 0.0421302, 2.7, 0.0078125, 2.7, -0.8583984, 2.7, 0.1650391, , , , , , , , , , , , , , , , , , , , , , 
0.1043654, -0.0320592, 2.7135, -0.1977539, 2.7135, -0.7841797, 2.7135, 0.2060547, 0.1043654, -0.0099031, 2.7135, 0.2915039, 2.7135, -0.7329102, 2.7135, -0.315918, 0.1043654, -0.0031891, 2.7135, 0.3544922, 2.7135, -0.78125, 2.7135, -0.0195312, 0.1043654, 0.0411231, 2.7135, -0.0161133, 2.7135, -0.8276367, 2.7135, 0.1508789, , , , , , , , , , , , , , , , , , , , , , 
0.1048846, -0.0142672, 2.727, -0.2929688, 2.727, -0.7392578, 2.727, 0.2177734, 0.1048846, -0.0092317, 2.727, 0.2509766, 2.727, -0.684082, 2.727, -0.3203125, 0.1048846, -0.0045319, 2.727, 0.3510742, 2.727, -0.7709961, 2.727, 0.0058594, 0.1048846, 0.0370947, 2.727, -0.0751953, 2.727, -0.7993164, 2.727, 0.1513672, , , , , , , , , , , , , , , , , , , , , , 
0.1054038, -0.0031891, 2.7405, -0.3510742, 2.7405, -0.7075195, 2.7405, 0.2285156, 0.1054038, -0.0095674, 2.7405, 0.2583008, 2.7405, -0.6621094, 2.7405, -0.2924805, 0.1054038, -0.0062104, 2.7405, 0.3256836, 2.7405, -0.7734375, 2.7405, 0.0449219, 0.1054038, 0.0303807, 2.7405, -0.1743164, 2.7405, -0.7744141, 2.7405, 0.1586914, , , , , , , , , , , , , , , , , , , , , , 
0.1059231, 0.002182, 2.754, -0.3583984, 2.754, -0.690918, 2.754, 0.2358398, 0.1059231, -0.0095674, 2.754, 0.3105469, 2.754, -0.6606445, 2.754, -0.2441406, 0.1059231, -0.005539, 2.754, 0.2685547, 2.754, -0.784668, 2.754, 0.0634766, 0.1059231, 0.0224918, 2.754, -0.2827148, 2.754, -0.7524414, 2.754, 0.1762695, , , , , , , , , , , , , , , , , , , , , , 
0.1064423, 0.0092317, 2.7675, -0.3359375, 2.7675, -0.6850586, 2.7675, 0.2480469, 0.1064423, -0.0082246, 2.7675, 0.3847656, 2.7675, -0.6723633, 2.7675, -0.1967773, 0.1064423, -0.0038605, 2.7675, 0.1972656, 2.7675, -0.7939453, 2.7675, 0.0751953, 0.1064423, 0.0176242, 2.7675, -0.3574219, 2.7675, -0.7397461, 2.7675, 0.2021484, , , , , , , , , , , , , , , , , , , , , , 
0.1069615, 0.0166171, 2.781, -0.3217773, 2.781, -0.6850586, 2.781, 0.2573242, 0.1069615, -0.0078889, 2.781, 0.4213867, 2.781, -0.6738281, 2.781, -0.1860352, 0.1069615, -0.005539, 2.781, 0.1450195, 2.781, -0.793457, 2.781, 0.0834961, 0.1069615, 0.0152743, 2.781, -0.3945312, 2.781, -0.7329102, 2.781, 0.2275391, , , , , , , , , , , , , , , , , , , , , , 
0.1074808, 0.0223239, 2.7945, -0.3017578, 2.7945, -0.6835938, 2.7945, 0.2783203, 0.1074808, -0.008896, 2.7945, 0.4824219, 2.7945, -0.6586914, 2.7945, -0.1835938, 0.1074808, -0.0082246, 2.7945, 0.1352539, 2.7945, -0.7915039, 2.7945, 0.1015625, 0.1074808, 0.0152743, 2.7945, -0.3930664, 2.7945, -0.7329102, 2.7945, 0.2353516, , , , , , , , , , , , , , , , , , , , , , 
0.108, 0.023331, 2.808, -0.3032227, 2.808, -0.6791992, 2.808, 0.2963867, 0.108, -0.0095674, 2.808, 0.5048828, 2.808, -0.6459961, 2.808, -0.1992188, 0.108, -0.0082246, 2.808, 0.171875, 2.808, -0.7910156, 2.808, 0.1166992, 0.108, 0.0149386, 2.808, -0.375, 2.808, -0.7402344, 2.808, 0.2314453, , , , , , , , , , , , , , , , , , , , , , 
0.1085192, 0.0213169, 2.8215, -0.3144531, 2.8215, -0.6777344, 2.8215, 0.3100586, 0.1085192, -0.0085603, 2.8215, 0.4985352, 2.8215, -0.6459961, 2.8215, -0.2207031, 0.1085192, -0.0077211, 2.8215, 0.2197266, 2.8215, -0.7988281, 2.8215, 0.1293945, 0.1085192, 0.0115816, 2.8215, -0.3666992, 2.8215, -0.7495117, 2.8215, 0.2246094, , , , , , , , , , , , , , , , , , , , , , 
0.1090385, 0.0213169, 2.835, -0.328125, 2.835, -0.6787109, 2.835, 0.3237305, 0.1090385, -0.0090639, 2.835, 0.4873047, 2.835, -0.6538086, 2.835, -0.234375, 0.1090385, -0.0083925, 2.835, 0.2543945, 2.835, -0.8134766, 2.835, 0.1450195, 0.1090385, 0.0092317, 2.835, -0.3491211, 2.835, -0.7666016, 2.835, 0.2109375, , , , , , , , , , , , , , , , , , , , , , 
0.1095577, 0.0253452, 2.8485, -0.3325195, 2.8485, -0.6865234, 2.8485, 0.3256836, 0.1095577, -0.0104067, 2.8485, 0.4873047, 2.8485, -0.6625977, 2.8485, -0.2368164, 0.1095577, -0.0105745, 2.8485, 0.2661133, 2.8485, -0.8188477, 2.8485, 0.1503906, 0.1095577, 0.0090639, 2.8485, -0.3334961, 2.8485, -0.7724609, 2.8485, 0.2055664, , , , , , , , , , , , , , , , , , , , , , 
0.1100769, 0.0297093, 2.862, -0.3320312, 2.862, -0.6943359, 2.862, 0.3310547, 0.1100769, -0.0115816, 2.862, 0.4931641, 2.862, -0.6665039, 2.862, -0.2333984, 0.1100769, -0.012253, 2.862, 0.2802734, 2.862, -0.8173828, 2.862, 0.1523438, 0.1100769, 0.0092317, 2.862, -0.3212891, 2.862, -0.7729492, 2.862, 0.2133789, , , , , , , , , , , , , , , , , , , , , , 
0.1105962, 0.0307164, 2.8755, -0.3349609, 2.8755, -0.7016602, 2.8755, 0.3378906, 0.1105962, -0.0112459, 2.8755, 0.4975586, 2.8755, -0.6743164, 2.8755, -0.2299805, 0.1105962, -0.0115816, 2.8755, 0.2949219, 2.8755, -0.8154297, 2.8755, 0.1430664, 0.1105962, 0.0077211, 2.8755, -0.3120117, 2.8755, -0.7788086, 2.8755, 0.2265625, , , , , , , , , , , , , , , , , , , , , , 
0.1111154, 0.0287022, 2.889, -0.3500977, 2.889, -0.7055664, 2.889, 0.3378906, 0.1111154, -0.008896, 2.889, 0.5019531, 2.889, -0.6806641, 2.889, -0.2299805, 0.1111154, -0.0099031, 2.889, 0.3056641, 2.889, -0.8203125, 2.889, 0.1386719, 0.1111154, 0.0052033, 2.889, -0.3066406, 2.889, -0.7875977, 2.889, 0.2348633, , , , , , , , , , , , , , , , , , , , , , 
0.1116346, 0.0270237, 2.9025, -0.3642578, 2.9025, -0.7128906, 2.9025, 0.3398438, 0.1116346, -0.0075532, 2.9025, 0.5073242, 2.9025, -0.6865234, 2.9025, -0.2270508, 0.1116346, -0.0075532, 2.9025, 0.3115234, 2.9025, -0.8378906, 2.9025, 0.1347656, 0.1116346, 0.0052033, 2.9025, -0.3056641, 2.9025, -0.7988281, 2.9025, 0.2426758, , , , , , , , , , , , , , , , , , , , , , 
0.1121538, 0.0253452, 2.916, -0.3691406, 2.916, -0.7211914, 2.916, 0.3452148, 0.1121538, -0.008896, 2.916, 0.5146484, 2.916, -0.7080078, 2.916, -0.2148438, 0.1121538, -0.0075532, 2.916, 0.3227539, 2.916, -0.8662109, 2.916, 0.137207, 0.1121538, 0.0068818, 2.916, -0.3056641, 2.916, -0.8217773, 2.916, 0.25, , , , , , , , , , , , , , , , , , , , , , 
0.1126731, 0.0240024, 2.9295, -0.3857422, 2.9295, -0.7456055, 2.9295, 0.3374023, 0.1126731, -0.0085603, 2.9295, 0.5224609, 2.9295, -0.722168, 2.9295, -0.2133789, 0.1126731, -0.0102388, 2.9295, 0.3349609, 2.9295, -0.8920898, 2.9295, 0.1293945, 0.1126731, 0.0090639, 2.9295, -0.3017578, 2.9295, -0.8540039, 2.9295, 0.2539062, , , , , , , , , , , , , , , , , , , , , , 
0.1131923, 0.026688, 2.943, -0.4135742, 2.943, -0.7788086, 2.943, 0.3310547, 0.1131923, -0.0077211, 2.943, 0.5327148, 2.943, -0.7456055, 2.943, -0.2114258, 0.1131923, -0.0115816, 2.943, 0.3310547, 2.943, -0.9233398, 2.943, 0.1147461, 0.1131923, 0.0083925, 2.943, -0.2983398, 2.943, -0.871582, 2.943, 0.2519531, , , , , , , , , , , , , , , , , , , , , , 
0.1137115, 0.0276951, 2.9565, -0.4248047, 2.9565, -0.7963867, 2.9565, 0.3320312, 0.1137115, -0.0075532, 2.9565, 0.5512695, 2.9565, -0.7827148, 2.9565, -0.2001953, 0.1137115, -0.0095674, 2.9565, 0.3134766, 2.9565, -0.9580078, 2.9565, 0.0947266, 0.1137115, 0.0072175, 2.9565, -0.2963867, 2.9565, -0.9057617, 2.9565, 0.2514648, , , , , , , , , , , , , , , , , , , , , , 
0.1142308, 0.0317235, 2.97, -0.4355469, 2.97, -0.8286133, 2.97, 0.3354492, 0.1142308, -0.0090639, 2.97, 0.5644531, 2.97, -0.8212891, 2.97, -0.1904297, 0.1142308, -0.008896, 2.97, 0.2949219, 2.97, -1.0053711, 2.97, 0.0766602, 0.1142308, 0.0052033, 2.97, -0.2939453, 2.97, -0.9291992, 2.97, 0.2514648, , , , , , , , , , , , , , , , , , , , , , 
0.11475, 0.0412909, 2.9835, -0.440918, 2.9835, -0.8676758, 2.9835, 0.3325195, 0.11475, -0.0095674, 2.9835, 0.5800781, 2.9835, -0.8647461, 2.9835, -0.1826172, 0.11475, -0.0092317, 2.9835, 0.2905273, 2.9835, -1.0327148, 2.9835, 0.0703125, 0.11475, -0.0015106, 2.9835, -0.2875977, 2.9835, -0.9785156, 2.9835, 0.253418, , , , , , , , , , , , , , , , , , , , , , 
0.1152692, 0.0515297, 2.997, -0.449707, 2.997, -0.9179688, 2.997, 0.3144531, 0.1152692, -0.0068818, 2.997, 0.6020508, 2.997, -0.9135742, 2.997, -0.1674805, 0.1152692, -0.0109102, 2.997, 0.2827148, 2.997, -1.0795898, 2.997, 0.0678711, 0.1152692, -0.0082246, 2.997, -0.2822266, 2.997, -1.0136719, 2.997, 0.2470703, , , , , , , , , , , , , , , , , , , , , , 
0.1157885, 0.0582437, 3.0105, -0.4511719, 3.0105, -0.9711914, 3.0105, 0.2915039, 0.1157885, -0.005539, 3.0105, 0.6108398, 3.0105, -0.9609375, 3.0105, -0.1508789, 0.1157885, -0.011078, 3.0105, 0.28125, 3.0105, -1.1025391, 3.0105, 0.0620117, 0.1157885, -0.0135958, 3.0105, -0.2636719, 3.0105, -1.0297852, 3.0105, 0.2363281, , , , , , , , , , , , , , , , , , , , , , 
0.1163077, 0.054551, 3.024, -0.4326172, 3.024, -1.0043945, 3.024, 0.277832, 0.1163077, -0.0062104, 3.024, 0.605957, 3.024, -0.9780273, 3.024, -0.1499023, 0.1163077, -0.0125887, 3.024, 0.293457, 3.024, -1.1020508, 3.024, 0.0336914, 0.1163077, -0.0142672, 3.024, -0.2358398, 3.024, -1.0541992, 3.024, 0.2299805, , , , , , , , , , , , , , , , , , , , , , 
0.1168269, 0.0458228, 3.0375, -0.4125977, 3.0375, -1.0307617, 3.0375, 0.2792969, 0.1168269, -0.0073854, 3.0375, 0.5717773, 3.0375, -1.0068359, 3.0375, -0.1660156, 0.1168269, -0.0129244, 3.0375, 0.3125, 3.0375, -1.1088867, 3.0375, 0.0058594, 0.1168269, -0.0129244, 3.0375, -0.2143555, 3.0375, -1.0859375, 3.0375, 0.2270508, , , , , , , , , , , , , , , , , , , , , , 
0.1173462, 0.0381018, 3.051, -0.4145508, 3.051, -1.0532227, 3.051, 0.2807617, 0.1173462, -0.0052033, 3.051, 0.5419922, 3.051, -1.0332031, 3.051, -0.1894531, 0.1173462, -0.0135958, 3.051, 0.3359375, 3.051, -1.1342773, 3.051, 0.0131836, 0.1173462, -0.0105745, 3.051, -0.21875, 3.051, -1.1186523, 3.051, 0.2260742, , , , , , , , , , , , , , , , , , , , , , 
0.1178654, 0.0327306, 3.0645, -0.440918, 3.0645, -1.0761719, 3.0645, 0.2773438, 0.1178654, -0.0048676, 3.0645, 0.5336914, 3.0645, -1.0634766, 3.0645, -0.2016602, 0.1178654, -0.0129244, 3.0645, 0.3491211, 3.0645, -1.1748047, 3.0645, 0.0488281, 0.1178654, -0.0058747, 3.0645, -0.2460938, 3.0645, -1.1450195, 3.0645, 0.2275391, , , , , , , , , , , , , , , , , , , , , , 
0.1183846, 0.023331, 3.078, -0.46875, 3.078, -1.0942383, 3.078, 0.2753906, 0.1183846, -0.0057069, 3.078, 0.5400391, 3.078, -1.0932617, 3.078, -0.1943359, 0.1183846, -0.0095674, 3.078, 0.3447266, 3.078, -1.2026367, 3.078, 0.0888672, 0.1183846, -0.0011749, 3.078, -0.2890625, 3.078, -1.1757812, 3.078, 0.2177734, , , , , , , , , , , , , , , , , , , , , , 
0.1189038, 0.0146029, 3.0915, -0.5029297, 3.0915, -1.1171875, 3.0915, 0.2792969, 0.1189038, -0.0060426, 3.0915, 0.546875, 3.0915, -1.1210938, 3.0915, -0.1816406, 0.1189038, -0.0075532, 3.0915, 0.3427734, 3.0915, -1.2529297, 3.0915, 0.1064453, 0.1189038, 0.0001678, 3.0915, -0.3427734, 3.0915, -1.2495117, 3.0915, 0.1923828, , , , , , , , , , , , , , , , , , , , , , 
0.1194231, 0.0072175, 3.105, -0.565918, 3.105, -1.1635742, 3.105, 0.2714844, 0.1194231, -0.0063783, 3.105, 0.5703125, 3.105, -1.1679688, 3.105, -0.1635742, 0.1194231, -0.0085603, 3.105, 0.3056641, 3.105, -1.3271484, 3.105, 0.1079102, 0.1194231, 0.0036927, 3.105, -0.3603516, 3.105, -1.2954102, 3.105, 0.1669922, , , , , , , , , , , , , , , , , , , , , , 
0.1199423, -0.0018463, 3.1185, -0.6005859, 3.1185, -1.184082, 3.1185, 0.2553711, 0.1199423, -0.005539, 3.1185, 0.6108398, 3.1185, -1.2021484, 3.1185, -0.1191406, 0.1199423, -0.0102388, 3.1185, 0.2573242, 3.1185, -1.3251953, 3.1185, 0.1040039, 0.1199423, 0.0092317, 3.1185, -0.3447266, 3.1185, -1.2685547, 3.1185, 0.1513672, , , , , , , , , , , , , , , , , , , , , , 
0.1204615, -0.0109102, 3.132, -0.5766602, 3.132, -1.1616211, 3.132, 0.2138672, 0.1204615, -0.0041962, 3.132, 0.5996094, 3.132, -1.1289062, 3.132, -0.0942383, 0.1204615, -0.0105745, 3.132, 0.1264648, 3.132, -1.1884766, 3.132, 0.0698242, 0.1204615, 0.0157778, 3.132, -0.2895508, 3.132, -1.1245117, 3.132, 0.1152344, , , , , , , , , , , , , , , , , , , , , , 
0.1209808, -0.021149, 3.1455, -0.3701172, 3.1455, -1.0175781, 3.1455, 0.1831055, 0.1209808, -0.0036927, 3.1455, 0.5473633, 3.1455, -1.0390625, 3.1455, -0.1201172, 0.1209808, -0.0078889, 3.1455, 0.0454102, 3.1455, -0.9580078, 3.1455, -0.0268555, 0.1209808, 0.0216526, 3.1455, -0.2255859, 3.1455, -0.9780273, 3.1455, 0.0830078, , , , , , , , , , , , , , , , , , , , , , 
0.1215, -0.0313878, 3.159, -0.1411133, 3.159, -0.8588867, 3.159, 0.1962891, 0.1215, -0.0028534, 3.159, 0.3588867, 3.159, -0.8417969, 3.159, -0.2182617, 0.1215, -0.0046998, 3.159, 0.059082, 3.159, -0.7758789, 3.159, -0.1391602, 0.1215, 0.0271916, 3.159, -0.1953125, 3.159, -0.9121094, 3.159, 0.0664062, , , , , , , , , , , , , , , , , , , , , , 
0.1220192, -0.0407874, 3.1725, -0.1616211, 3.1725, -0.7827148, 3.1725, 0.2226562, 0.1220192, -0.0035248, 3.1725, 0.1679688, 3.1725, -0.7236328, 3.1725, -0.2988281, 0.1220192, -0.002182, 3.1725, 0.1098633, 3.1725, -0.7470703, 3.1725, -0.1987305, 0.1220192, 0.0310521, 3.1725, -0.2109375, 3.1725, -0.9394531, 3.1725, 0.027832, , , , , , , , , , , , , , , , , , , , , , 
0.1225385, -0.0493477, 3.186, -0.4731445, 3.186, -0.8334961, 3.186, 0.1621094, 0.1225385, -0.0045319, 3.186, 0.1157227, 3.186, -0.7333984, 3.186, -0.300293, 0.1225385, -0.0035248, 3.186, 0.0751953, 3.186, -0.9257812, 3.186, -0.1689453, 0.1225385, 0.0337377, 3.186, -0.2211914, 3.186, -1.0170898, 3.186, -0.0195312, , , , , , , , , , , , , , , , , , , , , , 
0.1230577, -0.0508583, 3.1995, -0.8046875, 3.1995, -0.9580078, 3.1995, 0.043457, 0.1230577, -0.0068818, 3.1995, 0.2363281, 3.1995, -0.8720703, 3.1995, -0.1464844, 0.1230577, -0.0041962, 3.1995, -0.0444336, 3.1995, -1.1967773, 3.1995, -0.1040039, 0.1230577, 0.0365911, 3.1995, -0.1894531, 3.1995, -1.1010742, 3.1995, -0.0546875, , , , , , , , , , , , , , , , , , , , , , 
0.1235769, -0.0454871, 3.213, -0.8964844, 3.213, -1.065918, 3.213, -0.0239258, 0.1235769, -0.0073854, 3.213, 0.4130859, 3.213, -1.0458984, 3.213, 0.0517578, 0.1235769, -0.0005035, 3.213, -0.1357422, 3.213, -1.3735352, 3.213, -0.1118164, 0.1235769, 0.0394446, 3.213, -0.0917969, 3.213, -1.1713867, 3.213, -0.0551758, , , , , , , , , , , , , , , , , , , , , , 
0.1240962, -0.0387732, 3.2265, -0.7094727, 3.2265, -1.1308594, 3.2265, -0.0048828, 0.1240962, -0.0082246, 3.2265, 0.5673828, 3.2265, -1.1435547, 3.2265, 0.1269531, 0.1240962, 0.002182, 3.2265, -0.0673828, 3.2265, -1.3466797, 3.2265, -0.1879883, 0.1240962, 0.0407874, 3.2265, 0.0410156, 3.2265, -1.1875, 3.2265, -0.0493164, , , , , , , , , , , , , , , , , , , , , , 
0.1246154, -0.03122, 3.24, -0.394043, 3.24, -1.1416016, 3.24, 0.034668, 0.1246154, -0.0075532, 3.24, 0.6772461, 3.24, -1.1386719, 3.24, 0.0927734, 0.1246154, 0.002182, 3.24, 0.0249023, 3.24, -1.2802734, 3.24, -0.2226562, 0.1246154, 0.0387732, 3.24, 0.1357422, 3.24, -1.1508789, 3.24, -0.0537109, , , , , , , , , , , , , , , , , , , , , , 
0.1251346, -0.01561, 3.2535, -0.1391602, 3.2535, -1.1025391, 3.2535, 0.0517578, 0.1251346, -0.0082246, 3.2535, 0.6938477, 3.2535, -1.0688477, 3.2535, 0.0263672, 0.1251346, -0.0010071, 3.2535, 0.2470703, 3.2535, -1.1435547, 3.2535, -0.2290039, 0.1251346, 0.0340734, 3.2535, 0.1542969, 3.2535, -1.0791016, 3.2535, -0.046875, , , , , , , , , , , , , , , , , , , , , , 
0.1256538, -0.0018463, 3.267, -0.074707, 3.267, -1.0429688, 3.267, 0.0610352, 0.1256538, -0.0109102, 3.267, 0.6479492, 3.267, -1.0317383, 3.267, -0.0048828, 0.1256538, -0.0038605, 3.267, 0.3994141, 3.267, -1.0351562, 3.267, -0.1767578, 0.1256538, 0.0271916, 3.267, 0.1435547, 3.267, -1.0400391, 3.267, -0.027832, , , , , , , , , , , , , , , , , , , , , , 
0.1261731, 0.0085603, 3.2805, -0.1035156, 3.2805, -1.012207, 3.2805, 0.059082, 0.1261731, -0.0129244, 3.2805, 0.4794922, 3.2805, -0.9624023, 3.2805, -0.0551758, 0.1261731, -0.0068818, 3.2805, 0.4145508, 3.2805, -0.9272461, 3.2805, -0.1318359, 0.1261731, 0.0199741, 3.2805, 0.1337891, 3.2805, -0.9741211, 3.2805, 0.0180664, , , , , , , , , , , , , , , , , , , , , , 
0.1266923, 0.0166171, 3.294, -0.199707, 3.294, -0.9462891, 3.294, 0.0410156, 0.1266923, -0.0115816, 3.294, 0.2817383, 3.294, -0.8979492, 3.294, -0.1098633, 0.1266923, -0.0092317, 3.294, 0.3466797, 3.294, -0.8369141, 3.294, -0.1269531, 0.1266923, 0.0132601, 3.294, 0.1040039, 3.294, -0.9277344, 3.294, 0.0429688, , , , , , , , , , , , , , , , , , , , , , 
0.1272115, 0.0226596, 3.3075, -0.2788086, 3.3075, -0.8935547, 3.3075, 0.0336914, 0.1272115, -0.008896, 3.3075, 0.1523438, 3.3075, -0.8486328, 3.3075, -0.1704102, 0.1272115, -0.008896, 3.3075, 0.2338867, 3.3075, -0.7875977, 3.3075, -0.1420898, 0.1272115, 0.0085603, 3.3075, 0.0268555, 3.3075, -0.8881836, 3.3075, 0.0566406, , , , , , , , , , , , , , , , , , , , , , 
0.1277308, 0.0263523, 3.321, -0.3100586, 3.321, -0.8515625, 3.321, 0.0336914, 0.1277308, -0.0068818, 3.321, 0.1000977, 3.321, -0.8076172, 3.321, -0.190918, 0.1277308, -0.0070497, 3.321, 0.1108398, 3.321, -0.7773438, 3.321, -0.1567383, 0.1277308, 0.0058747, 3.321, -0.0605469, 3.321, -0.8422852, 3.321, 0.0678711, , , , , , , , , , , , , , , , , , , , , , 
0.12825, 0.0320592, 3.3345, -0.3061523, 3.3345, -0.824707, 3.3345, 0.0273438, 0.12825, -0.005539, 3.3345, 0.1245117, 3.3345, -0.7680664, 3.3345, -0.1635742, 0.12825, -0.0083925, 3.3345, 0.0195312, 3.3345, -0.7866211, 3.3345, -0.1591797, 0.12825, 0.003357, 3.3345, -0.1000977, 3.3345, -0.8051758, 3.3345, 0.0605469, , , , , , , , , , , , , , , , , , , , , , 
0.1287692, 0.0374304, 3.348, -0.2841797, 3.348, -0.8046875, 3.348, 0.0317383, 0.1287692, -0.0052033, 3.348, 0.1835938, 3.348, -0.7470703, 3.348, -0.1303711, 0.1287692, -0.0109102, 3.348, -0.0161133, 3.348, -0.7880859, 3.348, -0.1557617, 0.1287692, 0.0001678, 3.348, -0.0795898, 3.348, -0.7895508, 3.348, 0.0380859, , , , , , , , , , , , , , , , , , , , , , 
0.1292885, 0.0419623, 3.3615, -0.2558594, 3.3615, -0.7753906, 3.3615, 0.0302734, 0.1292885, -0.005539, 3.3615, 0.2480469, 3.3615, -0.7304688, 3.3615, -0.1010742, 0.1292885, -0.0119173, 3.3615, 0.0087891, 3.3615, -0.7592773, 3.3615, -0.1518555, 0.1292885, -0.0015106, 3.3615, -0.03125, 3.3615, -0.7822266, 3.3615, 0.0117188, , , , , , , , , , , , , , , , , , , , , , 
0.1298077, 0.0414588, 3.375, -0.2216797, 3.375, -0.7495117, 3.375, 0.0351562, 0.1298077, -0.005539, 3.375, 0.2924805, 3.375, -0.7114258, 3.375, -0.0825195, 0.1298077, -0.0112459, 3.375, 0.0405273, 3.375, -0.7416992, 3.375, -0.152832, 0.1298077, -0.0005035, 3.375, 0.0063477, 3.375, -0.7617188, 3.375, -0.0112305, , , , , , , , , , , , , , , , , , , , , , 
0.1303269, 0.0370947, 3.3885, -0.1962891, 3.3885, -0.7246094, 3.3885, 0.0361328, 0.1303269, -0.005539, 3.3885, 0.2983398, 3.3885, -0.6987305, 3.3885, -0.0766602, 0.1303269, -0.0102388, 3.3885, 0.109375, 3.3885, -0.7192383, 3.3885, -0.1352539, 0.1303269, -0.0011749, 3.3885, 0.0307617, 3.3885, -0.7333984, 3.3885, -0.0268555, , , , , , , , , , , , , , , , , , , , , , 
0.1308462, 0.0327306, 3.402, -0.1801758, 3.402, -0.7089844, 3.402, 0.0327148, 0.1308462, -0.0050355, 3.402, 0.2954102, 3.402, -0.671875, 3.402, -0.0727539, 0.1308462, -0.0099031, 3.402, 0.1772461, 3.402, -0.703125, 3.402, -0.1030273, 0.1308462, -0.0015106, 3.402, 0.0512695, 3.402, -0.7216797, 3.402, -0.0371094, , , , , , , , , , , , , , , , , , , , , , 
0.1313654, 0.0317235, 3.4155, -0.1889648, 3.4155, -0.7075195, 3.4155, 0.0288086, 0.1313654, -0.0035248, 3.4155, 0.2797852, 3.4155, -0.6640625, 3.4155, -0.0771484, 0.1313654, -0.0115816, 3.4155, 0.2177734, 3.4155, -0.7026367, 3.4155, -0.0644531, 0.1313654, -0.0001678, 3.4155, 0.0620117, 3.4155, -0.7255859, 3.4155, -0.0415039, , , , , , , , , , , , , , , , , , , , , , 
0.1318846, 0.0318914, 3.429, -0.2124023, 3.429, -0.7099609, 3.429, 0.0195312, 0.1318846, -0.0028534, 3.429, 0.265625, 3.429, -0.6704102, 3.429, -0.0712891, 0.1318846, -0.012253, 3.429, 0.2172852, 3.429, -0.7138672, 3.429, -0.0439453, 0.1318846, 0.0011749, 3.429, 0.0600586, 3.429, -0.7324219, 3.429, -0.0410156, , , , , , , , , , , , , , , , , , , , , , 
0.1324038, 0.0287022, 3.4425, -0.2329102, 3.4425, -0.7080078, 3.4425, 0.0136719, 0.1324038, -0.0035248, 3.4425, 0.2548828, 3.4425, -0.6757812, 3.4425, -0.0683594, 0.1324038, -0.0117494, 3.4425, 0.1767578, 3.4425, -0.7270508, 3.4425, -0.0522461, 0.1324038, 0.0005035, 3.4425, 0.0419922, 3.4425, -0.7421875, 3.4425, -0.0341797, , , , , , , , , , , , , , , , , , , , , , 
0.1329231, 0.0280308, 3.456, -0.2412109, 3.456, -0.7050781, 3.456, 0.0170898, 0.1329231, -0.0068818, 3.456, 0.2416992, 3.456, -0.671875, 3.456, -0.0673828, 0.1329231, -0.0112459, 3.456, 0.1289062, 3.456, -0.7280273, 3.456, -0.0678711, 0.1329231, 0.0015106, 3.456, 0.0146484, 3.456, -0.7456055, 3.456, -0.0205078, , , , , , , , , , , , , , , , , , , , , , 
0.1334423, 0.0283665, 3.4695, -0.2539062, 3.4695, -0.6977539, 3.4695, 0.0249023, 0.1334423, -0.0095674, 3.4695, 0.2255859, 3.4695, -0.6694336, 3.4695, -0.0776367, 0.1334423, -0.0115816, 3.4695, 0.0874023, 3.4695, -0.7211914, 3.4695, -0.0766602, 0.1334423, 0.0045319, 3.4695, -0.034668, 3.4695, -0.7421875, 3.4695, -0.0053711, , , , , , , , , , , , , , , , , , , , , , 
0.1339615, 0.0263523, 3.483, -0.2592773, 3.483, -0.7109375, 3.483, 0.034668, 0.1339615, -0.0104067, 3.483, 0.2275391, 3.483, -0.6821289, 3.483, -0.0917969, 0.1339615, -0.0124208, 3.483, 0.0717773, 3.483, -0.7382812, 3.483, -0.0712891, 0.1339615, 0.0045319, 3.483, -0.0810547, 3.483, -0.7539062, 3.483, 0.0014648, , , , , , , , , , , , , , , , , , , , , , 
0.1344808, 0.033402, 3.4965, -0.2685547, 3.4965, -0.7436523, 3.4965, 0.0395508, 0.1344808, -0.0090639, 3.4965, 0.2426758, 3.4965, -0.7163086, 3.4965, -0.0878906, 0.1344808, -0.0149386, 3.4965, 0.081543, 3.4965, -0.7866211, 3.4965, -0.0678711, 0.1344808, 0.0011749, 3.4965, -0.1005859, 3.4965, -0.784668, 3.4965, -0.0063477, , , , , , , , , , , , , , , , , , , , , , 
0.135, 0.0475013, 3.51, -0.3027344, 3.51, -0.7866211, 3.51, 0.0410156, 0.135, -0.008896, 3.51, 0.2553711, 3.51, -0.7412109, 3.51, -0.081543, 0.135, -0.0146029, 3.51, 0.0844727, 3.51, -0.8251953, 3.51, -0.0683594, 0.135, -0.0035248, 3.51, -0.09375, 3.51, -0.8544922, 3.51, -0.0253906, , , , , , , , , , , , , , , , , , , , , , 
0.1355192, 0.0533761, 3.5235, -0.3549805, 3.5235, -0.8422852, 3.5235, 0.0444336, 0.1355192, -0.0082246, 3.5235, 0.2841797, 3.5235, -0.8027344, 3.5235, -0.0771484, 0.1355192, -0.0142672, 3.5235, 0.0737305, 3.5235, -0.9121094, 3.5235, -0.0693359, 0.1355192, -0.008896, 3.5235, -0.078125, 3.5235, -0.9526367, 3.5235, -0.0336914, , , , , , , , , , , , , , , , , , , , , , 
0.1360385, 0.0540475, 3.537, -0.4033203, 3.537, -0.9101562, 3.537, 0.0615234, 0.1360385, -0.0083925, 3.537, 0.3071289, 3.537, -0.8745117, 3.537, -0.0786133, 0.1360385, -0.014435, 3.537, 0.0625, 3.537, -1.0048828, 3.537, -0.0649414, 0.1360385, -0.0090639, 3.537, -0.0610352, 3.537, -1.0595703, 3.537, -0.0302734, , , , , , , , , , , , , , , , , , , , , , 
0.1365577, 0.0535439, 3.5505, -0.4345703, 3.5505, -0.9790039, 3.5505, 0.0708008, 0.1365577, -0.0085603, 3.5505, 0.3198242, 3.5505, -0.9584961, 3.5505, -0.081543, 0.1365577, -0.01561, 3.5505, 0.0678711, 3.5505, -1.0932617, 3.5505, -0.0561523, 0.1365577, -0.0083925, 3.5505, -0.0649414, 3.5505, -1.152832, 3.5505, -0.012207, , , , , , , , , , , , , , , , , , , , , , 
0.1370769, 0.0535439, 3.564, -0.4370117, 3.564, -1.0371094, 3.564, 0.0708008, 0.1370769, -0.0082246, 3.564, 0.3588867, 3.564, -1.0380859, 3.564, -0.0786133, 0.1370769, -0.0142672, 3.564, 0.0854492, 3.564, -1.1582031, 3.564, -0.034668, 0.1370769, -0.0095674, 3.564, -0.0966797, 3.564, -1.1689453, 3.564, 0.012207, , , , , , , , , , , , , , , , , , , , , , 
0.1375962, 0.0498512, 3.5775, -0.3979492, 3.5775, -1.0576172, 3.5775, 0.0615234, 0.1375962, -0.0068818, 3.5775, 0.4165039, 3.5775, -1.0732422, 3.5775, -0.0517578, 0.1375962, -0.0109102, 3.5775, 0.1425781, 3.5775, -1.1459961, 3.5775, -0.0019531, 0.1375962, -0.0075532, 3.5775, -0.1298828, 3.5775, -1.1376953, 3.5775, 0.0273438, , , , , , , , , , , , , , , , , , , , , , 
0.1381154, 0.0417945, 3.591, -0.324707, 3.591, -1.0444336, 3.591, 0.0751953, 0.1381154, -0.0062104, 3.591, 0.4570312, 3.591, -1.0551758, 3.591, -0.0332031, 0.1381154, -0.0102388, 3.591, 0.2197266, 3.591, -1.0922852, 3.591, 0.0058594, 0.1381154, -0.0028534, 3.591, -0.1831055, 3.591, -1.0556641, 3.591, 0.0688477, , , , , , , , , , , , , , , , , , , , , , 
0.1386346, 0.0288701, 3.6045, -0.2387695, 3.6045, -1.0126953, 3.6045, 0.0844727, 0.1386346, -0.0082246, 3.6045, 0.4536133, 3.6045, -1.0083008, 3.6045, -0.0595703, 0.1386346, -0.0095674, 3.6045, 0.2856445, 3.6045, -1.0302734, 3.6045, -0.0322266, 0.1386346, 0.0025177, 3.6045, -0.1928711, 3.6045, -1.0078125, 3.6045, 0.1274414, , , , , , , , , , , , , , , , , , , , , , 
0.1391538, 0.0129244, 3.618, -0.2075195, 3.618, -0.9956055, 3.618, 0.09375, 0.1391538, -0.0085603, 3.618, 0.4267578, 3.618, -0.9633789, 3.618, -0.1015625, 0.1391538, -0.0099031, 3.618, 0.3164062, 3.618, -0.9682617, 3.618, -0.0600586, 0.1391538, 0.0099031, 3.618, -0.1459961, 3.618, -0.9833984, 3.618, 0.1821289, , , , , , , , , , , , , , , , , , , , , , 
0.1396731, 0.0011749, 3.6315, -0.1914062, 3.6315, -0.9624023, 3.6315, 0.1035156, 0.1396731, -0.006714, 3.6315, 0.390625, 3.6315, -0.9282227, 3.6315, -0.1225586, 0.1396731, -0.0109102, 3.6315, 0.3178711, 3.6315, -0.9428711, 3.6315, -0.074707, 0.1396731, 0.01561, 3.6315, -0.0859375, 3.6315, -0.9541016, 3.6315, 0.2192383, , , , , , , , , , , , , , , , , , , , , , 
0.1401923, -0.0048676, 3.645, -0.2094727, 3.645, -0.918457, 3.645, 0.0888672, 0.1401923, -0.0068818, 3.645, 0.3642578, 3.645, -0.9072266, 3.645, -0.1337891, 0.1401923, -0.0095674, 3.645, 0.3178711, 3.645, -0.8964844, 3.645, -0.097168, 0.1401923, 0.018967, 3.645, -0.0463867, 3.645, -0.9077148, 3.645, 0.2451172, , , , , , , , , , , , , , , , , , , , , , 
0.1407115, -0.0132601, 3.6585, -0.2290039, 3.6585, -0.8603516, 3.6585, 0.0908203, 0.1407115, -0.0095674, 3.6585, 0.2949219, 3.6585, -0.8564453, 3.6585, -0.1577148, 0.1407115, -0.0085603, 3.6585, 0.3183594, 3.6585, -0.8374023, 3.6585, -0.1166992, 0.1407115, 0.0223239, 3.6585, -0.0249023, 3.6585, -0.8374023, 3.6585, 0.2524414, , , , , , , , , , , , , , , , , , , , , , 
0.1412308, -0.0243381, 3.672, -0.2285156, 3.672, -0.8007812, 3.672, 0.0996094, 0.1412308, -0.0109102, 3.672, 0.2202148, 3.672, -0.809082, 3.672, -0.1767578, 0.1412308, -0.0082246, 3.672, 0.3129883, 3.672, -0.7753906, 3.672, -0.144043, 0.1412308, 0.0260166, 3.672, -0.0214844, 3.672, -0.7714844, 3.672, 0.2543945, , , , , , , , , , , , , , , , , , , , , , 
0.14175, -0.0344091, 3.6855, -0.203125, 3.6855, -0.7578125, 3.6855, 0.1044922, 0.14175, -0.0102388, 3.6855, 0.1645508, 3.6855, -0.7548828, 3.6855, -0.2182617, 0.14175, -0.0058747, 3.6855, 0.2905273, 3.6855, -0.7192383, 3.6855, -0.1728516, 0.14175, 0.0318914, 3.6855, -0.0166016, 3.6855, -0.7255859, 3.6855, 0.2490234, , , , , , , , , , , , , , , , , , , , , , 
0.1422692, -0.0397803, 3.699, -0.1889648, 3.699, -0.7695312, 3.699, 0.1186523, 0.1422692, -0.0109102, 3.699, 0.144043, 3.699, -0.7314453, 3.699, -0.2568359, 0.1422692, -0.0041962, 3.699, 0.2485352, 3.699, -0.7265625, 3.699, -0.1977539, 0.1422692, 0.0360876, 3.699, -0.0063477, 3.699, -0.7324219, 3.699, 0.2207031, , , , , , , , , , , , , , , , , , , , , , 
0.1427885, -0.0379339, 3.7125, -0.2373047, 3.7125, -0.8100586, 3.7125, 0.1118164, 0.1427885, -0.0129244, 3.7125, 0.1635742, 3.7125, -0.7714844, 3.7125, -0.2412109, 0.1427885, -0.0028534, 3.7125, 0.1972656, 3.7125, -0.7832031, 3.7125, -0.2138672, 0.1427885, 0.0364233, 3.7125, 0.0102539, 3.7125, -0.7944336, 3.7125, 0.1845703, , , , , , , , , , , , , , , , , , , , , , 
0.1433077, -0.0417945, 3.726, -0.2788086, 3.726, -0.8320312, 3.726, 0.0776367, 0.1433077, -0.0125887, 3.726, 0.2109375, 3.726, -0.8271484, 3.726, -0.1831055, 0.1433077, -0.0025177, 3.726, 0.1538086, 3.726, -0.8549805, 3.726, -0.2045898, 0.1433077, 0.0384375, 3.726, 0.0253906, 3.726, -0.8295898, 3.726, 0.1699219, , , , , , , , , , , , , , , , , , , , , , 
0.1438269, -0.0426337, 3.7395, -0.2675781, 3.7395, -0.8378906, 3.7395, 0.0615234, 0.1438269, -0.0109102, 3.7395, 0.2407227, 3.7395, -0.8354492, 3.7395, -0.1289062, 0.1438269, -0.0035248, 3.7395, 0.1547852, 3.7395, -0.8598633, 3.7395, -0.2041016, 0.1438269, 0.0428016, 3.7395, 0.0722656, 3.7395, -0.8662109, 3.7395, 0.1464844, , , , , , , , , , , , , , , , , , , , , , 
0.1443462, -0.0370947, 3.753, -0.2133789, 3.753, -0.8256836, 3.753, 0.0556641, 0.1443462, -0.0112459, 3.753, 0.2402344, 3.753, -0.7998047, 3.753, -0.1230469, 0.1443462, -0.0041962, 3.753, 0.1601562, 3.753, -0.8212891, 3.753, -0.2392578, 0.1443462, 0.0441444, 3.753, 0.1118164, 3.753, -0.8369141, 3.753, 0.1318359, , , , , , , , , , , , , , , , , , , , , , 
0.1448654, -0.0260166, 3.7665, -0.159668, 3.7665, -0.8173828, 3.7665, 0.0566406, 0.1448654, -0.012253, 3.7665, 0.2387695, 3.7665, -0.7841797, 3.7665, -0.1342773, 0.1448654, -0.0031891, 3.7665, 0.1591797, 3.7665, -0.8066406, 3.7665, -0.2666016, 0.1448654, 0.0392767, 3.7665, 0.1430664, 3.7665, -0.7875977, 3.7665, 0.1005859, , , , , , , , , , , , , , , , , , , , , , 
0.1453846, -0.008896, 3.78, -0.1586914, 3.78, -0.8144531, 3.78, 0.0395508, 0.1453846, -0.0105745, 3.78, 0.2319336, 3.78, -0.769043, 3.78, -0.1489258, 0.1453846, -0.0005035, 3.78, 0.1772461, 3.78, -0.7841797, 3.78, -0.2978516, 0.1453846, 0.0317235, 3.78, 0.1835938, 3.78, -0.7495117, 3.78, 0.0703125, , , , , , , , , , , , , , , , , , , , , , 
0.1459038, 0.0035248, 3.7935, -0.1777344, 3.7935, -0.8139648, 3.7935, 0.0336914, 0.1459038, -0.0095674, 3.7935, 0.2084961, 3.7935, -0.7661133, 3.7935, -0.1542969, 0.1459038, -0.0006714, 3.7935, 0.1870117, 3.7935, -0.7788086, 3.7935, -0.3110352, 0.1459038, 0.026688, 3.7935, 0.2207031, 3.7935, -0.7456055, 3.7935, 0.0483398, , , , , , , , , , , , , , , , , , , , , , 
0.1464231, 0.0083925, 3.807, -0.2216797, 3.807, -0.8286133, 3.807, 0.0356445, 0.1464231, -0.010071, 3.807, 0.1889648, 3.807, -0.7709961, 3.807, -0.1489258, 0.1464231, -0.0036927, 3.807, 0.1625977, 3.807, -0.8217773, 3.807, -0.309082, 0.1464231, 0.0251774, 3.807, 0.2739258, 3.807, -0.7695312, 3.807, 0.0327148, , , , , , , , , , , , , , , , , , , , , , 
0.1469423, 0.0127565, 3.8205, -0.2529297, 3.8205, -0.8505859, 3.8205, 0.015625, 0.1469423, -0.011078, 3.8205, 0.1884766, 3.8205, -0.78125, 3.8205, -0.1254883, 0.1469423, -0.005539, 3.8205, 0.1772461, 3.8205, -0.8408203, 3.8205, -0.3041992, 0.1469423, 0.0240024, 3.8205, 0.3334961, 3.8205, -0.8061523, 3.8205, 0.0219727, , , , , , , , , , , , , , , , , , , , , , 
0.1474615, 0.0196384, 3.834, -0.2358398, 3.834, -0.8466797, 3.834, -0.0073242, 0.1474615, -0.0112459, 3.834, 0.2128906, 3.834, -0.7924805, 3.834, -0.1108398, 0.1474615, -0.0057069, 3.834, 0.1870117, 3.834, -0.8251953, 3.834, -0.2998047, 0.1474615, 0.0219883, 3.834, 0.3505859, 3.834, -0.8237305, 3.834, 0.0185547, , , , , , , , , , , , , , , , , , , , , , 
0.1479808, 0.0240024, 3.8475, -0.1826172, 3.8475, -0.8447266, 3.8475, 0.0092773, 0.1479808, -0.0102388, 3.8475, 0.2319336, 3.8475, -0.7949219, 3.8475, -0.1113281, 0.1479808, -0.0052033, 3.8475, 0.2006836, 3.8475, -0.7866211, 3.8475, -0.3105469, 0.1479808, 0.0199741, 3.8475, 0.3398438, 3.8475, -0.7993164, 3.8475, 0.0141602, , , , , , , , , , , , , , , , , , , , , , 
0.1485, 0.026688, 3.861, -0.1333008, 3.861, -0.8388672, 3.861, 0.0039062, 0.1485, -0.0075532, 3.861, 0.2197266, 3.861, -0.7861328, 3.861, -0.1279297, 0.1485, -0.0046998, 3.861, 0.1943359, 3.861, -0.7529297, 3.861, -0.3095703, 0.1485, 0.0198062, 3.861, 0.2792969, 3.861, -0.75, 3.861, 0.0175781, , , , , , , , , , , , , , , , , , , , , , 
0.1490192, 0.030045, 3.8745, -0.1230469, 3.8745, -0.8481445, 3.8745, 0.0112305, 0.1490192, -0.0068818, 3.8745, 0.2016602, 3.8745, -0.7910156, 3.8745, -0.1547852, 0.1490192, -0.0038605, 3.8745, 0.1992188, 3.8745, -0.7539062, 3.8745, -0.28125, 0.1490192, 0.0172885, 3.8745, 0.2397461, 3.8745, -0.7358398, 3.8745, 0.0239258, , , , , , , , , , , , , , , , , , , , , , 
0.1495385, 0.0307164, 3.888, -0.1352539, 3.888, -0.8657227, 3.888, 0.0356445, 0.1495385, -0.0082246, 3.888, 0.2011719, 3.888, -0.7998047, 3.888, -0.1557617, 0.1495385, -0.0035248, 3.888, 0.2036133, 3.888, -0.7851562, 3.888, -0.2587891, 0.1495385, 0.0125887, 3.888, 0.1923828, 3.888, -0.7407227, 3.888, 0.0546875, , , , , , , , , , , , , , , , , , , , , , 
0.1500577, 0.0292058, 3.9015, -0.1625977, 3.9015, -0.8720703, 3.9015, 0.0253906, 0.1500577, -0.008896, 3.9015, 0.222168, 3.9015, -0.8154297, 3.9015, -0.1274414, 0.1500577, -0.005539, 3.9015, 0.2001953, 3.9015, -0.8017578, 3.9015, -0.2460938, 0.1500577, 0.0109102, 3.9015, 0.1704102, 3.9015, -0.7817383, 3.9015, 0.0786133, , , , , , , , , , , , , , , , , , , , , , 
0.1505769, 0.0275273, 3.915, -0.1796875, 3.915, -0.8779297, 3.915, 0.0229492, 0.1505769, -0.0063783, 3.915, 0.2475586, 3.915, -0.8227539, 3.915, -0.1074219, 0.1505769, -0.0063783, 3.915, 0.1860352, 3.915, -0.8227539, 3.915, -0.2475586, 0.1505769, 0.0124208, 3.915, 0.1875, 3.915, -0.8193359, 3.915, 0.0756836, , , , , , , , , , , , , , , , , , , , , , 
0.1510962, 0.0263523, 3.9285, -0.1757812, 3.9285, -0.8833008, 3.9285, 0.0366211, 0.1510962, -0.0062104, 3.9285, 0.2504883, 3.9285, -0.8232422, 3.9285, -0.1347656, 0.1510962, -0.0058747, 3.9285, 0.175293, 3.9285, -0.8115234, 3.9285, -0.2553711, 0.1510962, 0.0129244, 3.9285, 0.2080078, 3.9285, -0.8330078, 3.9285, 0.0488281, , , , , , , , , , , , , , , , , , , , , , 
0.1516154, 0.0290379, 3.942, -0.1914062, 3.942, -0.8964844, 3.942, 0.0419922, 0.1516154, -0.0065461, 3.942, 0.2348633, 3.942, -0.8374023, 3.942, -0.1577148, 0.1516154, -0.006714, 3.942, 0.152832, 3.942, -0.8295898, 3.942, -0.2661133, 0.1516154, 0.0125887, 3.942, 0.2236328, 3.942, -0.8388672, 3.942, 0.0195312, , , , , , , , , , , , , , , , , , , , , , 
0.1521346, 0.0318914, 3.9555, -0.1958008, 3.9555, -0.9008789, 3.9555, 0.0361328, 0.1521346, -0.0072175, 3.9555, 0.2299805, 3.9555, -0.8574219, 3.9555, -0.1455078, 0.1521346, -0.0072175, 3.9555, 0.1049805, 3.9555, -0.9003906, 3.9555, -0.2646484, 0.1521346, 0.0117494, 3.9555, 0.2270508, 3.9555, -0.8510742, 3.9555, 0.0068359, , , , , , , , , , , , , , , , , , , , , , 
0.1526538, 0.0327306, 3.969, -0.2207031, 3.969, -0.9023438, 3.969, 0.0166016, 0.1526538, -0.008896, 3.969, 0.2124023, 3.969, -0.8847656, 3.969, -0.1132812, 0.1526538, -0.0085603, 3.969, 0.081543, 3.969, -0.9038086, 3.969, -0.2592773, 0.1526538, 0.0092317, 3.969, 0.2172852, 3.969, -0.8779297, 3.969, 0.0068359, , , , , , , , , , , , , , , , , , , , , , 
0.1531731, 0.0328985, 3.9825, -0.2602539, 3.9825, -0.9165039, 3.9825, -0.0043945, 0.1531731, -0.0099031, 3.9825, 0.1777344, 3.9825, -0.9018555, 3.9825, -0.0913086, 0.1531731, -0.0102388, 3.9825, 0.1220703, 3.9825, -0.8662109, 3.9825, -0.2436523, 0.1531731, 0.0083925, 3.9825, 0.199707, 3.9825, -0.8901367, 3.9825, 0.012207, , , , , , , , , , , , , , , , , , , , , , 
0.1536923, 0.0330663, 3.996, -0.2504883, 3.996, -0.9160156, 3.996, -0.015625, 0.1536923, -0.0095674, 3.996, 0.1699219, 3.996, -0.8896484, 3.996, -0.1040039, 0.1536923, -0.0112459, 3.996, 0.1665039, 3.996, -0.828125, 3.996, -0.2314453, 0.1536923, 0.0095674, 3.996, 0.1640625, 3.996, -0.8696289, 3.996, 0.0219727, , , , , , , , , , , , , , , , , , , , , , 
0.1542115, 0.0354162, 4.0095, -0.2089844, 4.0095, -0.9155273, 4.0095, -0.0058594, 0.1542115, -0.008896, 4.0095, 0.1811523, 4.0095, -0.8764648, 4.0095, -0.1142578, 0.1542115, -0.012253, 4.0095, 0.1738281, 4.0095, -0.8149414, 4.0095, -0.2368164, 0.1542115, 0.0068818, 4.0095, 0.1533203, 4.0095, -0.8413086, 4.0095, 0.0322266, , , , , , , , , , , , , , , , , , , , , , 
0.1547308, 0.0448157, 4.023, -0.1582031, 4.023, -0.90625, 4.023, -0.0014648, 0.1547308, -0.0085603, 4.023, 0.2124023, 4.023, -0.8510742, 4.023, -0.1240234, 0.1547308, -0.0112459, 4.023, 0.1782227, 4.023, -0.8208008, 4.023, -0.2397461, 0.1547308, 0.0015106, 4.023, 0.2055664, 4.023, -0.8295898, 4.023, 0.0273438, , , , , , , , , , , , , , , , , , , , , , 
0.15525, 0.0548867, 4.0365, -0.1845703, 4.0365, -0.9145508, 4.0365, 0.0200195, 0.15525, -0.0082246, 4.0365, 0.222168, 4.0365, -0.8583984, 4.0365, -0.1220703, 0.15525, -0.0112459, 4.0365, 0.1967773, 4.0365, -0.8432617, 4.0365, -0.2763672, 0.15525, -0.0015106, 4.0365, 0.2524414, 4.0365, -0.8378906, 4.0365, 0.0166016, , , , , , , , , , , , , , , , , , , , , , 
0.1557692, 0.0592508, 4.05, -0.2563477, 4.05, -0.9580078, 4.05, 0.0390625, 0.1557692, -0.0075532, 4.05, 0.2275391, 4.05, -0.909668, 4.05, -0.1147461, 0.1557692, -0.0135958, 4.05, 0.1791992, 4.05, -0.921875, 4.05, -0.2753906, 0.1557692, -0.0015106, 4.05, 0.309082, 4.05, -0.9067383, 4.05, -0.0083008, , , , , , , , , , , , , , , , , , , , , , 
0.1562885, 0.0599222, 4.0635, -0.3100586, 4.0635, -1.015625, 4.0635, 0.0239258, 0.1562885, -0.0075532, 4.0635, 0.2680664, 4.0635, -0.9736328, 4.0635, -0.0820312, 0.1562885, -0.0159457, 4.0635, 0.121582, 4.0635, -1.0092773, 4.0635, -0.2495117, 0.1562885, -0.0028534, 4.0635, 0.3203125, 4.0635, -1.0146484, 4.0635, -0.0327148, , , , , , , , , , , , , , , , , , , , , , 
0.1568077, 0.0547189, 4.077, -0.3510742, 4.077, -1.0405273, 4.077, 0.0009766, 0.1568077, -0.0068818, 4.077, 0.3242188, 4.077, -1.0200195, 4.077, -0.0424805, 0.1568077, -0.0182956, 4.077, 0.0800781, 4.077, -1.0576172, 4.077, -0.2207031, 0.1568077, -0.0062104, 4.077, 0.2734375, 4.077, -1.0761719, 4.077, -0.0600586, , , , , , , , , , , , , , , , , , , , , , 
0.1573269, 0.0475013, 4.0905, -0.362793, 4.0905, -1.0410156, 4.0905, 0.003418, 0.1573269, -0.0065461, 4.0905, 0.3491211, 4.0905, -1.0327148, 4.0905, -0.0229492, 0.1573269, -0.0169528, 4.0905, 0.0883789, 4.0905, -1.0522461, 4.0905, -0.2148438, 0.1573269, -0.0058747, 4.0905, 0.1923828, 4.0905, -1.050293, 4.0905, -0.0751953, , , , , , , , , , , , , , , , , , , , , , 
0.1578462, 0.0370947, 4.104, -0.3295898, 4.104, -1.0200195, 4.104, 0.019043, 0.1578462, -0.0072175, 4.104, 0.3393555, 4.104, -1.0166016, 4.104, -0.0361328, 0.1578462, -0.0132601, 4.104, 0.1328125, 4.104, -1.034668, 4.104, -0.1845703, 0.1578462, -0.0031891, 4.104, 0.1152344, 4.104, -1.0039062, 4.104, -0.0390625, , , , , , , , , , , , , , , , , , , , , , 
0.1583654, 0.0213169, 4.1175, -0.3134766, 4.1175, -1.0205078, 4.1175, 0.03125, 0.1583654, -0.0062104, 4.1175, 0.315918, 4.1175, -1.0053711, 4.1175, -0.0581055, 0.1583654, -0.012253, 4.1175, 0.1938477, 4.1175, -1.015625, 4.1175, -0.2006836, 0.1583654, 0.0001678, 4.1175, 0.0932617, 4.1175, -1.0024414, 4.1175, 0.0229492, , , , , , , , , , , , , , , , , , , , , , 
0.1588846, 0.0072175, 4.131, -0.3188477, 4.131, -1.0253906, 4.131, 0.0444336, 0.1588846, -0.0062104, 4.131, 0.3149414, 4.131, -1.0087891, 4.131, -0.0605469, 0.1588846, -0.0124208, 4.131, 0.2250977, 4.131, -1.0537109, 4.131, -0.2211914, 0.1588846, 0.0030213, 4.131, 0.1411133, 4.131, -1.0463867, 4.131, 0.0551758, , , , , , , , , , , , , , , , , , , , , , 
0.1594038, -0.0005035, 4.1445, -0.3544922, 4.1445, -1.0473633, 4.1445, 0.0532227, 0.1594038, -0.0075532, 4.1445, 0.3330078, 4.1445, -1.0249023, 4.1445, -0.0576172, 0.1594038, -0.0125887, 4.1445, 0.1962891, 4.1445, -1.0996094, 4.1445, -0.2421875, 0.1594038, 0.0075532, 4.1445, 0.2080078, 4.1445, -1.1015625, 4.1445, 0.0541992, , , , , , , , , , , , , , , , , , , , , , 
0.1599231, -0.0025177, 4.158, -0.3837891, 4.158, -1.0771484, 4.158, 0.0561523, 0.1599231, -0.0073854, 4.158, 0.3583984, 4.158, -1.0512695, 4.158, -0.0507812, 0.1599231, -0.0102388, 4.158, 0.1591797, 4.158, -1.1166992, 4.158, -0.253418, 0.1599231, 0.0127565, 4.158, 0.2709961, 4.158, -1.1181641, 4.158, 0.0209961, , , , , , , , , , , , , , , , , , , , , , 
0.1604423, -0.0068818, 4.1715, -0.4033203, 4.1715, -1.105957, 4.1715, 0.0332031, 0.1604423, -0.0075532, 4.1715, 0.3808594, 4.1715, -1.078125, 4.1715, -0.0551758, 0.1604423, -0.008896, 4.1715, 0.0751953, 4.1715, -1.1376953, 4.1715, -0.2861328, 0.1604423, 0.0146029, 4.1715, 0.2788086, 4.1715, -1.1333008, 4.1715, -0.0263672, , , , , , , , , , , , , , , , , , , , , , 
0.1609615, -0.0182956, 4.185, -0.4541016, 4.185, -1.1303711, 4.185, 0.0576172, 0.1609615, -0.0082246, 4.185, 0.375, 4.185, -1.1191406, 4.185, -0.0444336, 0.1609615, -0.0072175, 4.185, 0.0820312, 4.185, -1.144043, 4.185, -0.2783203, 0.1609615, 0.017792, 4.185, 0.2670898, 4.185, -1.1518555, 4.185, -0.0483398, , , , , , , , , , , , , , , , , , , , , , 
0.1614808, -0.0313878, 4.1985, -0.4594727, 4.1985, -1.1396484, 4.1985, 0.0546875, 0.1614808, -0.0072175, 4.1985, 0.3681641, 4.1985, -1.1542969, 4.1985, -0.0341797, 0.1614808, -0.005539, 4.1985, 0.1640625, 4.1985, -1.1757812, 4.1985, -0.2382812, 0.1614808, 0.0246738, 4.1985, 0.230957, 4.1985, -1.184082, 4.1985, -0.0454102, , , , , , , , , , , , , , , , , , , , , , 
0.162, -0.0387732, 4.212, -0.4150391, 4.212, -1.1586914, 4.212, 0.0634766, 0.162, -0.0068818, 4.212, 0.3896484, 4.212, -1.159668, 4.212, -0.0556641, 0.162, -0.0045319, 4.212, 0.246582, 4.212, -1.1923828, 4.212, -0.2250977, 0.162, 0.0307164, 4.212, 0.2163086, 4.212, -1.1845703, 4.212, -0.0078125, , , , , , , , , , , , , , , , , , , , , , 
0.1625192, -0.0379339, 4.2255, -0.3735352, 4.2255, -1.1982422, 4.2255, 0.1074219, 0.1625192, -0.0068818, 4.2255, 0.4174805, 4.2255, -1.1757812, 4.2255, -0.0678711, 0.1625192, -0.0050355, 4.2255, 0.2646484, 4.2255, -1.1787109, 4.2255, -0.2202148, 0.1625192, 0.0344091, 4.2255, 0.2050781, 4.2255, -1.1928711, 4.2255, 0.019043, , , , , , , , , , , , , , , , , , , , , , 
0.1630385, -0.0364233, 4.239, -0.3950195, 4.239, -1.2070312, 4.239, 0.1298828, 0.1630385, -0.0078889, 4.239, 0.4345703, 4.239, -1.1918945, 4.239, -0.0698242, 0.1630385, -0.0058747, 4.239, 0.2358398, 4.239, -1.1845703, 4.239, -0.2236328, 0.1630385, 0.0354162, 4.239, 0.1982422, 4.239, -1.2192383, 4.239, 0.0302734, , , , , , , , , , , , , , , , , , , , , , 
0.1635577, -0.0384375, 4.2525, -0.4091797, 4.2525, -1.1977539, 4.2525, 0.1191406, 0.1635577, -0.0085603, 4.2525, 0.4511719, 4.2525, -1.1948242, 4.2525, -0.0683594, 0.1635577, -0.005539, 4.2525, 0.2231445, 4.2525, -1.2084961, 4.2525, -0.2578125, 0.1635577, 0.0340734, 4.2525, 0.215332, 4.2525, -1.2485352, 4.2525, 0.0351562, , , , , , , , , , , , , , , , , , , , , , 
0.1640769, -0.0374304, 4.266, -0.4555664, 4.266, -1.1850586, 4.266, 0.0888672, 0.1640769, -0.0085603, 4.266, 0.4790039, 4.266, -1.2041016, 4.266, -0.0449219, 0.1640769, -0.0035248, 4.266, 0.2265625, 4.266, -1.2426758, 4.266, -0.2758789, 0.1640769, 0.033402, 4.266, 0.2387695, 4.266, -1.2705078, 4.266, 0.0332031, , , , , , , , , , , , , , , , , , , , , , 
0.1645962, -0.0303807, 4.2795, -0.5395508, 4.2795, -1.1845703, 4.2795, 0.0820312, 0.1645962, -0.0087282, 4.2795, 0.4726562, 4.2795, -1.2011719, 4.2795, -0.0302734, 0.1645962, -0.0018463, 4.2795, 0.21875, 4.2795, -1.2636719, 4.2795, -0.2661133, 0.1645962, 0.0337377, 4.2795, 0.2514648, 4.2795, -1.2661133, 4.2795, 0.0351562, , , , , , , , , , , , , , , , , , , , , , 
0.1651154, -0.0169528, 4.293, -0.5839844, 4.293, -1.1899414, 4.293, 0.0786133, 0.1651154, -0.0082246, 4.293, 0.4521484, 4.293, -1.1879883, 4.293, -0.0131836, 0.1651154, -0.0008392, 4.293, 0.2128906, 4.293, -1.2817383, 4.293, -0.2543945, 0.1651154, 0.0313878, 4.293, 0.2446289, 4.293, -1.2739258, 4.293, 0.0244141, , , , , , , , , , , , , , , , , , , , , , 
0.1656346, -0.0035248, 4.3065, -0.6064453, 4.3065, -1.2236328, 4.3065, 0.1166992, 0.1656346, -0.0070497, 4.3065, 0.4697266, 4.3065, -1.2055664, 4.3065, 0.0166016, 0.1656346, -0.0015106, 4.3065, 0.2304688, 4.3065, -1.3051758, 4.3065, -0.2304688, 0.1656346, 0.0275273, 4.3065, 0.2324219, 4.3065, -1.3129883, 4.3065, 0.0102539, , , , , , , , , , , , , , , , , , , , , , 
0.1661538, 0.005539, 4.32, -0.5600586, 4.32, -1.2568359, 4.32, 0.1650391, 0.1661538, -0.0068818, 4.32, 0.5224609, 4.32, -1.2402344, 4.32, -0.0234375, 0.1661538, -0.0035248, 4.32, 0.2373047, 4.32, -1.3378906, 4.32, -0.2207031, 0.1661538, 0.0209812, 4.32, 0.2119141, 4.32, -1.3710938, 4.32, 0.0102539, , , , , , , , , , , , , , , , , , , , , , 
0.1666731, 0.0119173, 4.3335, -0.5571289, 4.3335, -1.2792969, 4.3335, 0.1787109, 0.1666731, -0.0072175, 4.3335, 0.5966797, 4.3335, -1.2797852, 4.3335, -0.034668, 0.1666731, -0.0048676, 4.3335, 0.2382812, 4.3335, -1.402832, 4.3335, -0.2055664, 0.1666731, 0.0181277, 4.3335, 0.1835938, 4.3335, -1.4023438, 4.3335, 0.0063477, , , , , , , , , , , , , , , , , , , , , , 
0.1671923, 0.0139315, 4.347, -0.6269531, 4.347, -1.2788086, 4.347, 0.1884766, 0.1671923, -0.0070497, 4.347, 0.6879883, 4.347, -1.3061523, 4.347, 0.0317383, 0.1671923, -0.005539, 4.347, 0.28125, 4.347, -1.4428711, 4.347, -0.2001953, 0.1671923, 0.0169528, 4.347, 0.1816406, 4.347, -1.4477539, 4.347, 0.0239258, , , , , , , , , , , , , , , , , , , , , , 
0.1677115, 0.0172885, 4.3605, -0.6689453, 4.3605, -1.2890625, 4.3605, 0.2050781, 0.1677115, -0.0077211, 4.3605, 0.7451172, 4.3605, -1.3344727, 4.3605, 0.0961914, 0.1677115, -0.0068818, 4.3605, 0.3432617, 4.3605, -1.487793, 4.3605, -0.2084961, 0.1677115, 0.0169528, 4.3605, 0.1904297, 4.3605, -1.4780273, 4.3605, 0.0551758, , , , , , , , , , , , , , , , , , , , , , 
0.1682308, 0.0172885, 4.374, -0.6557617, 4.374, -1.2910156, 4.374, 0.1538086, 0.1682308, -0.0082246, 4.374, 0.7524414, 4.374, -1.3540039, 4.374, 0.1137695, 0.1682308, -0.0065461, 4.374, 0.3862305, 4.374, -1.5249023, 4.374, -0.1777344, 0.1682308, 0.0159457, 4.374, 0.2070312, 4.374, -1.5151367, 4.374, 0.0664062, , , , , , , , , , , , , , , , , , , , , , 
0.16875, 0.0166171, 4.3875, -0.6865234, 4.3875, -1.3549805, 4.3875, 0.1518555, 0.16875, -0.0082246, 4.3875, 0.7348633, 4.3875, -1.4140625, 4.3875, 0.1225586, 0.16875, -0.0075532, 4.3875, 0.3798828, 4.3875, -1.5639648, 4.3875, -0.1655273, 0.16875, 0.0130922, 4.3875, 0.1918945, 4.3875, -1.5717773, 4.3875, 0.0644531, , , , , , , , , , , , , , , , , , , , , , 
0.1692692, 0.0213169, 4.401, -0.8164062, 4.401, -1.4521484, 4.401, 0.1337891, 0.1692692, -0.0082246, 4.401, 0.706543, 4.401, -1.4990234, 4.401, 0.0883789, 0.1692692, -0.0072175, 4.401, 0.324707, 4.401, -1.5986328, 4.401, -0.2099609, 0.1692692, 0.0112459, 4.401, 0.1669922, 4.401, -1.6323242, 4.401, 0.0717773, , , , , , , , , , , , , , , , , , , , , , 
0.1697885, 0.030045, 4.4145, -0.9296875, 4.4145, -1.5170898, 4.4145, 0.1328125, 0.1697885, -0.008896, 4.4145, 0.690918, 4.4145, -1.5820312, 4.4145, 0.0986328, 0.1697885, -0.005539, 4.4145, 0.3027344, 4.4145, -1.6176758, 4.4145, -0.2373047, 0.1697885, 0.0082246, 4.4145, 0.1645508, 4.4145, -1.6743164, 4.4145, 0.0742188, , , , , , , , , , , , , , , , , , , , , , 
0.1703077, 0.0327306, 4.428, -0.9755859, 4.428, -1.5874023, 4.428, 0.1430664, 0.1703077, -0.0082246, 4.428, 0.6879883, 4.428, -1.6464844, 4.428, 0.1142578, 0.1703077, -0.0052033, 4.428, 0.2856445, 4.428, -1.6425781, 4.428, -0.277832, 0.1703077, 0.0052033, 4.428, 0.1953125, 4.428, -1.6972656, 4.428, 0.1030273, , , , , , , , , , , , , , , , , , , , , , 
