Timestamps,channel_1,channel_2,channel_3,channel_4,channel_5,channel_6,channel_7,channel_8,ACC_X,ACC_Y,ACC_Z,GYR_X,GYR_Y,GYR_Z
10_51_24_794,0.0,-2.0,-5.0,0.0,1.0,0.0,-3.0,-4.0,0.93798828125,-0.181640625,0.2490234375,-5.609756097560976,-2.987804878048781,-4.2682926829268295
10_51_24_794,-2.0,-2.0,0.0,1.0,2.0,0.0,2.0,5.0,0.94091796875,-0.17431640625,0.2490234375,-5.121951219512195,-3.2926829268292686,-4.451219512195122
10_51_24_794,-1.0,-2.0,-2.0,-1.0,-2.0,-2.0,-4.0,1.0,0.94580078125,-0.1650390625,0.25,-3.2926829268292686,-3.414634146341464,-4.75609756097561
10_51_24_794,-7.0,-5.0,-3.0,-2.0,-9.0,-2.0,-6.0,-1.0,0.94677734375,-0.1689453125,0.25390625,-1.7682926829268295,-3.5975609756097566,-5.0
10_51_24_794,-7.0,-2.0,-2.0,-4.0,-3.0,-1.0,-7.0,-3.0,0.9462890625,-0.17138671875,0.25048828125,-2.439024390243903,-3.780487804878049,-5.548780487804878
10_51_24_794,3.0,-1.0,8.0,-1.0,-3.0,0.0,-2.0,-3.0,0.9404296875,-0.1796875,0.25634765625,-4.75609756097561,-4.024390243902439,-5.853658536585367
10_51_24_794,-4.0,-1.0,-2.0,-4.0,-1.0,-1.0,0.0,3.0,0.935546875,-0.18310546875,0.2470703125,-7.865853658536586,-4.024390243902439,-6.036585365853659
10_51_24_794,-5.0,-4.0,-3.0,1.0,0.0,-3.0,-2.0,-1.0,0.94775390625,-0.17919921875,0.24755859375,-11.402439024390246,-4.2682926829268295,-5.609756097560976
10_51_24_794,1.0,0.0,4.0,-5.0,-1.0,0.0,1.0,-1.0,0.95166015625,-0.1728515625,0.23779296875,-12.926829268292684,-4.451219512195122,-4.878048780487806
10_51_24_794,2.0,2.0,-2.0,1.0,0.0,1.0,3.0,-2.0,0.94580078125,-0.1572265625,0.24365234375,-10.121951219512196,-3.8414634146341466,-4.390243902439025
10_51_24_836,0.0,-1.0,0.0,-1.0,-2.0,-3.0,-3.0,-1.0,0.9462890625,-0.19091796875,0.2353515625,-1.6463414634146343,-2.987804878048781,-3.780487804878049
10_51_24_836,3.0,-3.0,-9.0,2.0,3.0,1.0,-1.0,2.0,0.93701171875,-0.1953125,0.24462890625,-4.085365853658537,-3.353658536585366,-3.963414634146342
10_51_24_836,-5.0,-3.0,-2.0,-2.0,1.0,0.0,1.0,-6.0,0.935546875,-0.18212890625,0.23828125,-5.487804878048781,-3.1707317073170733,-4.329268292682928
10_51_24_836,-4.0,-2.0,-1.0,-5.0,-3.0,-1.0,-2.0,-3.0,0.93798828125,-0.181640625,0.2490234375,-5.609756097560976,-2.987804878048781,-4.2682926829268295
10_51_24_836,-5.0,-5.0,-6.0,2.0,-4.0,-8.0,-5.0,-6.0,0.94091796875,-0.17431640625,0.2490234375,-5.121951219512195,-3.2926829268292686,-4.451219512195122
10_51_24_836,11.0,9.0,6.0,2.0,1.0,2.0,2.0,2.0,0.94580078125,-0.1650390625,0.25,-3.2926829268292686,-3.414634146341464,-4.75609756097561
10_51_24_836,-5.0,-1.0,-2.0,-4.0,-7.0,-1.0,-3.0,-2.0,0.94677734375,-0.1689453125,0.25390625,-1.7682926829268295,-3.5975609756097566,-5.0
10_51_24_836,-5.0,4.0,-4.0,3.0,0.0,0.0,-2.0,-3.0,0.9462890625,-0.17138671875,0.25048828125,-2.439024390243903,-3.780487804878049,-5.548780487804878
10_51_24_836,-1.0,-4.0,-6.0,-1.0,-4.0,-4.0,-3.0,-5.0,0.9404296875,-0.1796875,0.25634765625,-4.75609756097561,-4.024390243902439,-5.853658536585367
10_51_24_836,0.0,-4.0,0.0,2.0,2.0,2.0,1.0,0.0,0.935546875,-0.18310546875,0.2470703125,-7.865853658536586,-4.024390243902439,-6.036585365853659
10_51_24_894,-5.0,-1.0,-6.0,-2.0,-6.0,1.0,0.0,-3.0,0.95263671875,-0.1748046875,0.234375,-2.073170731707317,-2.439024390243903,-2.0121951219512195
10_51_24_894,-1.0,2.0,2.0,-5.0,-4.0,0.0,-1.0,-2.0,0.953125,-0.18359375,0.23095703125,-0.853658536585366,-2.7439024390243905,-2.804878048780488
10_51_24_894,-1.0,0.0,-3.0,3.0,-1.0,-2.0,-2.0,2.0,0.94921875,-0.18408203125,0.23681640625,-0.3658536585365854,-2.9268292682926833,-3.4756097560975614
10_51_24_894,5.0,2.0,-7.0,-5.0,0.0,-1.0,3.0,1.0,0.9462890625,-0.19091796875,0.2353515625,-1.6463414634146343,-2.987804878048781,-3.780487804878049
10_51_24_894,-4.0,-1.0,0.0,1.0,-6.0,-1.0,-6.0,-2.0,0.93701171875,-0.1953125,0.24462890625,-4.085365853658537,-3.353658536585366,-3.963414634146342
10_51_24_894,-1.0,1.0,-4.0,-3.0,0.0,-2.0,-1.0,-4.0,0.935546875,-0.18212890625,0.23828125,-5.487804878048781,-3.1707317073170733,-4.329268292682928
10_51_24_894,2.0,2.0,-4.0,0.0,2.0,0.0,0.0,-1.0,0.93798828125,-0.181640625,0.2490234375,-5.609756097560976,-2.987804878048781,-4.2682926829268295
10_51_24_894,2.0,1.0,-1.0,2.0,0.0,0.0,1.0,3.0,0.94091796875,-0.17431640625,0.2490234375,-5.121951219512195,-3.2926829268292686,-4.451219512195122
10_51_24_894,-7.0,-6.0,-9.0,-1.0,-2.0,0.0,-8.0,-6.0,0.94580078125,-0.1650390625,0.25,-3.2926829268292686,-3.414634146341464,-4.75609756097561
10_51_24_894,-3.0,1.0,2.0,0.0,0.0,-2.0,-1.0,1.0,0.94677734375,-0.1689453125,0.25390625,-1.7682926829268295,-3.5975609756097566,-5.0
10_51_24_947,-6.0,1.0,-2.0,-5.0,1.0,0.0,-3.0,-1.0,0.95263671875,-0.1748046875,0.234375,-2.073170731707317,-2.439024390243903,-2.0121951219512195
10_51_24_947,0.0,1.0,-2.0,5.0,-5.0,0.0,-1.0,0.0,0.953125,-0.18359375,0.23095703125,-0.853658536585366,-2.7439024390243905,-2.804878048780488
10_51_24_947,-4.0,0.0,-3.0,0.0,-4.0,1.0,-2.0,-2.0,0.94921875,-0.18408203125,0.23681640625,-0.3658536585365854,-2.9268292682926833,-3.4756097560975614
10_51_24_947,-4.0,-1.0,-3.0,3.0,1.0,0.0,1.0,0.0,0.9462890625,-0.19091796875,0.2353515625,-1.6463414634146343,-2.987804878048781,-3.780487804878049
10_51_24_947,-1.0,-5.0,-3.0,-5.0,-2.0,-1.0,-4.0,3.0,0.93701171875,-0.1953125,0.24462890625,-4.085365853658537,-3.353658536585366,-3.963414634146342
10_51_24_947,4.0,4.0,5.0,3.0,-1.0,0.0,4.0,1.0,0.935546875,-0.18212890625,0.23828125,-5.487804878048781,-3.1707317073170733,-4.329268292682928
10_51_24_947,-7.0,-2.0,2.0,0.0,0.0,-6.0,-2.0,-3.0,0.93798828125,-0.181640625,0.2490234375,-5.609756097560976,-2.987804878048781,-4.2682926829268295
10_51_24_947,0.0,-3.0,-3.0,0.0,1.0,-2.0,-3.0,-2.0,0.94091796875,-0.17431640625,0.2490234375,-5.121951219512195,-3.2926829268292686,-4.451219512195122
10_51_24_994,5.0,1.0,-2.0,-1.0,-1.0,1.0,3.0,-1.0,0.95703125,-0.1787109375,0.2373046875,-1.2804878048780488,-1.5853658536585367,1.402439024390244
10_51_24_994,-3.0,-2.0,-4.0,-1.0,-1.0,-3.0,-5.0,-4.0,0.9658203125,-0.18798828125,0.23388671875,-4.51219512195122,-1.8902439024390245,0.12195121951219513
10_51_24_994,1.0,3.0,-2.0,2.0,4.0,-4.0,-5.0,3.0,0.9619140625,-0.1708984375,0.23291015625,-4.207317073170732,-2.073170731707317,-0.9756097560975611
10_51_24_994,2.0,-1.0,-2.0,-4.0,3.0,1.0,-1.0,-4.0,0.95263671875,-0.1748046875,0.234375,-2.073170731707317,-2.439024390243903,-2.0121951219512195
10_51_24_994,7.0,4.0,2.0,4.0,2.0,2.0,6.0,1.0,0.953125,-0.18359375,0.23095703125,-0.853658536585366,-2.7439024390243905,-2.804878048780488
10_51_24_994,-1.0,-3.0,-3.0,-3.0,-3.0,2.0,-7.0,0.0,0.94921875,-0.18408203125,0.23681640625,-0.3658536585365854,-2.9268292682926833,-3.4756097560975614
10_51_24_994,2.0,1.0,2.0,-1.0,1.0,-2.0,4.0,1.0,0.9462890625,-0.19091796875,0.2353515625,-1.6463414634146343,-2.987804878048781,-3.780487804878049
10_51_24_994,-6.0,1.0,-2.0,-5.0,1.0,0.0,-3.0,-1.0,0.93701171875,-0.1953125,0.24462890625,-4.085365853658537,-3.353658536585366,-3.963414634146342
10_51_24_994,0.0,1.0,-2.0,5.0,-5.0,0.0,-1.0,0.0,0.935546875,-0.18212890625,0.23828125,-5.487804878048781,-3.1707317073170733,-4.329268292682928
10_51_25_048,0.0,-3.0,9.0,2.0,0.0,-7.0,1.0,-3.0,0.9521484375,-0.162109375,0.234375,-1.402439024390244,0.9146341463414634,4.146341463414634
10_51_25_048,4.0,5.0,4.0,0.0,1.0,1.0,4.0,3.0,0.9501953125,-0.1650390625,0.23095703125,-0.30487804878048785,0.30487804878048785,3.963414634146342
10_51_25_048,1.0,-7.0,-4.0,4.0,1.0,-2.0,-2.0,0.0,0.95068359375,-0.17431640625,0.23583984375,0.1829268292682927,-0.24390243902439027,3.353658536585366
10_51_25_048,1.0,4.0,2.0,-1.0,1.0,-3.0,1.0,-3.0,0.9501953125,-0.17333984375,0.2333984375,0.7317073170731708,-0.7317073170731708,2.25609756097561
10_51_25_048,-2.0,-1.0,1.0,0.0,-1.0,0.0,0.0,2.0,0.95703125,-0.1787109375,0.2373046875,-1.2804878048780488,-1.5853658536585367,1.402439024390244
10_51_25_048,5.0,-1.0,3.0,-1.0,2.0,2.0,-2.0,-1.0,0.9658203125,-0.18798828125,0.23388671875,-4.51219512195122,-1.8902439024390245,0.12195121951219513
10_51_25_048,-3.0,-5.0,-3.0,-3.0,-3.0,-2.0,-3.0,2.0,0.9619140625,-0.1708984375,0.23291015625,-4.207317073170732,-2.073170731707317,-0.9756097560975611
10_51_25_048,0.0,-4.0,-1.0,-2.0,-2.0,-4.0,-4.0,0.0,0.95263671875,-0.1748046875,0.234375,-2.073170731707317,-2.439024390243903,-2.0121951219512195
10_51_25_048,-7.0,-3.0,-4.0,0.0,0.0,-1.0,-4.0,-1.0,0.953125,-0.18359375,0.23095703125,-0.853658536585366,-2.7439024390243905,-2.804878048780488
10_51_25_048,8.0,2.0,7.0,4.0,0.0,2.0,-1.0,3.0,0.94921875,-0.18408203125,0.23681640625,-0.3658536585365854,-2.9268292682926833,-3.4756097560975614
10_51_25_089,-6.0,-6.0,1.0,0.0,-3.0,0.0,-3.0,-3.0,0.9609375,-0.16357421875,0.23876953125,-2.987804878048781,1.707317073170732,4.573170731707317
10_51_25_089,-2.0,-1.0,1.0,-1.0,2.0,0.0,-3.0,-6.0,0.95703125,-0.16357421875,0.2392578125,-2.804878048780488,1.3414634146341464,4.390243902439025
10_51_25_089,0.0,0.0,0.0,-3.0,0.0,-5.0,1.0,1.0,0.9521484375,-0.162109375,0.234375,-1.402439024390244,0.9146341463414634,4.146341463414634
10_51_25_089,10.0,4.0,-1.0,-1.0,0.0,0.0,0.0,-1.0,0.9501953125,-0.1650390625,0.23095703125,-0.30487804878048785,0.30487804878048785,3.963414634146342
10_51_25_089,-2.0,-2.0,-2.0,3.0,0.0,-3.0,-6.0,-2.0,0.95068359375,-0.17431640625,0.23583984375,0.1829268292682927,-0.24390243902439027,3.353658536585366
10_51_25_089,-4.0,-3.0,-3.0,0.0,1.0,-1.0,1.0,1.0,0.9501953125,-0.17333984375,0.2333984375,0.7317073170731708,-0.7317073170731708,2.25609756097561
10_51_25_089,0.0,-3.0,9.0,2.0,0.0,-7.0,1.0,-3.0,0.95703125,-0.1787109375,0.2373046875,-1.2804878048780488,-1.5853658536585367,1.402439024390244
10_51_25_089,4.0,5.0,4.0,0.0,1.0,1.0,4.0,3.0,0.9658203125,-0.18798828125,0.23388671875,-4.51219512195122,-1.8902439024390245,0.12195121951219513
10_51_25_089,1.0,-7.0,-4.0,4.0,1.0,-2.0,-2.0,0.0,0.9619140625,-0.1708984375,0.23291015625,-4.207317073170732,-2.073170731707317,-0.9756097560975611
10_51_25_089,1.0,4.0,2.0,-1.0,1.0,-3.0,1.0,-3.0,0.95263671875,-0.1748046875,0.234375,-2.073170731707317,-2.439024390243903,-2.0121951219512195
10_51_25_132,-1.0,-4.0,-2.0,3.0,-4.0,-1.0,-1.0,2.0,0.95458984375,-0.158203125,0.24169921875,-1.5853658536585367,2.682926829268293,4.207317073170732
10_51_25_132,-6.0,-1.0,1.0,-2.0,1.0,-3.0,-7.0,-3.0,0.9541015625,-0.16064453125,0.2451171875,-1.6463414634146343,2.1951219512195124,4.51219512195122
10_51_25_132,-2.0,1.0,-3.0,-3.0,-1.0,-4.0,0.0,2.0,0.95556640625,-0.1669921875,0.24267578125,-2.5609756097560976,2.0121951219512195,4.573170731707317
10_51_25_132,-1.0,-3.0,0.0,1.0,-1.0,-1.0,2.0,-3.0,0.9609375,-0.16357421875,0.23876953125,-2.987804878048781,1.707317073170732,4.573170731707317
10_51_25_132,2.0,3.0,-3.0,2.0,-1.0,-1.0,0.0,1.0,0.95703125,-0.16357421875,0.2392578125,-2.804878048780488,1.3414634146341464,4.390243902439025
10_51_25_132,-2.0,2.0,-1.0,-3.0,-4.0,2.0,5.0,3.0,0.9521484375,-0.162109375,0.234375,-1.402439024390244,0.9146341463414634,4.146341463414634
10_51_25_132,5.0,-6.0,5.0,3.0,6.0,0.0,1.0,6.0,0.9501953125,-0.1650390625,0.23095703125,-0.30487804878048785,0.30487804878048785,3.963414634146342
10_51_25_132,-4.0,0.0,6.0,3.0,1.0,-2.0,-1.0,0.0,0.95068359375,-0.17431640625,0.23583984375,0.1829268292682927,-0.24390243902439027,3.353658536585366
10_51_25_132,-2.0,0.0,-3.0,5.0,2.0,-1.0,-3.0,-1.0,0.9501953125,-0.17333984375,0.2333984375,0.7317073170731708,-0.7317073170731708,2.25609756097561
10_51_25_132,-12.0,-6.0,-5.0,-1.0,-3.0,-3.0,-7.0,-3.0,0.95703125,-0.1787109375,0.2373046875,-1.2804878048780488,-1.5853658536585367,1.402439024390244
10_51_25_190,0.0,0.0,0.0,-3.0,0.0,5.0,-1.0,-4.0,0.953125,-0.1630859375,0.24267578125,-1.524390243902439,2.6219512195121952,2.804878048780488
10_51_25_190,-2.0,-7.0,2.0,-2.0,4.0,-2.0,0.0,-6.0,0.95263671875,-0.15869140625,0.2421875,-2.5609756097560976,2.6219512195121952,3.2926829268292686
10_51_25_190,3.0,-2.0,0.0,0.0,-3.0,-3.0,-6.0,0.0,0.95703125,-0.16015625,0.240234375,-2.682926829268293,2.7439024390243905,3.658536585365854
10_51_25_190,5.0,-1.0,0.0,4.0,0.0,4.0,0.0,-3.0,0.95458984375,-0.158203125,0.24169921875,-1.5853658536585367,2.682926829268293,4.207317073170732
10_51_25_190,-5.0,0.0,0.0,-4.0,-3.0,-1.0,-6.0,-6.0,0.9541015625,-0.16064453125,0.2451171875,-1.6463414634146343,2.1951219512195124,4.51219512195122
10_51_25_190,-3.0,0.0,-1.0,-1.0,-1.0,-3.0,3.0,1.0,0.95556640625,-0.1669921875,0.24267578125,-2.5609756097560976,2.0121951219512195,4.573170731707317
10_51_25_190,-3.0,6.0,-2.0,1.0,1.0,2.0,2.0,1.0,0.9609375,-0.16357421875,0.23876953125,-2.987804878048781,1.707317073170732,4.573170731707317
10_51_25_190,4.0,-1.0,4.0,-2.0,-3.0,1.0,1.0,-2.0,0.95703125,-0.16357421875,0.2392578125,-2.804878048780488,1.3414634146341464,4.390243902439025
10_51_25_190,-1.0,-4.0,-2.0,3.0,-4.0,-1.0,-1.0,2.0,0.9521484375,-0.162109375,0.234375,-1.402439024390244,0.9146341463414634,4.146341463414634
10_51_25_190,-6.0,-1.0,1.0,-2.0,1.0,-3.0,-7.0,-3.0,0.9501953125,-0.1650390625,0.23095703125,-0.30487804878048785,0.30487804878048785,3.963414634146342
10_51_25_238,-7.0,-1.0,-3.0,-4.0,0.0,-1.0,-3.0,1.0,0.951171875,-0.1650390625,0.2451171875,0.0,2.3170731707317076,2.439024390243903
10_51_25_238,3.0,4.0,4.0,-2.0,2.0,0.0,1.0,-1.0,0.953125,-0.1630859375,0.24267578125,-1.524390243902439,2.6219512195121952,2.804878048780488
10_51_25_238,0.0,-1.0,0.0,-1.0,-2.0,1.0,1.0,-1.0,0.95263671875,-0.15869140625,0.2421875,-2.5609756097560976,2.6219512195121952,3.2926829268292686
10_51_25_238,2.0,-3.0,-4.0,1.0,1.0,1.0,-1.0,-3.0,0.95703125,-0.16015625,0.240234375,-2.682926829268293,2.7439024390243905,3.658536585365854
10_51_25_238,-4.0,2.0,2.0,0.0,-1.0,-3.0,-1.0,4.0,0.95458984375,-0.158203125,0.24169921875,-1.5853658536585367,2.682926829268293,4.207317073170732
10_51_25_238,4.0,-1.0,0.0,-5.0,2.0,-3.0,-3.0,-1.0,0.9541015625,-0.16064453125,0.2451171875,-1.6463414634146343,2.1951219512195124,4.51219512195122
10_51_25_238,2.0,3.0,1.0,-2.0,-2.0,2.0,4.0,-1.0,0.95556640625,-0.1669921875,0.24267578125,-2.5609756097560976,2.0121951219512195,4.573170731707317
10_51_25_238,1.0,-1.0,-1.0,5.0,2.0,3.0,-2.0,-1.0,0.9609375,-0.16357421875,0.23876953125,-2.987804878048781,1.707317073170732,4.573170731707317
10_51_25_238,-6.0,3.0,-1.0,4.0,2.0,1.0,0.0,1.0,0.95703125,-0.16357421875,0.2392578125,-2.804878048780488,1.3414634146341464,4.390243902439025
10_51_25_288,-1.0,-3.0,-1.0,-3.0,0.0,-4.0,1.0,-3.0,0.953125,-0.1572265625,0.240234375,-4.085365853658537,0.7926829268292683,-0.12195121951219513
10_51_25_288,-6.0,-5.0,0.0,0.0,0.0,-2.0,5.0,1.0,0.9482421875,-0.15771484375,0.23876953125,-3.1097560975609757,1.2804878048780488,0.3658536585365854
10_51_25_288,-5.0,0.0,-5.0,-4.0,-3.0,-3.0,1.0,-1.0,0.953125,-0.15234375,0.23486328125,0.0,1.9512195121951221,0.9756097560975611
10_51_25_288,-3.0,-3.0,0.0,-3.0,1.0,-3.0,1.0,-5.0,0.95556640625,-0.16162109375,0.2333984375,1.524390243902439,1.8902439024390245,1.829268292682927
10_51_25_288,0.0,2.0,-1.0,-1.0,-7.0,-1.0,-1.0,1.0,0.951171875,-0.1650390625,0.2451171875,0.0,2.3170731707317076,2.439024390243903
10_51_25_288,0.0,2.0,-5.0,-1.0,1.0,-5.0,0.0,-4.0,0.953125,-0.1630859375,0.24267578125,-1.524390243902439,2.6219512195121952,2.804878048780488
10_51_25_288,0.0,-1.0,1.0,4.0,-1.0,-2.0,-4.0,-1.0,0.95263671875,-0.15869140625,0.2421875,-2.5609756097560976,2.6219512195121952,3.2926829268292686
10_51_25_288,-6.0,0.0,-2.0,-1.0,0.0,-1.0,-2.0,-2.0,0.95703125,-0.16015625,0.240234375,-2.682926829268293,2.7439024390243905,3.658536585365854
10_51_25_288,0.0,0.0,-9.0,-1.0,0.0,-3.0,0.0,-4.0,0.95458984375,-0.158203125,0.24169921875,-1.5853658536585367,2.682926829268293,4.207317073170732
10_51_25_288,9.0,3.0,7.0,0.0,-3.0,-1.0,4.0,0.0,0.9541015625,-0.16064453125,0.2451171875,-1.6463414634146343,2.1951219512195124,4.51219512195122
10_51_25_350,-1.0,-2.0,2.0,0.0,3.0,1.0,4.0,2.0,0.953125,-0.171875,0.24072265625,-2.8658536585365857,0.48780487804878053,-0.853658536585366
10_51_25_350,-1.0,-2.0,-4.0,-2.0,-1.0,-1.0,-3.0,-3.0,0.953125,-0.1572265625,0.240234375,-4.085365853658537,0.7926829268292683,-0.12195121951219513
10_51_25_350,-1.0,-3.0,-1.0,-3.0,0.0,-4.0,1.0,-3.0,0.9482421875,-0.15771484375,0.23876953125,-3.1097560975609757,1.2804878048780488,0.3658536585365854
10_51_25_350,-6.0,-5.0,0.0,0.0,0.0,-2.0,5.0,1.0,0.953125,-0.15234375,0.23486328125,0.0,1.9512195121951221,0.9756097560975611
10_51_25_350,-5.0,0.0,-5.0,-4.0,-3.0,-3.0,1.0,-1.0,0.95556640625,-0.16162109375,0.2333984375,1.524390243902439,1.8902439024390245,1.829268292682927
10_51_25_350,-3.0,-3.0,0.0,-3.0,1.0,-3.0,1.0,-5.0,0.951171875,-0.1650390625,0.2451171875,0.0,2.3170731707317076,2.439024390243903
10_51_25_350,0.0,2.0,-1.0,-1.0,-7.0,-1.0,-1.0,1.0,0.953125,-0.1630859375,0.24267578125,-1.524390243902439,2.6219512195121952,2.804878048780488
10_51_25_350,0.0,2.0,-5.0,-1.0,1.0,-5.0,0.0,-4.0,0.95263671875,-0.15869140625,0.2421875,-2.5609756097560976,2.6219512195121952,3.2926829268292686
10_51_25_350,0.0,-1.0,1.0,4.0,-1.0,-2.0,-4.0,-1.0,0.95703125,-0.16015625,0.240234375,-2.682926829268293,2.7439024390243905,3.658536585365854
10_51_25_350,-6.0,0.0,-2.0,-1.0,0.0,-1.0,-2.0,-2.0,0.95458984375,-0.158203125,0.24169921875,-1.5853658536585367,2.682926829268293,4.207317073170732
10_51_25_386,2.0,1.0,-4.0,1.0,2.0,-3.0,1.0,2.0,0.94140625,-0.14794921875,0.2412109375,-0.7926829268292683,-0.6707317073170732,-3.048780487804878
10_51_25_386,1.0,-3.0,0.0,-4.0,-3.0,-3.0,0.0,1.0,0.9423828125,-0.1552734375,0.232421875,2.073170731707317,-0.426829268292683,-2.6219512195121952
10_51_25_386,0.0,1.0,2.0,-5.0,-1.0,4.0,-5.0,1.0,0.94677734375,-0.16455078125,0.240234375,2.378048780487805,-0.24390243902439027,-1.6463414634146343
10_51_25_386,-7.0,-2.0,-4.0,-4.0,-4.0,-6.0,-1.0,-6.0,0.9443359375,-0.16943359375,0.24267578125,-0.1829268292682927,0.1829268292682927,-1.0975609756097562
10_51_25_386,-7.0,-3.0,-3.0,-1.0,-2.0,1.0,0.0,-1.0,0.953125,-0.171875,0.24072265625,-2.8658536585365857,0.48780487804878053,-0.853658536585366
10_51_25_386,0.0,-3.0,1.0,-7.0,-3.0,-1.0,-2.0,1.0,0.953125,-0.1572265625,0.240234375,-4.085365853658537,0.7926829268292683,-0.12195121951219513
10_51_25_386,2.0,4.0,3.0,-2.0,0.0,-2.0,3.0,-1.0,0.9482421875,-0.15771484375,0.23876953125,-3.1097560975609757,1.2804878048780488,0.3658536585365854
10_51_25_386,1.0,-5.0,0.0,-1.0,-4.0,-3.0,-2.0,-2.0,0.953125,-0.15234375,0.23486328125,0.0,1.9512195121951221,0.9756097560975611
10_51_25_386,1.0,1.0,-2.0,0.0,-1.0,-5.0,1.0,0.0,0.95556640625,-0.16162109375,0.2333984375,1.524390243902439,1.8902439024390245,1.829268292682927
10_51_25_386,2.0,-3.0,-1.0,-2.0,-5.0,0.0,0.0,1.0,0.951171875,-0.1650390625,0.2451171875,0.0,2.3170731707317076,2.439024390243903
10_51_25_448,-2.0,-1.0,-4.0,4.0,0.0,3.0,-1.0,3.0,0.94287109375,-0.16845703125,0.24609375,-4.207317073170732,-1.0365853658536586,-3.536585365853659
10_51_25_448,-3.0,-2.0,-2.0,-1.0,0.0,-3.0,-3.0,-8.0,0.9423828125,-0.15673828125,0.244140625,-3.7195121951219514,-0.853658536585366,-3.353658536585366
10_51_25_448,-1.0,-1.0,2.0,-1.0,-2.0,-3.0,-2.0,-1.0,0.94140625,-0.14794921875,0.2412109375,-0.7926829268292683,-0.6707317073170732,-3.048780487804878
10_51_25_448,1.0,1.0,-3.0,2.0,-3.0,-1.0,1.0,1.0,0.9423828125,-0.1552734375,0.232421875,2.073170731707317,-0.426829268292683,-2.6219512195121952
10_51_25_448,0.0,-3.0,4.0,-1.0,1.0,0.0,3.0,-1.0,0.94677734375,-0.16455078125,0.240234375,2.378048780487805,-0.24390243902439027,-1.6463414634146343
10_51_25_448,1.0,-5.0,1.0,-1.0,2.0,0.0,0.0,-2.0,0.9443359375,-0.16943359375,0.24267578125,-0.1829268292682927,0.1829268292682927,-1.0975609756097562
10_51_25_448,1.0,-3.0,1.0,-3.0,0.0,-3.0,3.0,-1.0,0.953125,-0.171875,0.24072265625,-2.8658536585365857,0.48780487804878053,-0.853658536585366
10_51_25_448,-2.0,0.0,-3.0,0.0,3.0,2.0,-2.0,-1.0,0.953125,-0.1572265625,0.240234375,-4.085365853658537,0.7926829268292683,-0.12195121951219513
10_51_25_448,3.0,-1.0,0.0,-2.0,-1.0,-1.0,4.0,-6.0,0.9482421875,-0.15771484375,0.23876953125,-3.1097560975609757,1.2804878048780488,0.3658536585365854
10_51_25_448,-4.0,-2.0,-3.0,-4.0,0.0,-1.0,-1.0,-5.0,0.953125,-0.15234375,0.23486328125,0.0,1.9512195121951221,0.9756097560975611
10_51_25_500,5.0,1.0,0.0,0.0,-5.0,1.0,3.0,4.0,0.9306640625,-0.17138671875,0.24072265625,-1.0975609756097562,-1.402439024390244,-4.75609756097561
10_51_25_500,2.0,0.0,0.0,-3.0,1.0,0.0,3.0,3.0,0.9326171875,-0.1708984375,0.24609375,-0.7926829268292683,-1.0975609756097562,-4.146341463414634
10_51_25_500,-3.0,-4.0,-4.0,1.0,-1.0,-1.0,-4.0,1.0,0.9345703125,-0.166015625,0.2470703125,-2.5609756097560976,-1.0975609756097562,-3.658536585365854
10_51_25_500,-6.0,-4.0,-3.0,-4.0,-3.0,0.0,-8.0,-8.0,0.94287109375,-0.16845703125,0.24609375,-4.207317073170732,-1.0365853658536586,-3.536585365853659
10_51_25_500,1.0,-2.0,4.0,3.0,1.0,-4.0,-4.0,-2.0,0.9423828125,-0.15673828125,0.244140625,-3.7195121951219514,-0.853658536585366,-3.353658536585366
10_51_25_500,7.0,3.0,5.0,4.0,5.0,-1.0,5.0,1.0,0.94140625,-0.14794921875,0.2412109375,-0.7926829268292683,-0.6707317073170732,-3.048780487804878
10_51_25_500,-3.0,1.0,-2.0,1.0,2.0,0.0,-4.0,-1.0,0.9423828125,-0.1552734375,0.232421875,2.073170731707317,-0.426829268292683,-2.6219512195121952
10_51_25_500,-4.0,-4.0,-2.0,0.0,-5.0,-5.0,-1.0,-2.0,0.94677734375,-0.16455078125,0.240234375,2.378048780487805,-0.24390243902439027,-1.6463414634146343
10_51_25_500,1.0,1.0,4.0,3.0,2.0,2.0,3.0,-3.0,0.9443359375,-0.16943359375,0.24267578125,-0.1829268292682927,0.1829268292682927,-1.0975609756097562
10_51_25_500,4.0,-2.0,0.0,-1.0,-1.0,-1.0,3.0,3.0,0.953125,-0.171875,0.24072265625,-2.8658536585365857,0.48780487804878053,-0.853658536585366
10_51_25_539,0.0,-5.0,-1.0,-2.0,-4.0,0.0,-1.0,-1.0,0.9501953125,-0.18994140625,0.2451171875,1.524390243902439,-3.658536585365854,-5.609756097560976
10_51_25_539,-4.0,-6.0,-8.0,2.0,-1.0,0.0,-8.0,-2.0,0.94189453125,-0.1904296875,0.24658203125,-1.0365853658536586,-2.9268292682926833,-5.2439024390243905
10_51_25_539,-2.0,-5.0,-5.0,-4.0,-1.0,-4.0,-1.0,0.0,0.93017578125,-0.17431640625,0.24462890625,-1.6463414634146343,-2.1951219512195124,-5.0
10_51_25_539,5.0,-2.0,0.0,2.0,2.0,1.0,4.0,-1.0,0.9306640625,-0.17138671875,0.24072265625,-1.0975609756097562,-1.402439024390244,-4.75609756097561
10_51_25_539,-6.0,-3.0,-3.0,-6.0,-3.0,-1.0,0.0,-3.0,0.9326171875,-0.1708984375,0.24609375,-0.7926829268292683,-1.0975609756097562,-4.146341463414634
10_51_25_539,1.0,0.0,-2.0,-3.0,1.0,1.0,1.0,-1.0,0.9345703125,-0.166015625,0.2470703125,-2.5609756097560976,-1.0975609756097562,-3.658536585365854
10_51_25_539,-5.0,-4.0,2.0,0.0,2.0,-4.0,-3.0,1.0,0.94287109375,-0.16845703125,0.24609375,-4.207317073170732,-1.0365853658536586,-3.536585365853659
10_51_25_539,0.0,-1.0,2.0,1.0,-3.0,-3.0,1.0,0.0,0.9423828125,-0.15673828125,0.244140625,-3.7195121951219514,-0.853658536585366,-3.353658536585366
10_51_25_539,1.0,-4.0,-2.0,4.0,-4.0,1.0,4.0,2.0,0.94140625,-0.14794921875,0.2412109375,-0.7926829268292683,-0.6707317073170732,-3.048780487804878
10_51_25_539,-2.0,-4.0,-2.0,-3.0,0.0,-4.0,1.0,-2.0,0.9423828125,-0.1552734375,0.232421875,2.073170731707317,-0.426829268292683,-2.6219512195121952
10_51_25_599,-1.0,-4.0,1.0,-2.0,-5.0,-4.0,-6.0,-1.0,0.9501953125,-0.18994140625,0.2451171875,1.524390243902439,-3.658536585365854,-5.609756097560976
10_51_25_599,-9.0,-5.0,-1.0,-3.0,0.0,-3.0,-2.0,-3.0,0.94189453125,-0.1904296875,0.24658203125,-1.0365853658536586,-2.9268292682926833,-5.2439024390243905
10_51_25_599,7.0,0.0,2.0,3.0,3.0,0.0,4.0,-4.0,0.93017578125,-0.17431640625,0.24462890625,-1.6463414634146343,-2.1951219512195124,-5.0
10_51_25_599,0.0,-5.0,-1.0,-2.0,-4.0,0.0,-1.0,-1.0,0.9306640625,-0.17138671875,0.24072265625,-1.0975609756097562,-1.402439024390244,-4.75609756097561
10_51_25_599,-4.0,-6.0,-8.0,2.0,-1.0,0.0,-8.0,-2.0,0.9326171875,-0.1708984375,0.24609375,-0.7926829268292683,-1.0975609756097562,-4.146341463414634
10_51_25_599,-2.0,-5.0,-5.0,-4.0,-1.0,-4.0,-1.0,0.0,0.9345703125,-0.166015625,0.2470703125,-2.5609756097560976,-1.0975609756097562,-3.658536585365854
10_51_25_599,5.0,-2.0,0.0,2.0,2.0,1.0,4.0,-1.0,0.94287109375,-0.16845703125,0.24609375,-4.207317073170732,-1.0365853658536586,-3.536585365853659
10_51_25_599,-6.0,-3.0,-3.0,-6.0,-3.0,-1.0,0.0,-3.0,0.9423828125,-0.15673828125,0.244140625,-3.7195121951219514,-0.853658536585366,-3.353658536585366
10_51_25_599,1.0,0.0,-2.0,-3.0,1.0,1.0,1.0,-1.0,0.94140625,-0.14794921875,0.2412109375,-0.7926829268292683,-0.6707317073170732,-3.048780487804878
10_51_25_643,0.0,3.0,-8.0,2.0,-2.0,0.0,3.0,3.0,0.95458984375,-0.17041015625,0.2275390625,-2.7439024390243905,-3.1097560975609757,-2.073170731707317
10_51_25_643,-4.0,-5.0,-2.0,-1.0,-4.0,-3.0,-3.0,-6.0,0.9541015625,-0.1591796875,0.23046875,-2.378048780487805,-3.658536585365854,-3.4756097560975614
10_51_25_643,0.0,-2.0,-3.0,0.0,-2.0,1.0,-5.0,-1.0,0.95263671875,-0.17041015625,0.22900390625,0.06097560975609757,-3.7195121951219514,-5.060975609756098
10_51_25_643,-4.0,-3.0,-2.0,-6.0,-2.0,-1.0,1.0,-2.0,0.953125,-0.17236328125,0.236328125,2.1341463414634148,-3.536585365853659,-5.670731707317073
10_51_25_643,-5.0,-3.0,-1.0,-2.0,-5.0,-1.0,-5.0,-3.0,0.9501953125,-0.18994140625,0.2451171875,1.524390243902439,-3.658536585365854,-5.609756097560976
10_51_25_643,-2.0,-5.0,0.0,-2.0,-3.0,-5.0,-2.0,1.0,0.94189453125,-0.1904296875,0.24658203125,-1.0365853658536586,-2.9268292682926833,-5.2439024390243905
10_51_25_643,-1.0,-1.0,6.0,0.0,2.0,2.0,-2.0,-3.0,0.93017578125,-0.17431640625,0.24462890625,-1.6463414634146343,-2.1951219512195124,-5.0
10_51_25_643,-5.0,-1.0,-4.0,-1.0,3.0,0.0,-2.0,-3.0,0.9306640625,-0.17138671875,0.24072265625,-1.0975609756097562,-1.402439024390244,-4.75609756097561
10_51_25_643,-4.0,-2.0,-1.0,-4.0,1.0,3.0,0.0,0.0,0.9326171875,-0.1708984375,0.24609375,-0.7926829268292683,-1.0975609756097562,-4.146341463414634
10_51_25_706,-1.0,-2.0,-6.0,-7.0,4.0,1.0,-1.0,-1.0,0.9482421875,-0.16943359375,0.23828125,-1.6463414634146343,-0.6707317073170732,2.0121951219512195
10_51_25_706,3.0,-1.0,4.0,4.0,-3.0,-2.0,3.0,2.0,0.953125,-0.1591796875,0.22998046875,-0.9756097560975611,-1.1585365853658538,0.7926829268292683
10_51_25_706,-5.0,-1.0,2.0,3.0,-1.0,-1.0,-1.0,2.0,0.94921875,-0.16552734375,0.2265625,-1.3414634146341464,-2.1951219512195124,-0.5487804878048781
10_51_25_706,-1.0,-2.0,0.0,-3.0,0.0,0.0,-2.0,1.0,0.95458984375,-0.17041015625,0.2275390625,-2.7439024390243905,-3.1097560975609757,-2.073170731707317
10_51_25_706,-6.0,-1.0,-1.0,3.0,-1.0,0.0,-7.0,-3.0,0.9541015625,-0.1591796875,0.23046875,-2.378048780487805,-3.658536585365854,-3.4756097560975614
10_51_25_706,1.0,4.0,-2.0,-5.0,-2.0,-1.0,-1.0,1.0,0.95263671875,-0.17041015625,0.22900390625,0.06097560975609757,-3.7195121951219514,-5.060975609756098
10_51_25_706,4.0,0.0,1.0,-2.0,-2.0,-2.0,0.0,3.0,0.953125,-0.17236328125,0.236328125,2.1341463414634148,-3.536585365853659,-5.670731707317073
10_51_25_706,-2.0,-2.0,1.0,-2.0,3.0,-4.0,0.0,2.0,0.9501953125,-0.18994140625,0.2451171875,1.524390243902439,-3.658536585365854,-5.609756097560976
10_51_25_706,-1.0,-4.0,4.0,1.0,1.0,-2.0,-4.0,-4.0,0.94189453125,-0.1904296875,0.24658203125,-1.0365853658536586,-2.9268292682926833,-5.2439024390243905
10_51_25_706,0.0,3.0,-8.0,2.0,-2.0,0.0,3.0,3.0,0.93017578125,-0.17431640625,0.24462890625,-1.6463414634146343,-2.1951219512195124,-5.0
10_51_25_751,1.0,-3.0,-4.0,1.0,-5.0,-1.0,-1.0,2.0,0.94921875,-0.17529296875,0.236328125,1.524390243902439,0.6097560975609757,3.536585365853659
10_51_25_751,4.0,-1.0,1.0,2.0,-1.0,1.0,-3.0,4.0,0.94580078125,-0.1650390625,0.2373046875,0.12195121951219513,0.48780487804878053,3.1707317073170733
10_51_25_751,1.0,-3.0,1.0,2.0,-3.0,-2.0,-2.0,-9.0,0.943359375,-0.17333984375,0.23486328125,-1.0365853658536586,-0.06097560975609757,2.6219512195121952
10_51_25_751,-3.0,-1.0,-4.0,1.0,1.0,1.0,-3.0,-3.0,0.9482421875,-0.16943359375,0.23828125,-1.6463414634146343,-0.6707317073170732,2.0121951219512195
10_51_25_751,-3.0,-4.0,-3.0,-2.0,-2.0,-5.0,-6.0,1.0,0.953125,-0.1591796875,0.22998046875,-0.9756097560975611,-1.1585365853658538,0.7926829268292683
10_51_25_751,5.0,2.0,-2.0,-1.0,-1.0,-3.0,-1.0,-4.0,0.94921875,-0.16552734375,0.2265625,-1.3414634146341464,-2.1951219512195124,-0.5487804878048781
10_51_25_751,-3.0,-4.0,1.0,-1.0,2.0,3.0,1.0,2.0,0.95458984375,-0.17041015625,0.2275390625,-2.7439024390243905,-3.1097560975609757,-2.073170731707317
10_51_25_751,-10.0,-1.0,2.0,-4.0,-1.0,-1.0,-4.0,-1.0,0.9541015625,-0.1591796875,0.23046875,-2.378048780487805,-3.658536585365854,-3.4756097560975614
10_51_25_751,-4.0,3.0,-6.0,0.0,-2.0,1.0,-1.0,-3.0,0.95263671875,-0.17041015625,0.22900390625,0.06097560975609757,-3.7195121951219514,-5.060975609756098
10_51_25_751,7.0,-3.0,-2.0,-1.0,-3.0,1.0,0.0,-2.0,0.953125,-0.17236328125,0.236328125,2.1341463414634148,-3.536585365853659,-5.670731707317073
10_51_25_796,-4.0,-4.0,-8.0,-1.0,2.0,-5.0,-2.0,-1.0,0.9560546875,-0.1494140625,0.23583984375,1.829268292682927,0.7926829268292683,3.536585365853659
10_51_25_796,-5.0,-1.0,-3.0,-4.0,-1.0,0.0,-4.0,-3.0,0.95751953125,-0.16650390625,0.24169921875,2.7439024390243905,0.7926829268292683,3.4756097560975614
10_51_25_796,-11.0,-6.0,-1.0,-1.0,2.0,-2.0,-2.0,-1.0,0.94921875,-0.17529296875,0.236328125,1.524390243902439,0.6097560975609757,3.536585365853659
10_51_25_796,5.0,3.0,5.0,-1.0,-2.0,1.0,4.0,1.0,0.94580078125,-0.1650390625,0.2373046875,0.12195121951219513,0.48780487804878053,3.1707317073170733
10_51_25_796,-3.0,-6.0,1.0,-4.0,-4.0,-2.0,-3.0,-2.0,0.943359375,-0.17333984375,0.23486328125,-1.0365853658536586,-0.06097560975609757,2.6219512195121952
10_51_25_796,0.0,-1.0,-1.0,0.0,-2.0,-4.0,-1.0,0.0,0.9482421875,-0.16943359375,0.23828125,-1.6463414634146343,-0.6707317073170732,2.0121951219512195
10_51_25_796,-6.0,-4.0,-4.0,-4.0,-1.0,-6.0,-3.0,-2.0,0.953125,-0.1591796875,0.22998046875,-0.9756097560975611,-1.1585365853658538,0.7926829268292683
10_51_25_796,3.0,3.0,1.0,2.0,0.0,0.0,-1.0,-5.0,0.94921875,-0.16552734375,0.2265625,-1.3414634146341464,-2.1951219512195124,-0.5487804878048781
10_51_25_796,0.0,-4.0,-4.0,1.0,0.0,0.0,-2.0,-2.0,0.95458984375,-0.17041015625,0.2275390625,-2.7439024390243905,-3.1097560975609757,-2.073170731707317
10_51_25_796,-3.0,-4.0,4.0,-3.0,3.0,3.0,0.0,-7.0,0.9541015625,-0.1591796875,0.23046875,-2.378048780487805,-3.658536585365854,-3.4756097560975614
10_51_25_850,1.0,0.0,-3.0,1.0,-1.0,3.0,1.0,3.0,0.94775390625,-0.15380859375,0.24462890625,-0.48780487804878053,0.853658536585366,3.9024390243902443
10_51_25_850,-5.0,-6.0,0.0,-2.0,-6.0,-4.0,-6.0,-5.0,0.9560546875,-0.1494140625,0.23583984375,1.829268292682927,0.7926829268292683,3.536585365853659
10_51_25_850,-10.0,-2.0,2.0,-1.0,2.0,-2.0,-5.0,0.0,0.95751953125,-0.16650390625,0.24169921875,2.7439024390243905,0.7926829268292683,3.4756097560975614
10_51_25_850,1.0,1.0,-3.0,-5.0,-2.0,-5.0,0.0,-2.0,0.94921875,-0.17529296875,0.236328125,1.524390243902439,0.6097560975609757,3.536585365853659
10_51_25_850,11.0,5.0,5.0,2.0,0.0,0.0,4.0,-2.0,0.94580078125,-0.1650390625,0.2373046875,0.12195121951219513,0.48780487804878053,3.1707317073170733
10_51_25_850,-4.0,-4.0,-8.0,-1.0,2.0,-5.0,-2.0,-1.0,0.943359375,-0.17333984375,0.23486328125,-1.0365853658536586,-0.06097560975609757,2.6219512195121952
10_51_25_850,-5.0,-1.0,-3.0,-4.0,-1.0,0.0,-4.0,-3.0,0.9482421875,-0.16943359375,0.23828125,-1.6463414634146343,-0.6707317073170732,2.0121951219512195
10_51_25_850,-11.0,-6.0,-1.0,-1.0,2.0,-2.0,-2.0,-1.0,0.953125,-0.1591796875,0.22998046875,-0.9756097560975611,-1.1585365853658538,0.7926829268292683
10_51_25_850,5.0,3.0,5.0,-1.0,-2.0,1.0,4.0,1.0,0.94921875,-0.16552734375,0.2265625,-1.3414634146341464,-2.1951219512195124,-0.5487804878048781
10_51_25_901,-3.0,2.0,-1.0,2.0,-4.0,1.0,-3.0,-1.0,0.9521484375,-0.17138671875,0.24267578125,0.24390243902439027,1.0365853658536586,4.146341463414634
10_51_25_901,-7.0,2.0,-2.0,-5.0,0.0,-4.0,-1.0,-4.0,0.955078125,-0.16015625,0.23681640625,-1.9512195121951221,0.9146341463414634,4.146341463414634
10_51_25_901,-5.0,-1.0,-3.0,-1.0,2.0,-2.0,1.0,-2.0,0.94775390625,-0.15380859375,0.24462890625,-0.48780487804878053,0.853658536585366,3.9024390243902443
10_51_25_901,0.0,-8.0,0.0,-2.0,1.0,2.0,-4.0,2.0,0.9560546875,-0.1494140625,0.23583984375,1.829268292682927,0.7926829268292683,3.536585365853659
10_51_25_901,-1.0,-3.0,-3.0,-7.0,-4.0,1.0,0.0,-7.0,0.95751953125,-0.16650390625,0.24169921875,2.7439024390243905,0.7926829268292683,3.4756097560975614
10_51_25_901,0.0,0.0,0.0,-2.0,1.0,-3.0,2.0,-2.0,0.94921875,-0.17529296875,0.236328125,1.524390243902439,0.6097560975609757,3.536585365853659
10_51_25_901,3.0,4.0,1.0,0.0,1.0,1.0,6.0,3.0,0.94580078125,-0.1650390625,0.2373046875,0.12195121951219513,0.48780487804878053,3.1707317073170733
10_51_25_901,-4.0,-1.0,2.0,-1.0,-4.0,0.0,2.0,-2.0,0.943359375,-0.17333984375,0.23486328125,-1.0365853658536586,-0.06097560975609757,2.6219512195121952
10_51_25_901,-8.0,-5.0,-2.0,-2.0,-2.0,-2.0,-6.0,-2.0,0.9482421875,-0.16943359375,0.23828125,-1.6463414634146343,-0.6707317073170732,2.0121951219512195
10_51_25_948,2.0,1.0,3.0,5.0,2.0,0.0,1.0,4.0,0.9453125,-0.15283203125,0.23974609375,2.0121951219512195,0.5487804878048781,3.1707317073170733
10_51_25_948,-5.0,-1.0,0.0,-3.0,-1.0,-2.0,-5.0,-3.0,0.94921875,-0.169921875,0.24169921875,3.963414634146342,1.2195121951219514,3.8414634146341466
10_51_25_948,3.0,-1.0,-3.0,1.0,3.0,3.0,0.0,1.0,0.9521484375,-0.17138671875,0.24267578125,0.24390243902439027,1.0365853658536586,4.146341463414634
10_51_25_948,-4.0,0.0,-4.0,4.0,2.0,0.0,5.0,1.0,0.955078125,-0.16015625,0.23681640625,-1.9512195121951221,0.9146341463414634,4.146341463414634
10_51_25_948,-4.0,-1.0,0.0,-3.0,3.0,1.0,-2.0,-8.0,0.94775390625,-0.15380859375,0.24462890625,-0.48780487804878053,0.853658536585366,3.9024390243902443
10_51_25_948,-1.0,0.0,-3.0,-2.0,4.0,-1.0,2.0,-3.0,0.9560546875,-0.1494140625,0.23583984375,1.829268292682927,0.7926829268292683,3.536585365853659
10_51_25_948,-3.0,-3.0,-4.0,-4.0,-5.0,-2.0,-5.0,0.0,0.95751953125,-0.16650390625,0.24169921875,2.7439024390243905,0.7926829268292683,3.4756097560975614
10_51_25_948,0.0,-2.0,-3.0,1.0,-2.0,0.0,0.0,0.0,0.94921875,-0.17529296875,0.236328125,1.524390243902439,0.6097560975609757,3.536585365853659
10_51_26_011,0.0,-1.0,-1.0,-3.0,-2.0,1.0,1.0,2.0,0.94384765625,-0.1630859375,0.24462890625,-0.426829268292683,-0.24390243902439027,2.0121951219512195
10_51_26_011,0.0,-1.0,-4.0,0.0,0.0,-2.0,-4.0,1.0,0.9443359375,-0.16015625,0.24658203125,0.24390243902439027,0.06097560975609757,2.5
10_51_26_011,6.0,-3.0,-3.0,-4.0,2.0,0.0,5.0,0.0,0.9453125,-0.15283203125,0.23974609375,2.0121951219512195,0.5487804878048781,3.1707317073170733
10_51_26_011,-5.0,-2.0,-6.0,0.0,3.0,-3.0,-3.0,-4.0,0.94921875,-0.169921875,0.24169921875,3.963414634146342,1.2195121951219514,3.8414634146341466
10_51_26_011,-5.0,-5.0,-5.0,-1.0,-1.0,-2.0,1.0,-1.0,0.9521484375,-0.17138671875,0.24267578125,0.24390243902439027,1.0365853658536586,4.146341463414634
10_51_26_011,-1.0,0.0,-3.0,0.0,-3.0,2.0,-2.0,4.0,0.955078125,-0.16015625,0.23681640625,-1.9512195121951221,0.9146341463414634,4.146341463414634
10_51_26_011,-3.0,-2.0,-3.0,2.0,-1.0,-3.0,-4.0,-2.0,0.94775390625,-0.15380859375,0.24462890625,-0.48780487804878053,0.853658536585366,3.9024390243902443
10_51_26_011,2.0,1.0,3.0,5.0,2.0,0.0,1.0,4.0,0.9560546875,-0.1494140625,0.23583984375,1.829268292682927,0.7926829268292683,3.536585365853659
10_51_26_011,-5.0,-1.0,0.0,-3.0,-1.0,-2.0,-5.0,-3.0,0.95751953125,-0.16650390625,0.24169921875,2.7439024390243905,0.7926829268292683,3.4756097560975614
10_51_26_054,0.0,0.0,-3.0,-1.0,0.0,0.0,2.0,3.0,0.9501953125,-0.15380859375,0.23486328125,2.9268292682926833,-0.9756097560975611,0.853658536585366
10_51_26_054,-6.0,-2.0,-4.0,0.0,-5.0,-1.0,-6.0,-1.0,0.94677734375,-0.1630859375,0.23876953125,2.5609756097560976,-0.7926829268292683,1.2195121951219514
10_51_26_054,4.0,2.0,-4.0,-1.0,-1.0,-1.0,5.0,6.0,0.94677734375,-0.16748046875,0.23876953125,0.9756097560975611,-0.7317073170731708,1.829268292682927
10_51_26_054,0.0,-4.0,-2.0,-3.0,0.0,-4.0,-2.0,-1.0,0.94384765625,-0.1630859375,0.24462890625,-0.426829268292683,-0.24390243902439027,2.0121951219512195
10_51_26_054,0.0,-4.0,-3.0,3.0,0.0,-1.0,-3.0,-1.0,0.9443359375,-0.16015625,0.24658203125,0.24390243902439027,0.06097560975609757,2.5
10_51_26_054,-1.0,2.0,-2.0,0.0,0.0,0.0,-1.0,0.0,0.9453125,-0.15283203125,0.23974609375,2.0121951219512195,0.5487804878048781,3.1707317073170733
10_51_26_054,3.0,3.0,1.0,3.0,1.0,-1.0,1.0,-2.0,0.94921875,-0.169921875,0.24169921875,3.963414634146342,1.2195121951219514,3.8414634146341466
10_51_26_054,0.0,4.0,4.0,-3.0,0.0,0.0,0.0,-1.0,0.9521484375,-0.17138671875,0.24267578125,0.24390243902439027,1.0365853658536586,4.146341463414634
10_51_26_100,2.0,-2.0,3.0,-1.0,2.0,0.0,0.0,-4.0,0.9443359375,-0.15478515625,0.23388671875,0.5487804878048781,-1.0975609756097562,0.6707317073170732
10_51_26_100,-6.0,-1.0,5.0,-2.0,-4.0,-2.0,0.0,-1.0,0.947265625,-0.1533203125,0.23828125,2.1951219512195124,-0.9756097560975611,0.7317073170731708
10_51_26_100,-1.0,1.0,-6.0,-3.0,-2.0,-2.0,2.0,2.0,0.9501953125,-0.15380859375,0.23486328125,2.9268292682926833,-0.9756097560975611,0.853658536585366
10_51_26_100,1.0,-1.0,0.0,-1.0,-1.0,-1.0,0.0,2.0,0.94677734375,-0.1630859375,0.23876953125,2.5609756097560976,-0.7926829268292683,1.2195121951219514
10_51_26_100,1.0,-1.0,0.0,1.0,1.0,-1.0,-3.0,1.0,0.94677734375,-0.16748046875,0.23876953125,0.9756097560975611,-0.7317073170731708,1.829268292682927
10_51_26_100,-7.0,-3.0,-2.0,0.0,-5.0,0.0,-6.0,2.0,0.94384765625,-0.1630859375,0.24462890625,-0.426829268292683,-0.24390243902439027,2.0121951219512195
10_51_26_100,3.0,0.0,0.0,-6.0,1.0,-3.0,-2.0,-4.0,0.9443359375,-0.16015625,0.24658203125,0.24390243902439027,0.06097560975609757,2.5
10_51_26_100,-3.0,0.0,1.0,1.0,-2.0,-1.0,-4.0,-3.0,0.9453125,-0.15283203125,0.23974609375,2.0121951219512195,0.5487804878048781,3.1707317073170733
10_51_26_157,0.0,-2.0,1.0,0.0,-3.0,-2.0,-3.0,-5.0,0.95068359375,-0.1572265625,0.228515625,-0.853658536585366,-0.7926829268292683,-0.12195121951219513
10_51_26_157,2.0,-2.0,3.0,4.0,4.0,3.0,-3.0,1.0,0.955078125,-0.1591796875,0.2265625,-0.1829268292682927,-0.7317073170731708,0.0
10_51_26_157,-10.0,0.0,-2.0,-1.0,-2.0,0.0,-4.0,-6.0,0.95068359375,-0.1650390625,0.2275390625,-0.1829268292682927,-0.7317073170731708,0.48780487804878053
10_51_26_157,2.0,-1.0,-3.0,-3.0,-1.0,-4.0,-3.0,-1.0,0.95361328125,-0.15478515625,0.2294921875,-0.6707317073170732,-0.9756097560975611,0.7317073170731708
10_51_26_157,-4.0,-6.0,1.0,-1.0,-2.0,-4.0,-1.0,-7.0,0.9443359375,-0.15478515625,0.23388671875,0.5487804878048781,-1.0975609756097562,0.6707317073170732
10_51_26_157,3.0,3.0,1.0,5.0,0.0,-3.0,1.0,0.0,0.947265625,-0.1533203125,0.23828125,2.1951219512195124,-0.9756097560975611,0.7317073170731708
10_51_26_157,-4.0,0.0,0.0,-1.0,-2.0,-2.0,-1.0,-7.0,0.9501953125,-0.15380859375,0.23486328125,2.9268292682926833,-0.9756097560975611,0.853658536585366
10_51_26_157,4.0,-2.0,2.0,3.0,-3.0,-2.0,5.0,3.0,0.94677734375,-0.1630859375,0.23876953125,2.5609756097560976,-0.7926829268292683,1.2195121951219514
10_51_26_157,-3.0,-2.0,0.0,-5.0,-4.0,-3.0,-3.0,1.0,0.94677734375,-0.16748046875,0.23876953125,0.9756097560975611,-0.7317073170731708,1.829268292682927
10_51_26_209,2.0,2.0,-3.0,4.0,-1.0,-5.0,2.0,0.0,0.94482421875,-0.15380859375,0.2294921875,-2.378048780487805,-0.853658536585366,0.1829268292682927
10_51_26_209,5.0,0.0,1.0,0.0,2.0,3.0,0.0,0.0,0.9482421875,-0.15478515625,0.234375,-1.707317073170732,-0.7317073170731708,0.0
10_51_26_209,-7.0,-6.0,1.0,-5.0,0.0,-2.0,-3.0,1.0,0.95068359375,-0.1572265625,0.228515625,-0.853658536585366,-0.7926829268292683,-0.12195121951219513
10_51_26_209,-1.0,-2.0,-5.0,4.0,1.0,0.0,-4.0,-6.0,0.955078125,-0.1591796875,0.2265625,-0.1829268292682927,-0.7317073170731708,0.0
10_51_26_209,1.0,2.0,1.0,0.0,-1.0,0.0,-3.0,1.0,0.95068359375,-0.1650390625,0.2275390625,-0.1829268292682927,-0.7317073170731708,0.48780487804878053
10_51_26_209,8.0,5.0,1.0,-6.0,0.0,1.0,5.0,1.0,0.95361328125,-0.15478515625,0.2294921875,-0.6707317073170732,-0.9756097560975611,0.7317073170731708
10_51_26_209,-5.0,-9.0,-3.0,-4.0,-2.0,-4.0,-1.0,0.0,0.9443359375,-0.15478515625,0.23388671875,0.5487804878048781,-1.0975609756097562,0.6707317073170732
10_51_26_209,0.0,-2.0,-4.0,3.0,-2.0,-1.0,-2.0,1.0,0.947265625,-0.1533203125,0.23828125,2.1951219512195124,-0.9756097560975611,0.7317073170731708
10_51_26_209,0.0,-2.0,1.0,0.0,-3.0,-2.0,-3.0,-5.0,0.9501953125,-0.15380859375,0.23486328125,2.9268292682926833,-0.9756097560975611,0.853658536585366
10_51_26_265,4.0,0.0,-4.0,-1.0,0.0,1.0,3.0,2.0,0.9560546875,-0.16552734375,0.23876953125,-2.5609756097560976,-1.0975609756097562,-0.06097560975609757
10_51_26_265,2.0,3.0,-5.0,-1.0,0.0,-1.0,2.0,0.0,0.947265625,-0.1650390625,0.23095703125,-2.987804878048781,-0.7317073170731708,0.1829268292682927
10_51_26_265,-4.0,-3.0,1.0,-1.0,2.0,1.0,-1.0,-4.0,0.94482421875,-0.15771484375,0.22802734375,-2.682926829268293,-0.6707317073170732,0.3658536585365854
10_51_26_265,1.0,-2.0,0.0,0.0,-2.0,1.0,2.0,0.0,0.94482421875,-0.15380859375,0.2294921875,-2.378048780487805,-0.853658536585366,0.1829268292682927
10_51_26_265,2.0,0.0,-2.0,-4.0,-3.0,-3.0,0.0,3.0,0.9482421875,-0.15478515625,0.234375,-1.707317073170732,-0.7317073170731708,0.0
10_51_26_265,-4.0,0.0,0.0,-2.0,-1.0,0.0,-5.0,0.0,0.95068359375,-0.1572265625,0.228515625,-0.853658536585366,-0.7926829268292683,-0.12195121951219513
10_51_26_265,-6.0,-7.0,-5.0,-1.0,-1.0,-2.0,-5.0,-5.0,0.955078125,-0.1591796875,0.2265625,-0.1829268292682927,-0.7317073170731708,0.0
10_51_26_265,-5.0,-1.0,-3.0,-2.0,-1.0,-5.0,-2.0,-3.0,0.95068359375,-0.1650390625,0.2275390625,-0.1829268292682927,-0.7317073170731708,0.48780487804878053
10_51_26_265,-1.0,1.0,-4.0,-6.0,0.0,1.0,3.0,-1.0,0.95361328125,-0.15478515625,0.2294921875,-0.6707317073170732,-0.9756097560975611,0.7317073170731708
10_51_26_306,-7.0,-4.0,0.0,-2.0,-4.0,-4.0,0.0,-3.0,0.94775390625,-0.16015625,0.23046875,-3.414634146341464,-1.707317073170732,0.1829268292682927
10_51_26_306,8.0,6.0,-1.0,-1.0,-3.0,-4.0,1.0,2.0,0.95068359375,-0.15087890625,0.2314453125,-1.707317073170732,-1.7682926829268295,0.1829268292682927
10_51_26_306,-5.0,-1.0,-6.0,1.0,0.0,-2.0,-3.0,-6.0,0.95361328125,-0.16259765625,0.2353515625,-0.853658536585366,-1.402439024390244,-0.426829268292683
10_51_26_306,-4.0,0.0,-2.0,-3.0,2.0,1.0,-2.0,-4.0,0.958984375,-0.16845703125,0.2373046875,-1.3414634146341464,-1.2804878048780488,-0.5487804878048781
10_51_26_306,-4.0,-1.0,3.0,-4.0,-5.0,-6.0,-2.0,-3.0,0.9560546875,-0.16552734375,0.23876953125,-2.5609756097560976,-1.0975609756097562,-0.06097560975609757
10_51_26_306,3.0,2.0,2.0,1.0,4.0,1.0,-1.0,2.0,0.947265625,-0.1650390625,0.23095703125,-2.987804878048781,-0.7317073170731708,0.1829268292682927
10_51_26_306,2.0,-3.0,2.0,1.0,-5.0,1.0,-2.0,-1.0,0.94482421875,-0.15771484375,0.22802734375,-2.682926829268293,-0.6707317073170732,0.3658536585365854
10_51_26_306,0.0,1.0,-5.0,-4.0,-3.0,1.0,-4.0,-3.0,0.94482421875,-0.15380859375,0.2294921875,-2.378048780487805,-0.853658536585366,0.1829268292682927
10_51_26_306,0.0,0.0,-1.0,2.0,0.0,-1.0,2.0,2.0,0.9482421875,-0.15478515625,0.234375,-1.707317073170732,-0.7317073170731708,0.0
10_51_26_306,6.0,1.0,-4.0,0.0,1.0,1.0,2.0,0.0,0.95068359375,-0.1572265625,0.228515625,-0.853658536585366,-0.7926829268292683,-0.12195121951219513
10_51_26_346,-3.0,1.0,-3.0,2.0,-3.0,-3.0,-6.0,-3.0,0.94970703125,-0.16455078125,0.23681640625,-1.5853658536585367,-1.707317073170732,-0.426829268292683
10_51_26_346,-1.0,-5.0,-3.0,0.0,-5.0,2.0,0.0,1.0,0.95361328125,-0.17236328125,0.23388671875,-3.231707317073171,-2.0121951219512195,-0.12195121951219513
10_51_26_346,1.0,-3.0,0.0,2.0,-2.0,0.0,-2.0,-3.0,0.94775390625,-0.16015625,0.23046875,-3.414634146341464,-1.707317073170732,0.1829268292682927
10_51_26_346,0.0,0.0,5.0,-8.0,-3.0,-1.0,1.0,2.0,0.95068359375,-0.15087890625,0.2314453125,-1.707317073170732,-1.7682926829268295,0.1829268292682927
10_51_26_346,2.0,2.0,4.0,0.0,-3.0,0.0,2.0,-8.0,0.95361328125,-0.16259765625,0.2353515625,-0.853658536585366,-1.402439024390244,-0.426829268292683
10_51_26_346,3.0,4.0,-2.0,-6.0,3.0,2.0,0.0,2.0,0.958984375,-0.16845703125,0.2373046875,-1.3414634146341464,-1.2804878048780488,-0.5487804878048781
10_51_26_346,1.0,-5.0,1.0,3.0,-1.0,-2.0,1.0,2.0,0.9560546875,-0.16552734375,0.23876953125,-2.5609756097560976,-1.0975609756097562,-0.06097560975609757
10_51_26_346,-3.0,-1.0,3.0,-3.0,-1.0,-5.0,2.0,-3.0,0.947265625,-0.1650390625,0.23095703125,-2.987804878048781,-0.7317073170731708,0.1829268292682927
10_51_26_346,-7.0,-4.0,0.0,-2.0,-4.0,-4.0,0.0,-3.0,0.94482421875,-0.15771484375,0.22802734375,-2.682926829268293,-0.6707317073170732,0.3658536585365854
10_51_26_346,8.0,6.0,-1.0,-1.0,-3.0,-4.0,1.0,2.0,0.94482421875,-0.15380859375,0.2294921875,-2.378048780487805,-0.853658536585366,0.1829268292682927
10_51_26_412,0.0,-7.0,-5.0,1.0,1.0,-1.0,0.0,-1.0,0.9560546875,-0.17041015625,0.2412109375,-2.1951219512195124,-1.7682926829268295,-0.426829268292683
10_51_26_412,-7.0,2.0,-6.0,0.0,-5.0,-3.0,-5.0,0.0,0.95166015625,-0.16455078125,0.234375,-1.8902439024390245,-1.5853658536585367,-0.5487804878048781
10_51_26_412,-1.0,-1.0,2.0,4.0,-1.0,-1.0,-1.0,-4.0,0.94970703125,-0.16455078125,0.23681640625,-1.5853658536585367,-1.707317073170732,-0.426829268292683
10_51_26_412,3.0,0.0,0.0,-2.0,0.0,-1.0,5.0,0.0,0.95361328125,-0.17236328125,0.23388671875,-3.231707317073171,-2.0121951219512195,-0.12195121951219513
10_51_26_412,4.0,6.0,2.0,-3.0,-1.0,2.0,-1.0,1.0,0.94775390625,-0.16015625,0.23046875,-3.414634146341464,-1.707317073170732,0.1829268292682927
10_51_26_412,-1.0,-9.0,-4.0,2.0,1.0,-2.0,-6.0,0.0,0.95068359375,-0.15087890625,0.2314453125,-1.707317073170732,-1.7682926829268295,0.1829268292682927
10_51_26_412,-6.0,-5.0,-6.0,-1.0,1.0,-3.0,3.0,-4.0,0.95361328125,-0.16259765625,0.2353515625,-0.853658536585366,-1.402439024390244,-0.426829268292683
10_51_26_412,2.0,1.0,6.0,-2.0,7.0,-4.0,13.0,0.0,0.958984375,-0.16845703125,0.2373046875,-1.3414634146341464,-1.2804878048780488,-0.5487804878048781
10_51_26_412,-1.0,-4.0,0.0,4.0,0.0,-2.0,-4.0,-3.0,0.9560546875,-0.16552734375,0.23876953125,-2.5609756097560976,-1.0975609756097562,-0.06097560975609757
10_51_26_412,-1.0,0.0,-2.0,0.0,-1.0,2.0,-5.0,-1.0,0.947265625,-0.1650390625,0.23095703125,-2.987804878048781,-0.7317073170731708,0.1829268292682927
10_51_26_457,0.0,-1.0,-3.0,-5.0,1.0,-1.0,-1.0,2.0,0.9560546875,-0.1689453125,0.24169921875,-0.3658536585365854,-1.3414634146341464,-0.7317073170731708
10_51_26_457,-3.0,-4.0,-6.0,-2.0,-1.0,-3.0,-2.0,-2.0,0.96826171875,-0.17138671875,0.23974609375,-1.6463414634146343,-1.4634146341463417,-0.5487804878048781
10_51_26_457,8.0,3.0,0.0,3.0,1.0,0.0,3.0,6.0,0.9560546875,-0.17041015625,0.2412109375,-2.1951219512195124,-1.7682926829268295,-0.426829268292683
10_51_26_457,-3.0,-1.0,4.0,-2.0,-4.0,-2.0,-5.0,-1.0,0.95166015625,-0.16455078125,0.234375,-1.8902439024390245,-1.5853658536585367,-0.5487804878048781
10_51_26_457,-1.0,-3.0,-2.0,2.0,-4.0,-1.0,-1.0,-2.0,0.94970703125,-0.16455078125,0.23681640625,-1.5853658536585367,-1.707317073170732,-0.426829268292683
10_51_26_457,-7.0,-4.0,-2.0,1.0,-4.0,-2.0,-5.0,1.0,0.95361328125,-0.17236328125,0.23388671875,-3.231707317073171,-2.0121951219512195,-0.12195121951219513
10_51_26_457,3.0,-2.0,1.0,0.0,-3.0,-1.0,0.0,2.0,0.94775390625,-0.16015625,0.23046875,-3.414634146341464,-1.707317073170732,0.1829268292682927
10_51_26_457,-4.0,-3.0,1.0,-7.0,-2.0,0.0,0.0,-2.0,0.95068359375,-0.15087890625,0.2314453125,-1.707317073170732,-1.7682926829268295,0.1829268292682927
10_51_26_457,1.0,-2.0,-2.0,-2.0,-4.0,0.0,0.0,-1.0,0.95361328125,-0.16259765625,0.2353515625,-0.853658536585366,-1.402439024390244,-0.426829268292683
10_51_26_516,1.0,-1.0,2.0,-1.0,-4.0,-3.0,2.0,4.0,0.95703125,-0.16748046875,0.2529296875,1.4634146341463417,-1.4634146341463417,-0.48780487804878053
10_51_26_516,-1.0,0.0,-1.0,-1.0,2.0,-1.0,-1.0,-1.0,0.9560546875,-0.1689453125,0.24169921875,-0.3658536585365854,-1.3414634146341464,-0.7317073170731708
10_51_26_516,0.0,2.0,4.0,-1.0,1.0,-1.0,-2.0,2.0,0.96826171875,-0.17138671875,0.23974609375,-1.6463414634146343,-1.4634146341463417,-0.5487804878048781
10_51_26_516,-8.0,-3.0,-4.0,-4.0,1.0,2.0,-4.0,-4.0,0.9560546875,-0.17041015625,0.2412109375,-2.1951219512195124,-1.7682926829268295,-0.426829268292683
10_51_26_516,5.0,4.0,3.0,0.0,-2.0,1.0,6.0,0.0,0.95166015625,-0.16455078125,0.234375,-1.8902439024390245,-1.5853658536585367,-0.5487804878048781
10_51_26_516,-2.0,0.0,-4.0,-1.0,0.0,-2.0,-6.0,-2.0,0.94970703125,-0.16455078125,0.23681640625,-1.5853658536585367,-1.707317073170732,-0.426829268292683
10_51_26_516,0.0,-1.0,-3.0,-5.0,1.0,-1.0,-1.0,2.0,0.95361328125,-0.17236328125,0.23388671875,-3.231707317073171,-2.0121951219512195,-0.12195121951219513
10_51_26_569,3.0,0.0,0.0,5.0,-1.0,-1.0,1.0,-2.0,0.974609375,-0.16162109375,0.26513671875,6.585365853658537,-1.1585365853658538,-2.804878048780488
10_51_26_569,-2.0,-1.0,0.0,0.0,-7.0,-3.0,-2.0,5.0,0.97705078125,-0.189453125,0.2666015625,4.085365853658537,-1.4634146341463417,-2.5
10_51_26_569,-3.0,0.0,-9.0,-3.0,-4.0,-5.0,-4.0,-7.0,0.97607421875,-0.18017578125,0.25439453125,2.073170731707317,-1.5853658536585367,-1.2195121951219514
10_51_26_569,-1.0,2.0,-1.0,2.0,1.0,-1.0,2.0,1.0,0.95703125,-0.16748046875,0.2529296875,1.4634146341463417,-1.4634146341463417,-0.48780487804878053
10_51_26_569,-2.0,2.0,-6.0,2.0,-1.0,0.0,0.0,3.0,0.9560546875,-0.1689453125,0.24169921875,-0.3658536585365854,-1.3414634146341464,-0.7317073170731708
10_51_26_569,1.0,1.0,0.0,1.0,0.0,1.0,-1.0,-1.0,0.96826171875,-0.17138671875,0.23974609375,-1.6463414634146343,-1.4634146341463417,-0.5487804878048781
10_51_26_569,-2.0,-2.0,-2.0,-4.0,-3.0,-1.0,-1.0,-2.0,0.9560546875,-0.17041015625,0.2412109375,-2.1951219512195124,-1.7682926829268295,-0.426829268292683
10_51_26_569,-2.0,3.0,2.0,-4.0,-3.0,-3.0,1.0,-3.0,0.95166015625,-0.16455078125,0.234375,-1.8902439024390245,-1.5853658536585367,-0.5487804878048781
10_51_26_608,-6.0,-3.0,-5.0,-3.0,-1.0,-2.0,-1.0,-1.0,0.9541015625,-0.1025390625,0.26171875,-1.9512195121951221,6.219512195121951,1.1585365853658538
10_51_26_608,-2.0,1.0,0.0,0.0,-3.0,-1.0,-1.0,-1.0,0.9638671875,-0.09619140625,0.25537109375,-0.24390243902439027,3.353658536585366,-0.7926829268292683
10_51_26_608,-7.0,-3.0,-1.0,2.0,1.0,0.0,0.0,-4.0,0.97509765625,-0.12060546875,0.25927734375,1.8902439024390245,0.9756097560975611,-2.1951219512195124
10_51_26_608,-3.0,-1.0,0.0,-1.0,-1.0,-3.0,-5.0,-1.0,0.97607421875,-0.14404296875,0.2626953125,4.939024390243903,-0.3658536585365854,-2.987804878048781
10_51_26_608,1.0,-3.0,-3.0,6.0,-1.0,0.0,-1.0,-1.0,0.974609375,-0.16162109375,0.26513671875,6.585365853658537,-1.1585365853658538,-2.804878048780488
10_51_26_608,1.0,-4.0,-1.0,-1.0,0.0,0.0,5.0,-1.0,0.97705078125,-0.189453125,0.2666015625,4.085365853658537,-1.4634146341463417,-2.5
10_51_26_608,-11.0,0.0,-6.0,-7.0,2.0,1.0,-4.0,-3.0,0.97607421875,-0.18017578125,0.25439453125,2.073170731707317,-1.5853658536585367,-1.2195121951219514
10_51_26_608,3.0,2.0,2.0,0.0,0.0,-2.0,-7.0,-3.0,0.95703125,-0.16748046875,0.2529296875,1.4634146341463417,-1.4634146341463417,-0.48780487804878053
10_51_26_608,1.0,-3.0,3.0,1.0,-4.0,-4.0,2.0,-4.0,0.9560546875,-0.1689453125,0.24169921875,-0.3658536585365854,-1.3414634146341464,-0.7317073170731708
10_51_26_661,-4.0,0.0,-1.0,4.0,-2.0,-3.0,0.0,-2.0,0.93310546875,-0.09326171875,0.2744140625,-3.048780487804878,11.646341463414634,2.9268292682926833
10_51_26_661,-9.0,-1.0,-6.0,-6.0,2.0,3.0,-3.0,-3.0,0.94580078125,-0.1005859375,0.2705078125,-2.25609756097561,9.02439024390244,2.7439024390243905
10_51_26_661,5.0,1.0,-1.0,1.0,1.0,-1.0,2.0,-6.0,0.9541015625,-0.1025390625,0.26171875,-1.9512195121951221,6.219512195121951,1.1585365853658538
10_51_26_661,0.0,3.0,-7.0,4.0,0.0,1.0,0.0,2.0,0.9638671875,-0.09619140625,0.25537109375,-0.24390243902439027,3.353658536585366,-0.7926829268292683
10_51_26_661,-2.0,-3.0,-5.0,-5.0,-2.0,2.0,0.0,-2.0,0.97509765625,-0.12060546875,0.25927734375,1.8902439024390245,0.9756097560975611,-2.1951219512195124
10_51_26_661,-6.0,-4.0,1.0,-3.0,-6.0,0.0,0.0,-7.0,0.97607421875,-0.14404296875,0.2626953125,4.939024390243903,-0.3658536585365854,-2.987804878048781
10_51_26_661,-5.0,-1.0,-3.0,-3.0,-4.0,-4.0,-3.0,0.0,0.974609375,-0.16162109375,0.26513671875,6.585365853658537,-1.1585365853658538,-2.804878048780488
10_51_26_661,-6.0,-3.0,-5.0,-3.0,-1.0,-2.0,-1.0,-1.0,0.97705078125,-0.189453125,0.2666015625,4.085365853658537,-1.4634146341463417,-2.5
10_51_26_661,-2.0,1.0,0.0,0.0,-3.0,-1.0,-1.0,-1.0,0.97607421875,-0.18017578125,0.25439453125,2.073170731707317,-1.5853658536585367,-1.2195121951219514
10_51_26_661,-7.0,-3.0,-1.0,2.0,1.0,0.0,0.0,-4.0,0.95703125,-0.16748046875,0.2529296875,1.4634146341463417,-1.4634146341463417,-0.48780487804878053
10_51_26_735,2.0,-4.0,-9.0,-1.0,3.0,-3.0,-1.0,1.0,0.904296875,-0.07666015625,0.2900390625,-7.682926829268293,13.719512195121952,3.5975609756097566
10_51_26_735,-1.0,2.0,8.0,-1.0,1.0,-5.0,-3.0,4.0,0.93310546875,-0.09326171875,0.2744140625,-3.048780487804878,11.646341463414634,2.9268292682926833
10_51_26_735,-4.0,0.0,-1.0,4.0,-2.0,-3.0,0.0,-2.0,0.94580078125,-0.1005859375,0.2705078125,-2.25609756097561,9.02439024390244,2.7439024390243905
10_51_26_735,-9.0,-1.0,-6.0,-6.0,2.0,3.0,-3.0,-3.0,0.9541015625,-0.1025390625,0.26171875,-1.9512195121951221,6.219512195121951,1.1585365853658538
10_51_26_735,5.0,1.0,-1.0,1.0,1.0,-1.0,2.0,-6.0,0.9638671875,-0.09619140625,0.25537109375,-0.24390243902439027,3.353658536585366,-0.7926829268292683
10_51_26_735,0.0,3.0,-7.0,4.0,0.0,1.0,0.0,2.0,0.97509765625,-0.12060546875,0.25927734375,1.8902439024390245,0.9756097560975611,-2.1951219512195124
10_51_26_735,-2.0,-3.0,-5.0,-5.0,-2.0,2.0,0.0,-2.0,0.97607421875,-0.14404296875,0.2626953125,4.939024390243903,-0.3658536585365854,-2.987804878048781
10_51_26_735,-6.0,-4.0,1.0,-3.0,-6.0,0.0,0.0,-7.0,0.974609375,-0.16162109375,0.26513671875,6.585365853658537,-1.1585365853658538,-2.804878048780488
10_51_26_735,-5.0,-1.0,-3.0,-3.0,-4.0,-4.0,-3.0,0.0,0.97705078125,-0.189453125,0.2666015625,4.085365853658537,-1.4634146341463417,-2.5
10_51_26_735,-6.0,-3.0,-5.0,-3.0,-1.0,-2.0,-1.0,-1.0,0.97607421875,-0.18017578125,0.25439453125,2.073170731707317,-1.5853658536585367,-1.2195121951219514
10_51_26_780,-1.0,-3.0,0.0,0.0,-2.0,-3.0,-2.0,2.0,0.904296875,-0.07666015625,0.2900390625,-7.682926829268293,13.719512195121952,3.5975609756097566
10_51_26_780,-6.0,0.0,-6.0,5.0,5.0,-1.0,-1.0,0.0,0.93310546875,-0.09326171875,0.2744140625,-3.048780487804878,11.646341463414634,2.9268292682926833
10_51_26_780,-3.0,-3.0,-7.0,-8.0,4.0,0.0,0.0,-2.0,0.94580078125,-0.1005859375,0.2705078125,-2.25609756097561,9.02439024390244,2.7439024390243905
10_51_26_780,7.0,1.0,-2.0,-1.0,-5.0,2.0,2.0,1.0,0.9541015625,-0.1025390625,0.26171875,-1.9512195121951221,6.219512195121951,1.1585365853658538
10_51_26_780,-6.0,-1.0,-5.0,-2.0,-3.0,0.0,-3.0,-3.0,0.9638671875,-0.09619140625,0.25537109375,-0.24390243902439027,3.353658536585366,-0.7926829268292683
10_51_26_780,-3.0,2.0,-2.0,-2.0,0.0,-1.0,1.0,-1.0,0.97509765625,-0.12060546875,0.25927734375,1.8902439024390245,0.9756097560975611,-2.1951219512195124
10_51_26_780,0.0,-3.0,-1.0,-1.0,-1.0,-2.0,-5.0,-1.0,0.97607421875,-0.14404296875,0.2626953125,4.939024390243903,-0.3658536585365854,-2.987804878048781
10_51_26_837,3.0,1.0,-2.0,-3.0,3.0,2.0,3.0,1.0,0.89453125,-0.2578125,0.3671875,-33.47560975609756,47.01219512195122,16.951219512195124
10_51_26_837,-3.0,-3.0,-1.0,1.0,3.0,0.0,-1.0,-4.0,0.9287109375,-0.2158203125,0.35400390625,-47.6219512195122,42.01219512195122,13.04878048780488
10_51_26_837,0.0,0.0,-2.0,2.0,-1.0,2.0,0.0,2.0,0.94921875,-0.171875,0.34423828125,-51.09756097560976,36.34146341463415,9.207317073170733
10_51_26_837,-1.0,1.0,-1.0,-3.0,0.0,-2.0,-2.0,-1.0,0.95751953125,-0.1337890625,0.3955078125,-53.59756097560976,34.207317073170735,6.402439024390245
10_51_26_837,7.0,-3.0,1.0,-1.0,1.0,1.0,6.0,3.0,0.923828125,-0.05615234375,0.37451171875,-35.30487804878049,18.10975609756098,5.853658536585367
10_51_26_837,-1.0,-7.0,-3.0,-2.0,0.0,-3.0,-4.0,-1.0,0.91552734375,-0.0537109375,0.3095703125,-20.914634146341466,16.585365853658537,4.085365853658537
10_51_26_837,-2.0,-5.0,-1.0,0.0,-2.0,-2.0,-5.0,-6.0,0.904296875,-0.07666015625,0.2900390625,-7.682926829268293,13.719512195121952,3.5975609756097566
10_51_26_837,0.0,-1.0,6.0,-2.0,2.0,-1.0,-4.0,-3.0,0.93310546875,-0.09326171875,0.2744140625,-3.048780487804878,11.646341463414634,2.9268292682926833
10_51_26_837,-3.0,-3.0,3.0,-3.0,-6.0,1.0,0.0,2.0,0.94580078125,-0.1005859375,0.2705078125,-2.25609756097561,9.02439024390244,2.7439024390243905
10_51_26_837,1.0,-6.0,-7.0,1.0,-3.0,-1.0,-5.0,-2.0,0.9541015625,-0.1025390625,0.26171875,-1.9512195121951221,6.219512195121951,1.1585365853658538
10_51_26_876,-4.0,1.0,-5.0,2.0,-1.0,-3.0,-5.0,-1.0,0.85205078125,-0.28076171875,0.34326171875,11.097560975609756,46.58536585365854,24.81707317073171
10_51_26_876,-3.0,-5.0,-1.0,4.0,-3.0,-5.0,-2.0,-3.0,0.87158203125,-0.283203125,0.36181640625,0.12195121951219513,49.268292682926834,23.10975609756098
10_51_26_876,10.0,7.0,6.0,5.0,1.0,-2.0,6.0,3.0,0.88427734375,-0.28173828125,0.37353515625,-15.54878048780488,49.63414634146342,20.79268292682927
10_51_26_876,0.0,-1.0,-3.0,2.0,5.0,2.0,-1.0,-3.0,0.89453125,-0.2578125,0.3671875,-33.47560975609756,47.01219512195122,16.951219512195124
10_51_26_876,2.0,0.0,-4.0,4.0,-2.0,0.0,1.0,1.0,0.9287109375,-0.2158203125,0.35400390625,-47.6219512195122,42.01219512195122,13.04878048780488
10_51_26_876,-5.0,-1.0,-2.0,-6.0,3.0,-1.0,-1.0,2.0,0.94921875,-0.171875,0.34423828125,-51.09756097560976,36.34146341463415,9.207317073170733
10_51_26_876,6.0,3.0,2.0,3.0,-3.0,-3.0,4.0,1.0,0.95751953125,-0.1337890625,0.3955078125,-53.59756097560976,34.207317073170735,6.402439024390245
10_51_26_876,-5.0,-2.0,-2.0,0.0,-2.0,-6.0,-3.0,1.0,0.923828125,-0.05615234375,0.37451171875,-35.30487804878049,18.10975609756098,5.853658536585367
10_51_26_876,-2.0,1.0,1.0,-2.0,4.0,-3.0,-1.0,-5.0,0.91552734375,-0.0537109375,0.3095703125,-20.914634146341466,16.585365853658537,4.085365853658537
10_51_26_876,0.0,-2.0,-3.0,-1.0,1.0,-6.0,-3.0,0.0,0.904296875,-0.07666015625,0.2900390625,-7.682926829268293,13.719512195121952,3.5975609756097566
10_51_26_950,-8.0,1.0,-4.0,-5.0,-3.0,2.0,-1.0,-3.0,0.83251953125,-0.31591796875,0.28857421875,40.0,26.646341463414636,28.170731707317074
10_51_26_950,4.0,5.0,-3.0,-1.0,-1.0,2.0,-1.0,4.0,0.833984375,-0.3076171875,0.31298828125,28.59756097560976,34.390243902439025,28.414634146341466
10_51_26_950,5.0,0.0,1.0,3.0,4.0,-2.0,5.0,-2.0,0.83837890625,-0.28515625,0.33349609375,18.84146341463415,41.524390243902445,26.951219512195124
10_51_26_950,-3.0,-8.0,-3.0,-1.0,-4.0,-5.0,-5.0,-4.0,0.85205078125,-0.28076171875,0.34326171875,11.097560975609756,46.58536585365854,24.81707317073171
10_51_26_950,-4.0,1.0,5.0,-2.0,0.0,-2.0,2.0,2.0,0.87158203125,-0.283203125,0.36181640625,0.12195121951219513,49.268292682926834,23.10975609756098
10_51_26_950,-5.0,-4.0,-3.0,-6.0,0.0,-1.0,-1.0,-2.0,0.88427734375,-0.28173828125,0.37353515625,-15.54878048780488,49.63414634146342,20.79268292682927
10_51_26_950,4.0,1.0,2.0,-1.0,2.0,5.0,0.0,0.0,0.89453125,-0.2578125,0.3671875,-33.47560975609756,47.01219512195122,16.951219512195124
10_51_26_950,-10.0,-4.0,-5.0,-5.0,-2.0,-1.0,-7.0,-8.0,0.9287109375,-0.2158203125,0.35400390625,-47.6219512195122,42.01219512195122,13.04878048780488
10_51_26_950,2.0,2.0,0.0,2.0,3.0,-3.0,-2.0,-3.0,0.94921875,-0.171875,0.34423828125,-51.09756097560976,36.34146341463415,9.207317073170733
10_51_26_950,-6.0,-3.0,0.0,-1.0,0.0,0.0,-4.0,-1.0,0.95751953125,-0.1337890625,0.3955078125,-53.59756097560976,34.207317073170735,6.402439024390245
10_51_26_984,-4.0,-2.0,-2.0,1.0,6.0,2.0,0.0,-4.0,0.806640625,-0.2802734375,0.24658203125,49.207317073170735,12.500000000000002,24.32926829268293
10_51_26_984,-3.0,-1.0,-1.0,-2.0,-4.0,-1.0,1.0,0.0,0.82373046875,-0.298828125,0.26318359375,48.04878048780488,19.695121951219512,26.402439024390247
10_51_26_984,4.0,2.0,-5.0,-2.0,-1.0,-5.0,-3.0,-1.0,0.83251953125,-0.31591796875,0.28857421875,40.0,26.646341463414636,28.170731707317074
10_51_26_984,6.0,2.0,3.0,-1.0,-2.0,-2.0,0.0,1.0,0.833984375,-0.3076171875,0.31298828125,28.59756097560976,34.390243902439025,28.414634146341466
10_51_26_984,-1.0,1.0,-2.0,-2.0,-2.0,-3.0,-4.0,-2.0,0.83837890625,-0.28515625,0.33349609375,18.84146341463415,41.524390243902445,26.951219512195124
10_51_26_984,-4.0,-2.0,-4.0,2.0,-1.0,-2.0,0.0,-1.0,0.85205078125,-0.28076171875,0.34326171875,11.097560975609756,46.58536585365854,24.81707317073171
10_51_26_984,-4.0,-5.0,-1.0,0.0,-2.0,-5.0,-2.0,-1.0,0.87158203125,-0.283203125,0.36181640625,0.12195121951219513,49.268292682926834,23.10975609756098
10_51_26_984,5.0,2.0,-2.0,4.0,0.0,0.0,1.0,0.0,0.88427734375,-0.28173828125,0.37353515625,-15.54878048780488,49.63414634146342,20.79268292682927
10_51_26_984,-2.0,3.0,-5.0,3.0,2.0,-1.0,-2.0,0.0,0.89453125,-0.2578125,0.3671875,-33.47560975609756,47.01219512195122,16.951219512195124
10_51_27_036,-8.0,-5.0,-1.0,-3.0,0.0,-5.0,-3.0,-5.0,0.79296875,-0.3251953125,0.2763671875,5.426829268292684,-8.353658536585366,7.195121951219513
10_51_27_036,0.0,1.0,3.0,-3.0,-7.0,-1.0,-2.0,4.0,0.775390625,-0.255859375,0.2421875,27.012195121951223,0.5487804878048781,15.30487804878049
10_51_27_036,3.0,1.0,-1.0,-2.0,4.0,2.0,-1.0,0.0,0.7919921875,-0.25390625,0.23095703125,42.926829268292686,5.853658536585367,21.03658536585366
10_51_27_036,-3.0,-4.0,3.0,5.0,-3.0,1.0,-1.0,1.0,0.806640625,-0.2802734375,0.24658203125,49.207317073170735,12.500000000000002,24.32926829268293
10_51_27_036,-1.0,-3.0,-3.0,-1.0,-6.0,-4.0,-3.0,-4.0,0.82373046875,-0.298828125,0.26318359375,48.04878048780488,19.695121951219512,26.402439024390247
10_51_27_036,-1.0,-1.0,0.0,-5.0,-4.0,-3.0,-6.0,-1.0,0.83251953125,-0.31591796875,0.28857421875,40.0,26.646341463414636,28.170731707317074
10_51_27_036,-5.0,-1.0,-4.0,-2.0,1.0,1.0,2.0,-2.0,0.833984375,-0.3076171875,0.31298828125,28.59756097560976,34.390243902439025,28.414634146341466
10_51_27_036,2.0,0.0,0.0,0.0,-2.0,-1.0,-3.0,2.0,0.83837890625,-0.28515625,0.33349609375,18.84146341463415,41.524390243902445,26.951219512195124
10_51_27_036,-1.0,-4.0,-1.0,-4.0,1.0,-2.0,0.0,-1.0,0.85205078125,-0.28076171875,0.34326171875,11.097560975609756,46.58536585365854,24.81707317073171
10_51_27_036,-2.0,-1.0,4.0,-2.0,-4.0,-1.0,-8.0,3.0,0.87158203125,-0.283203125,0.36181640625,0.12195121951219513,49.268292682926834,23.10975609756098
10_51_27_103,1.0,-1.0,0.0,0.0,-1.0,0.0,5.0,0.0,0.79296875,-0.3251953125,0.2763671875,5.426829268292684,-8.353658536585366,7.195121951219513
10_51_27_103,-8.0,-5.0,-1.0,-3.0,0.0,-5.0,-3.0,-5.0,0.775390625,-0.255859375,0.2421875,27.012195121951223,0.5487804878048781,15.30487804878049
10_51_27_103,0.0,1.0,3.0,-3.0,-7.0,-1.0,-2.0,4.0,0.7919921875,-0.25390625,0.23095703125,42.926829268292686,5.853658536585367,21.03658536585366
10_51_27_103,3.0,1.0,-1.0,-2.0,4.0,2.0,-1.0,0.0,0.806640625,-0.2802734375,0.24658203125,49.207317073170735,12.500000000000002,24.32926829268293
10_51_27_103,-3.0,-4.0,3.0,5.0,-3.0,1.0,-1.0,1.0,0.82373046875,-0.298828125,0.26318359375,48.04878048780488,19.695121951219512,26.402439024390247
10_51_27_103,-1.0,-3.0,-3.0,-1.0,-6.0,-4.0,-3.0,-4.0,0.83251953125,-0.31591796875,0.28857421875,40.0,26.646341463414636,28.170731707317074
10_51_27_103,-1.0,-1.0,0.0,-5.0,-4.0,-3.0,-6.0,-1.0,0.833984375,-0.3076171875,0.31298828125,28.59756097560976,34.390243902439025,28.414634146341466
10_51_27_103,-5.0,-1.0,-4.0,-2.0,1.0,1.0,2.0,-2.0,0.83837890625,-0.28515625,0.33349609375,18.84146341463415,41.524390243902445,26.951219512195124
10_51_27_103,2.0,0.0,0.0,0.0,-2.0,-1.0,-3.0,2.0,0.85205078125,-0.28076171875,0.34326171875,11.097560975609756,46.58536585365854,24.81707317073171
10_51_27_138,-3.0,-1.0,1.0,-1.0,-3.0,1.0,0.0,-3.0,0.880859375,-0.3115234375,0.39990234375,-19.390243902439025,-74.45121951219512,-44.69512195121952
10_51_27_138,-7.0,-4.0,-3.0,0.0,-4.0,-2.0,-4.0,-2.0,0.8505859375,-0.32373046875,0.396484375,-12.134146341463415,-62.560975609756106,-36.34146341463415
10_51_27_138,8.0,0.0,5.0,2.0,-6.0,0.0,1.0,1.0,0.83203125,-0.353515625,0.369140625,-4.573170731707317,-50.36585365853659,-25.365853658536587
10_51_27_138,-2.0,1.0,-4.0,-4.0,-3.0,-3.0,-4.0,-7.0,0.8505859375,-0.3837890625,0.33984375,-5.7926829268292686,-37.13414634146342,-14.51219512195122
10_51_27_138,-4.0,-3.0,-1.0,2.0,-2.0,-1.0,-7.0,-6.0,0.83642578125,-0.38671875,0.3076171875,-7.01219512195122,-22.80487804878049,-3.5975609756097566
10_51_27_138,-5.0,-3.0,-1.0,-7.0,-2.0,-2.0,0.0,-2.0,0.79296875,-0.3251953125,0.2763671875,5.426829268292684,-8.353658536585366,7.195121951219513
10_51_27_138,-2.0,-3.0,-1.0,-4.0,2.0,-2.0,1.0,-3.0,0.775390625,-0.255859375,0.2421875,27.012195121951223,0.5487804878048781,15.30487804878049
10_51_27_138,-3.0,-3.0,-2.0,-3.0,-6.0,1.0,0.0,1.0,0.7919921875,-0.25390625,0.23095703125,42.926829268292686,5.853658536585367,21.03658536585366
10_51_27_138,0.0,-2.0,0.0,0.0,-1.0,-4.0,-3.0,-3.0,0.806640625,-0.2802734375,0.24658203125,49.207317073170735,12.500000000000002,24.32926829268293
10_51_27_199,-1.0,4.0,-3.0,-4.0,-1.0,0.0,0.0,3.0,0.9091796875,-0.30029296875,0.37548828125,-17.5,-83.53658536585367,-51.28048780487806
10_51_27_199,-12.0,-3.0,0.0,-3.0,3.0,-1.0,-5.0,-3.0,0.880859375,-0.3115234375,0.39990234375,-19.390243902439025,-74.45121951219512,-44.69512195121952
10_51_27_199,-5.0,-4.0,1.0,-3.0,-1.0,-2.0,-1.0,-4.0,0.8505859375,-0.32373046875,0.396484375,-12.134146341463415,-62.560975609756106,-36.34146341463415
10_51_27_199,-4.0,-2.0,-5.0,-2.0,-3.0,-1.0,-5.0,-5.0,0.83203125,-0.353515625,0.369140625,-4.573170731707317,-50.36585365853659,-25.365853658536587
10_51_27_199,3.0,-3.0,-7.0,4.0,0.0,-4.0,-2.0,2.0,0.8505859375,-0.3837890625,0.33984375,-5.7926829268292686,-37.13414634146342,-14.51219512195122
10_51_27_199,-2.0,-1.0,-4.0,0.0,-1.0,-1.0,-4.0,-2.0,0.83642578125,-0.38671875,0.3076171875,-7.01219512195122,-22.80487804878049,-3.5975609756097566
10_51_27_199,-3.0,-1.0,1.0,-1.0,-3.0,1.0,0.0,-3.0,0.79296875,-0.3251953125,0.2763671875,5.426829268292684,-8.353658536585366,7.195121951219513
10_51_27_199,-7.0,-4.0,-3.0,0.0,-4.0,-2.0,-4.0,-2.0,0.775390625,-0.255859375,0.2421875,27.012195121951223,0.5487804878048781,15.30487804878049
10_51_27_199,8.0,0.0,5.0,2.0,-6.0,0.0,1.0,1.0,0.7919921875,-0.25390625,0.23095703125,42.926829268292686,5.853658536585367,21.03658536585366
10_51_27_250,-7.0,-12.0,3.0,-4.0,-1.0,0.0,-3.0,-7.0,0.98828125,-0.15966796875,0.2431640625,40.60975609756098,-66.70731707317074,-45.79268292682927
10_51_27_250,5.0,4.0,43.0,5.0,1.0,4.0,7.0,-1.0,0.9521484375,-0.17822265625,0.2578125,21.890243902439025,-74.20731707317074,-51.768292682926834
10_51_27_250,-9.0,-6.0,-9.0,-1.0,-2.0,-7.0,-6.0,-4.0,0.93798828125,-0.18310546875,0.296875,8.597560975609756,-80.60975609756099,-54.75609756097561
10_51_27_250,13.0,7.0,8.0,0.0,1.0,-2.0,3.0,5.0,0.92529296875,-0.20703125,0.30908203125,-0.6097560975609757,-85.42682926829269,-56.15853658536586
10_51_27_250,1.0,1.0,4.0,-1.0,-1.0,-2.0,3.0,-1.0,0.919921875,-0.24658203125,0.34423828125,-8.658536585365855,-87.8658536585366,-55.243902439024396
10_51_27_250,1.0,5.0,2.0,3.0,0.0,4.0,1.0,1.0,0.9091796875,-0.30029296875,0.37548828125,-17.5,-83.53658536585367,-51.28048780487806
10_51_27_250,-3.0,-1.0,1.0,-4.0,-3.0,-1.0,1.0,-1.0,0.880859375,-0.3115234375,0.39990234375,-19.390243902439025,-74.45121951219512,-44.69512195121952
10_51_27_250,6.0,1.0,6.0,4.0,4.0,2.0,1.0,3.0,0.8505859375,-0.32373046875,0.396484375,-12.134146341463415,-62.560975609756106,-36.34146341463415
10_51_27_250,-5.0,-2.0,-2.0,0.0,-4.0,0.0,-3.0,-2.0,0.83203125,-0.353515625,0.369140625,-4.573170731707317,-50.36585365853659,-25.365853658536587
10_51_27_250,5.0,5.0,3.0,-2.0,-1.0,1.0,3.0,1.0,0.8505859375,-0.3837890625,0.33984375,-5.7926829268292686,-37.13414634146342,-14.51219512195122
10_51_27_297,-5.0,-4.0,-8.0,-6.0,-8.0,-1.0,-4.0,-5.0,1.01171875,-0.1787109375,0.2333984375,79.63414634146342,-53.90243902439025,-31.34146341463415
10_51_27_297,2.0,2.0,4.0,-4.0,-2.0,-4.0,3.0,0.0,0.99755859375,-0.18798828125,0.23388671875,61.585365853658544,-60.060975609756106,-38.41463414634147
10_51_27_297,0.0,2.0,-11.0,-4.0,-3.0,2.0,1.0,-2.0,0.98828125,-0.15966796875,0.2431640625,40.60975609756098,-66.70731707317074,-45.79268292682927
10_51_27_297,0.0,5.0,6.0,6.0,-1.0,1.0,3.0,6.0,0.9521484375,-0.17822265625,0.2578125,21.890243902439025,-74.20731707317074,-51.768292682926834
10_51_27_297,-3.0,-6.0,2.0,-5.0,-2.0,-3.0,-1.0,1.0,0.93798828125,-0.18310546875,0.296875,8.597560975609756,-80.60975609756099,-54.75609756097561
10_51_27_297,5.0,0.0,-4.0,-1.0,5.0,3.0,3.0,1.0,0.92529296875,-0.20703125,0.30908203125,-0.6097560975609757,-85.42682926829269,-56.15853658536586
10_51_27_297,-3.0,-8.0,-19.0,2.0,0.0,1.0,-4.0,-3.0,0.919921875,-0.24658203125,0.34423828125,-8.658536585365855,-87.8658536585366,-55.243902439024396
10_51_27_297,-2.0,5.0,4.0,0.0,0.0,-4.0,2.0,3.0,0.9091796875,-0.30029296875,0.37548828125,-17.5,-83.53658536585367,-51.28048780487806
10_51_27_297,0.0,-2.0,-10.0,1.0,0.0,0.0,-4.0,0.0,0.880859375,-0.3115234375,0.39990234375,-19.390243902439025,-74.45121951219512,-44.69512195121952
10_51_27_297,0.0,6.0,27.0,0.0,-1.0,-1.0,4.0,2.0,0.8505859375,-0.32373046875,0.396484375,-12.134146341463415,-62.560975609756106,-36.34146341463415
10_51_27_353,1.0,3.0,-9.0,5.0,5.0,4.0,4.0,3.0,0.986328125,-0.06005859375,0.29443359375,32.6829268292683,-32.07317073170732,-22.012195121951223
10_51_27_353,2.0,1.0,6.0,-5.0,-1.0,-5.0,2.0,0.0,1.0087890625,-0.06298828125,0.236328125,72.07317073170732,-37.6829268292683,-25.731707317073173
10_51_27_353,-2.0,-5.0,-3.0,-3.0,-3.0,-3.0,0.0,-2.0,0.99072265625,-0.11962890625,0.2294921875,90.48780487804879,-45.73170731707317,-24.573170731707318
10_51_27_353,7.0,-1.0,-5.0,3.0,3.0,1.0,2.0,-2.0,1.01171875,-0.1787109375,0.2333984375,79.63414634146342,-53.90243902439025,-31.34146341463415
10_51_27_353,-7.0,-4.0,-28.0,0.0,-4.0,-3.0,-5.0,0.0,0.99755859375,-0.18798828125,0.23388671875,61.585365853658544,-60.060975609756106,-38.41463414634147
10_51_27_353,-1.0,12.0,32.0,0.0,-3.0,-3.0,-7.0,-2.0,0.98828125,-0.15966796875,0.2431640625,40.60975609756098,-66.70731707317074,-45.79268292682927
10_51_27_353,-3.0,-8.0,-1.0,-6.0,-2.0,-1.0,-1.0,-1.0,0.9521484375,-0.17822265625,0.2578125,21.890243902439025,-74.20731707317074,-51.768292682926834
10_51_27_353,-4.0,-6.0,-7.0,-1.0,-2.0,-3.0,-4.0,-1.0,0.93798828125,-0.18310546875,0.296875,8.597560975609756,-80.60975609756099,-54.75609756097561
10_51_27_353,-1.0,2.0,6.0,-1.0,4.0,-1.0,-2.0,-8.0,0.92529296875,-0.20703125,0.30908203125,-0.6097560975609757,-85.42682926829269,-56.15853658536586
10_51_27_353,2.0,-2.0,5.0,-1.0,3.0,4.0,3.0,-1.0,0.919921875,-0.24658203125,0.34423828125,-8.658536585365855,-87.8658536585366,-55.243902439024396
10_51_27_401,-9.0,-11.0,-19.0,5.0,-3.0,1.0,-7.0,-3.0,1.02001953125,-0.21240234375,0.32763671875,-28.04878048780488,-13.475609756097562,-23.59756097560976
10_51_27_401,-13.0,-11.0,3.0,-8.0,-8.0,-4.0,-3.0,-6.0,1.03515625,-0.177734375,0.30419921875,-20.60975609756098,-22.98780487804878,-22.31707317073171
10_51_27_401,1.0,-4.0,-5.0,6.0,-2.0,-1.0,3.0,-3.0,1.00634765625,-0.1220703125,0.30908203125,0.0,-28.59756097560976,-20.914634146341466
10_51_27_401,0.0,4.0,8.0,6.0,-6.0,-3.0,-6.0,0.0,0.986328125,-0.06005859375,0.29443359375,32.6829268292683,-32.07317073170732,-22.012195121951223
10_51_27_401,-5.0,-5.0,12.0,2.0,-6.0,0.0,0.0,-6.0,1.0087890625,-0.06298828125,0.236328125,72.07317073170732,-37.6829268292683,-25.731707317073173
10_51_27_401,6.0,-1.0,-36.0,-5.0,2.0,-2.0,3.0,-2.0,0.99072265625,-0.11962890625,0.2294921875,90.48780487804879,-45.73170731707317,-24.573170731707318
10_51_27_401,2.0,10.0,12.0,1.0,5.0,0.0,0.0,1.0,1.01171875,-0.1787109375,0.2333984375,79.63414634146342,-53.90243902439025,-31.34146341463415
10_51_27_401,3.0,0.0,11.0,0.0,0.0,-1.0,1.0,2.0,0.99755859375,-0.18798828125,0.23388671875,61.585365853658544,-60.060975609756106,-38.41463414634147
10_51_27_401,1.0,3.0,-9.0,5.0,5.0,4.0,4.0,3.0,0.98828125,-0.15966796875,0.2431640625,40.60975609756098,-66.70731707317074,-45.79268292682927
10_51_27_401,2.0,1.0,6.0,-5.0,-1.0,-5.0,2.0,0.0,0.9521484375,-0.17822265625,0.2578125,21.890243902439025,-74.20731707317074,-51.768292682926834
10_51_27_456,5.0,3.0,10.0,1.0,4.0,2.0,2.0,0.0,0.99658203125,-0.189453125,0.3203125,-27.195121951219516,-3.4756097560975614,-21.52439024390244
10_51_27_456,-5.0,-1.0,8.0,4.0,2.0,-2.0,-1.0,-2.0,1.02001953125,-0.21240234375,0.32763671875,-28.04878048780488,-13.475609756097562,-23.59756097560976
10_51_27_456,9.0,10.0,43.0,5.0,1.0,-3.0,1.0,-3.0,1.03515625,-0.177734375,0.30419921875,-20.60975609756098,-22.98780487804878,-22.31707317073171
10_51_27_456,-6.0,-3.0,-3.0,-1.0,-4.0,0.0,-2.0,3.0,1.00634765625,-0.1220703125,0.30908203125,0.0,-28.59756097560976,-20.914634146341466
10_51_27_456,0.0,0.0,4.0,-3.0,0.0,0.0,0.0,-4.0,0.986328125,-0.06005859375,0.29443359375,32.6829268292683,-32.07317073170732,-22.012195121951223
10_51_27_456,-6.0,-6.0,-20.0,0.0,-1.0,-1.0,1.0,-2.0,1.0087890625,-0.06298828125,0.236328125,72.07317073170732,-37.6829268292683,-25.731707317073173
10_51_27_456,-13.0,3.0,3.0,2.0,-6.0,-2.0,0.0,0.0,0.99072265625,-0.11962890625,0.2294921875,90.48780487804879,-45.73170731707317,-24.573170731707318
10_51_27_456,0.0,-1.0,-3.0,-5.0,-1.0,-2.0,-7.0,1.0,1.01171875,-0.1787109375,0.2333984375,79.63414634146342,-53.90243902439025,-31.34146341463415
10_51_27_456,-9.0,-11.0,-19.0,5.0,-3.0,1.0,-7.0,-3.0,0.99755859375,-0.18798828125,0.23388671875,61.585365853658544,-60.060975609756106,-38.41463414634147
10_51_27_456,-13.0,-11.0,3.0,-8.0,-8.0,-4.0,-3.0,-6.0,0.98828125,-0.15966796875,0.2431640625,40.60975609756098,-66.70731707317074,-45.79268292682927
10_51_27_509,1.0,-6.0,2.0,6.0,4.0,6.0,7.0,3.0,1.0830078125,-0.25,0.29638671875,-6.036585365853659,24.573170731707318,-1.5853658536585367
10_51_27_509,-2.0,-2.0,-27.0,-4.0,-4.0,-6.0,-4.0,1.0,1.0556640625,-0.22119140625,0.2724609375,-15.975609756097562,15.365853658536587,-7.25609756097561
10_51_27_509,-7.0,0.0,4.0,2.0,-2.0,3.0,2.0,-2.0,1.00927734375,-0.20556640625,0.29345703125,-20.60975609756098,5.121951219512195,-15.243902439024392
10_51_27_509,-22.0,-6.0,3.0,2.0,-6.0,-2.0,-3.0,-8.0,0.99658203125,-0.189453125,0.3203125,-27.195121951219516,-3.4756097560975614,-21.52439024390244
10_51_27_509,12.0,4.0,-6.0,-4.0,-2.0,0.0,4.0,2.0,1.02001953125,-0.21240234375,0.32763671875,-28.04878048780488,-13.475609756097562,-23.59756097560976
10_51_27_509,-8.0,-5.0,3.0,-3.0,-3.0,-1.0,-2.0,-6.0,1.03515625,-0.177734375,0.30419921875,-20.60975609756098,-22.98780487804878,-22.31707317073171
10_51_27_509,2.0,0.0,10.0,-2.0,0.0,0.0,-1.0,-2.0,1.00634765625,-0.1220703125,0.30908203125,0.0,-28.59756097560976,-20.914634146341466
10_51_27_509,-6.0,-6.0,-6.0,-2.0,-2.0,-5.0,-6.0,-3.0,0.986328125,-0.06005859375,0.29443359375,32.6829268292683,-32.07317073170732,-22.012195121951223
10_51_27_509,8.0,5.0,0.0,7.0,-4.0,3.0,2.0,2.0,1.0087890625,-0.06298828125,0.236328125,72.07317073170732,-37.6829268292683,-25.731707317073173
10_51_27_509,-6.0,-1.0,9.0,3.0,-1.0,4.0,-4.0,-1.0,0.99072265625,-0.11962890625,0.2294921875,90.48780487804879,-45.73170731707317,-24.573170731707318
10_51_27_546,0.0,-4.0,2.0,1.0,2.0,-1.0,-2.0,-2.0,0.99365234375,-0.1494140625,0.3173828125,2.9268292682926833,48.90243902439025,14.146341463414636
10_51_27_546,-14.0,-11.0,-17.0,-1.0,-1.0,-6.0,-1.0,-3.0,0.99462890625,-0.15576171875,0.3232421875,7.500000000000001,40.487804878048784,8.109756097560977
10_51_27_546,9.0,5.0,4.0,-4.0,6.0,1.0,3.0,4.0,1.04296875,-0.19921875,0.306640625,2.682926829268293,31.76829268292683,2.1951219512195124
10_51_27_546,0.0,2.0,-4.0,3.0,-2.0,-2.0,-2.0,2.0,1.0830078125,-0.25,0.29638671875,-6.036585365853659,24.573170731707318,-1.5853658536585367
10_51_27_546,0.0,-5.0,-6.0,-4.0,-5.0,1.0,-2.0,-4.0,1.0556640625,-0.22119140625,0.2724609375,-15.975609756097562,15.365853658536587,-7.25609756097561
10_51_27_546,-4.0,-3.0,-1.0,0.0,0.0,-2.0,2.0,-2.0,1.00927734375,-0.20556640625,0.29345703125,-20.60975609756098,5.121951219512195,-15.243902439024392
10_51_27_546,10.0,6.0,2.0,-6.0,-1.0,-7.0,5.0,-2.0,0.99658203125,-0.189453125,0.3203125,-27.195121951219516,-3.4756097560975614,-21.52439024390244
10_51_27_546,0.0,-1.0,4.0,1.0,-2.0,-2.0,-4.0,-1.0,1.02001953125,-0.21240234375,0.32763671875,-28.04878048780488,-13.475609756097562,-23.59756097560976
10_51_27_546,-6.0,-1.0,-10.0,-6.0,3.0,0.0,2.0,2.0,1.03515625,-0.177734375,0.30419921875,-20.60975609756098,-22.98780487804878,-22.31707317073171
10_51_27_546,3.0,5.0,-5.0,-9.0,-2.0,-3.0,-5.0,-5.0,1.00634765625,-0.1220703125,0.30908203125,0.0,-28.59756097560976,-20.914634146341466
10_51_27_625,16.0,13.0,27.0,9.0,2.0,3.0,8.0,10.0,0.998046875,-0.18017578125,0.3076171875,-6.52439024390244,54.146341463414636,17.98780487804878
10_51_27_625,2.0,3.0,4.0,-6.0,0.0,6.0,1.0,0.0,0.99365234375,-0.1494140625,0.3173828125,2.9268292682926833,48.90243902439025,14.146341463414636
10_51_27_625,0.0,-4.0,2.0,1.0,2.0,-1.0,-2.0,-2.0,0.99462890625,-0.15576171875,0.3232421875,7.500000000000001,40.487804878048784,8.109756097560977
10_51_27_625,-14.0,-11.0,-17.0,-1.0,-1.0,-6.0,-1.0,-3.0,1.04296875,-0.19921875,0.306640625,2.682926829268293,31.76829268292683,2.1951219512195124
10_51_27_625,9.0,5.0,4.0,-4.0,6.0,1.0,3.0,4.0,1.0830078125,-0.25,0.29638671875,-6.036585365853659,24.573170731707318,-1.5853658536585367
10_51_27_625,0.0,2.0,-4.0,3.0,-2.0,-2.0,-2.0,2.0,1.0556640625,-0.22119140625,0.2724609375,-15.975609756097562,15.365853658536587,-7.25609756097561
10_51_27_625,0.0,-5.0,-6.0,-4.0,-5.0,1.0,-2.0,-4.0,1.00927734375,-0.20556640625,0.29345703125,-20.60975609756098,5.121951219512195,-15.243902439024392
10_51_27_625,-4.0,-3.0,-1.0,0.0,0.0,-2.0,2.0,-2.0,0.99658203125,-0.189453125,0.3203125,-27.195121951219516,-3.4756097560975614,-21.52439024390244
10_51_27_625,10.0,6.0,2.0,-6.0,-1.0,-7.0,5.0,-2.0,1.02001953125,-0.21240234375,0.32763671875,-28.04878048780488,-13.475609756097562,-23.59756097560976
10_51_27_625,0.0,-1.0,4.0,1.0,-2.0,-2.0,-4.0,-1.0,1.03515625,-0.177734375,0.30419921875,-20.60975609756098,-22.98780487804878,-22.31707317073171
10_51_27_681,10.0,12.0,1.0,1.0,1.0,0.0,7.0,5.0,0.9833984375,-0.2392578125,0.3203125,8.536585365853659,61.34146341463415,22.865853658536587
10_51_27_681,-1.0,-9.0,-14.0,-1.0,-7.0,-1.0,-4.0,-4.0,0.99658203125,-0.22705078125,0.3193359375,-5.914634146341464,58.29268292682927,21.402439024390247
10_51_27_681,-3.0,-3.0,-1.0,-8.0,1.0,-2.0,4.0,2.0,0.998046875,-0.18017578125,0.3076171875,-6.52439024390244,54.146341463414636,17.98780487804878
10_51_27_681,4.0,1.0,5.0,2.0,4.0,-1.0,0.0,0.0,0.99365234375,-0.1494140625,0.3173828125,2.9268292682926833,48.90243902439025,14.146341463414636
10_51_27_681,19.0,2.0,8.0,0.0,3.0,5.0,11.0,7.0,0.99462890625,-0.15576171875,0.3232421875,7.500000000000001,40.487804878048784,8.109756097560977
10_51_27_681,-2.0,14.0,-6.0,-3.0,-6.0,-9.0,-5.0,0.0,1.04296875,-0.19921875,0.306640625,2.682926829268293,31.76829268292683,2.1951219512195124
10_51_27_681,0.0,-1.0,-4.0,-3.0,-1.0,-3.0,4.0,0.0,1.0830078125,-0.25,0.29638671875,-6.036585365853659,24.573170731707318,-1.5853658536585367
10_51_27_681,1.0,-1.0,-5.0,3.0,-1.0,-1.0,-5.0,-3.0,1.0556640625,-0.22119140625,0.2724609375,-15.975609756097562,15.365853658536587,-7.25609756097561
10_51_27_743,7.0,6.0,16.0,3.0,1.0,-2.0,1.0,-4.0,1.00732421875,-0.130859375,0.3037109375,22.439024390243905,63.71951219512196,23.59756097560976
10_51_27_743,3.0,5.0,0.0,1.0,2.0,-4.0,1.0,-4.0,0.97998046875,-0.12841796875,0.33447265625,28.53658536585366,66.64634146341464,21.28048780487805
10_51_27_743,-1.0,1.0,4.0,0.0,0.0,1.0,5.0,2.0,1.0341796875,-0.138671875,0.31640625,35.79268292682927,67.8658536585366,19.573170731707318
10_51_27_743,-10.0,-7.0,-39.0,-3.0,-3.0,-3.0,-4.0,0.0,1.0322265625,-0.21435546875,0.3251953125,34.268292682926834,66.64634146341464,23.78048780487805
10_51_27_743,2.0,1.0,8.0,3.0,0.0,0.0,6.0,3.0,0.966796875,-0.224609375,0.3251953125,25.853658536585368,64.02439024390245,24.451219512195124
10_51_27_743,5.0,4.0,5.0,0.0,-1.0,1.0,5.0,4.0,0.9833984375,-0.2392578125,0.3203125,8.536585365853659,61.34146341463415,22.865853658536587
10_51_27_743,-6.0,-4.0,12.0,1.0,-1.0,1.0,-3.0,2.0,0.99658203125,-0.22705078125,0.3193359375,-5.914634146341464,58.29268292682927,21.402439024390247
10_51_27_743,4.0,2.0,6.0,2.0,-2.0,-1.0,-2.0,-6.0,0.998046875,-0.18017578125,0.3076171875,-6.52439024390244,54.146341463414636,17.98780487804878
10_51_27_743,6.0,6.0,2.0,0.0,2.0,-4.0,5.0,0.0,0.99365234375,-0.1494140625,0.3173828125,2.9268292682926833,48.90243902439025,14.146341463414636
10_51_27_743,3.0,-2.0,0.0,2.0,-3.0,-1.0,-2.0,-3.0,0.99462890625,-0.15576171875,0.3232421875,7.500000000000001,40.487804878048784,8.109756097560977
10_51_27_798,-8.0,-4.0,4.0,9.0,0.0,4.0,-1.0,-1.0,0.97998046875,-0.12841796875,0.33447265625,28.53658536585366,66.64634146341464,21.28048780487805
10_51_27_798,2.0,-4.0,-11.0,-5.0,-2.0,-6.0,0.0,-3.0,1.0341796875,-0.138671875,0.31640625,35.79268292682927,67.8658536585366,19.573170731707318
10_51_27_798,-4.0,3.0,-2.0,-1.0,-1.0,-1.0,-2.0,-4.0,1.0322265625,-0.21435546875,0.3251953125,34.268292682926834,66.64634146341464,23.78048780487805
10_51_27_798,-7.0,-4.0,6.0,6.0,0.0,-3.0,-6.0,-1.0,0.966796875,-0.224609375,0.3251953125,25.853658536585368,64.02439024390245,24.451219512195124
10_51_27_798,-6.0,-8.0,-11.0,-13.0,-6.0,-3.0,-8.0,-4.0,0.9833984375,-0.2392578125,0.3203125,8.536585365853659,61.34146341463415,22.865853658536587
10_51_27_798,-3.0,-3.0,-5.0,-4.0,-2.0,1.0,-2.0,0.0,0.99658203125,-0.22705078125,0.3193359375,-5.914634146341464,58.29268292682927,21.402439024390247
10_51_27_852,3.0,6.0,-6.0,-2.0,-6.0,-3.0,-4.0,2.0,0.85009765625,-0.09423828125,0.294921875,7.134146341463415,43.47560975609756,24.878048780487806
10_51_27_852,-7.0,-4.0,-1.0,5.0,7.0,3.0,0.0,-2.0,0.908203125,-0.10595703125,0.30078125,0.1829268292682927,47.37804878048781,24.512195121951223
10_51_27_852,-4.0,1.0,18.0,6.0,-2.0,-9.0,-8.0,-4.0,0.94287109375,-0.10302734375,0.29638671875,-0.06097560975609757,55.1829268292683,23.658536585365855
10_51_27_852,-11.0,-2.0,11.0,-3.0,-3.0,-3.0,-2.0,-2.0,0.99853515625,-0.07666015625,0.28857421875,7.439024390243903,59.93902439024391,21.707317073170735
10_51_27_852,10.0,5.0,-3.0,2.0,2.0,4.0,8.0,2.0,1.03271484375,-0.11181640625,0.27783203125,16.463414634146343,62.50000000000001,21.34146341463415
10_51_27_852,2.0,2.0,11.0,-2.0,-1.0,-4.0,-8.0,-3.0,1.00732421875,-0.130859375,0.3037109375,22.439024390243905,63.71951219512196,23.59756097560976
10_51_27_852,13.0,19.0,33.0,10.0,-4.0,-5.0,-3.0,3.0,0.97998046875,-0.12841796875,0.33447265625,28.53658536585366,66.64634146341464,21.28048780487805
10_51_27_852,-1.0,-9.0,-27.0,-6.0,3.0,0.0,0.0,-3.0,1.0341796875,-0.138671875,0.31640625,35.79268292682927,67.8658536585366,19.573170731707318
10_51_27_852,-9.0,-10.0,7.0,9.0,-1.0,-1.0,-4.0,-1.0,1.0322265625,-0.21435546875,0.3251953125,34.268292682926834,66.64634146341464,23.78048780487805
10_51_27_895,6.0,-3.0,9.0,4.0,3.0,2.0,3.0,-2.0,0.80615234375,-0.080078125,0.251953125,26.76829268292683,29.939024390243905,29.146341463414636
10_51_27_895,-3.0,-5.0,-4.0,-2.0,1.0,0.0,1.0,2.0,0.78173828125,-0.068359375,0.26708984375,17.98780487804878,35.85365853658537,28.353658536585368
10_51_27_895,-6.0,-1.0,-44.0,-8.0,-5.0,-6.0,-9.0,-5.0,0.77783203125,-0.07421875,0.2685546875,10.487804878048781,39.69512195121951,27.012195121951223
10_51_27_895,-4.0,-8.0,21.0,-5.0,-8.0,1.0,-7.0,-4.0,0.80126953125,-0.06787109375,0.29541015625,7.378048780487806,41.951219512195124,24.81707317073171
10_51_27_895,-15.0,-25.0,-17.0,-5.0,-5.0,-3.0,-9.0,-8.0,0.85009765625,-0.09423828125,0.294921875,7.134146341463415,43.47560975609756,24.878048780487806
10_51_27_895,2.0,1.0,5.0,1.0,-4.0,0.0,-3.0,2.0,0.908203125,-0.10595703125,0.30078125,0.1829268292682927,47.37804878048781,24.512195121951223
10_51_27_895,-6.0,-19.0,9.0,1.0,-4.0,0.0,-2.0,-1.0,0.94287109375,-0.10302734375,0.29638671875,-0.06097560975609757,55.1829268292683,23.658536585365855
10_51_27_895,6.0,1.0,-9.0,-5.0,-3.0,-1.0,0.0,1.0,0.99853515625,-0.07666015625,0.28857421875,7.439024390243903,59.93902439024391,21.707317073170735
10_51_27_895,-1.0,1.0,0.0,3.0,-2.0,-3.0,4.0,-2.0,1.03271484375,-0.11181640625,0.27783203125,16.463414634146343,62.50000000000001,21.34146341463415
10_51_27_895,3.0,6.0,-6.0,-2.0,-6.0,-3.0,-4.0,2.0,1.00732421875,-0.130859375,0.3037109375,22.439024390243905,63.71951219512196,23.59756097560976
10_51_27_958,-3.0,10.0,25.0,1.0,0.0,-1.0,-6.0,-1.0,0.814453125,-0.05517578125,0.22900390625,39.08536585365854,23.658536585365855,26.402439024390247
10_51_27_958,-5.0,0.0,5.0,-7.0,-3.0,3.0,2.0,-2.0,0.80615234375,-0.080078125,0.251953125,26.76829268292683,29.939024390243905,29.146341463414636
10_51_27_958,-17.0,-27.0,-15.0,-5.0,3.0,-4.0,6.0,-3.0,0.78173828125,-0.068359375,0.26708984375,17.98780487804878,35.85365853658537,28.353658536585368
10_51_27_958,3.0,2.0,-16.0,-1.0,0.0,-3.0,-3.0,-6.0,0.77783203125,-0.07421875,0.2685546875,10.487804878048781,39.69512195121951,27.012195121951223
10_51_27_958,3.0,-1.0,-4.0,-2.0,3.0,-5.0,0.0,5.0,0.80126953125,-0.06787109375,0.29541015625,7.378048780487806,41.951219512195124,24.81707317073171
10_51_27_958,-14.0,-8.0,18.0,0.0,-4.0,-6.0,-8.0,-9.0,0.85009765625,-0.09423828125,0.294921875,7.134146341463415,43.47560975609756,24.878048780487806
10_51_27_958,-15.0,-15.0,-14.0,-6.0,0.0,-2.0,-6.0,-4.0,0.908203125,-0.10595703125,0.30078125,0.1829268292682927,47.37804878048781,24.512195121951223
10_51_27_958,6.0,-3.0,-39.0,3.0,-5.0,0.0,-2.0,-3.0,0.94287109375,-0.10302734375,0.29638671875,-0.06097560975609757,55.1829268292683,23.658536585365855
10_51_27_958,6.0,-3.0,9.0,4.0,3.0,2.0,3.0,-2.0,0.99853515625,-0.07666015625,0.28857421875,7.439024390243903,59.93902439024391,21.707317073170735
10_51_27_958,-3.0,-5.0,-4.0,-2.0,1.0,0.0,1.0,2.0,1.03271484375,-0.11181640625,0.27783203125,16.463414634146343,62.50000000000001,21.34146341463415
10_51_28_010,-6.0,-7.0,-13.0,-1.0,-4.0,-4.0,-4.0,-3.0,0.8544921875,-0.0263671875,0.31201171875,23.719512195121954,-2.073170731707317,16.402439024390244
10_51_28_010,1.0,6.0,44.0,5.0,-1.0,-6.0,-4.0,-4.0,0.83740234375,-0.01953125,0.26025390625,23.53658536585366,3.231707317073171,20.914634146341466
10_51_28_010,1.0,-4.0,-21.0,-9.0,0.0,4.0,2.0,-4.0,0.80322265625,-0.00048828125,0.26953125,26.707317073170735,10.792682926829269,22.500000000000004
10_51_28_010,11.0,4.0,-8.0,-2.0,-4.0,-5.0,-3.0,1.0,0.80908203125,0.02734375,0.2705078125,37.5609756097561,19.878048780487806,23.475609756097562
10_51_28_010,-4.0,-3.0,18.0,-2.0,-2.0,2.0,-5.0,-6.0,0.814453125,-0.05517578125,0.22900390625,39.08536585365854,23.658536585365855,26.402439024390247
10_51_28_010,-4.0,-11.0,-10.0,-1.0,-1.0,-4.0,-8.0,-8.0,0.80615234375,-0.080078125,0.251953125,26.76829268292683,29.939024390243905,29.146341463414636
10_51_28_010,1.0,-6.0,7.0,-2.0,0.0,1.0,4.0,2.0,0.78173828125,-0.068359375,0.26708984375,17.98780487804878,35.85365853658537,28.353658536585368
10_51_28_010,13.0,-11.0,-13.0,3.0,1.0,6.0,0.0,-6.0,0.77783203125,-0.07421875,0.2685546875,10.487804878048781,39.69512195121951,27.012195121951223
10_51_28_010,1.0,1.0,-2.0,-1.0,-3.0,0.0,2.0,-2.0,0.80126953125,-0.06787109375,0.29541015625,7.378048780487806,41.951219512195124,24.81707317073171
10_51_28_010,1.0,0.0,14.0,3.0,0.0,-5.0,-2.0,6.0,0.85009765625,-0.09423828125,0.294921875,7.134146341463415,43.47560975609756,24.878048780487806
10_51_28_050,-16.0,-5.0,14.0,-2.0,-5.0,-3.0,-9.0,-3.0,0.8232421875,0.033203125,0.279296875,4.51219512195122,-12.378048780487806,0.853658536585366
10_51_28_050,5.0,-5.0,-17.0,-5.0,3.0,3.0,7.0,3.0,0.85546875,0.02783203125,0.2607421875,9.878048780487806,-8.963414634146343,0.30487804878048785
10_51_28_050,-6.0,-4.0,26.0,9.0,6.0,3.0,-2.0,-4.0,0.87158203125,-0.0302734375,0.26318359375,16.585365853658537,-7.500000000000001,7.621951219512196
10_51_28_050,15.0,-12.0,-14.0,-2.0,2.0,-2.0,-1.0,2.0,0.8544921875,-0.0263671875,0.31201171875,23.719512195121954,-2.073170731707317,16.402439024390244
10_51_28_050,2.0,2.0,-20.0,0.0,1.0,4.0,4.0,1.0,0.83740234375,-0.01953125,0.26025390625,23.53658536585366,3.231707317073171,20.914634146341466
10_51_28_050,-10.0,-7.0,10.0,-6.0,-3.0,-4.0,0.0,-4.0,0.80322265625,-0.00048828125,0.26953125,26.707317073170735,10.792682926829269,22.500000000000004
10_51_28_050,-2.0,2.0,11.0,6.0,4.0,6.0,4.0,-2.0,0.80908203125,0.02734375,0.2705078125,37.5609756097561,19.878048780487806,23.475609756097562
10_51_28_050,7.0,0.0,0.0,-1.0,-1.0,1.0,4.0,1.0,0.814453125,-0.05517578125,0.22900390625,39.08536585365854,23.658536585365855,26.402439024390247
10_51_28_050,-6.0,-7.0,-13.0,-1.0,-4.0,-4.0,-4.0,-3.0,0.80615234375,-0.080078125,0.251953125,26.76829268292683,29.939024390243905,29.146341463414636
10_51_28_050,1.0,6.0,44.0,5.0,-1.0,-6.0,-4.0,-4.0,0.78173828125,-0.068359375,0.26708984375,17.98780487804878,35.85365853658537,28.353658536585368
10_51_28_100,2.0,0.0,4.0,-2.0,1.0,2.0,2.0,2.0,0.87109375,0.10205078125,0.25830078125,12.256097560975611,-15.121951219512196,-0.1829268292682927
10_51_28_100,0.0,1.0,7.0,3.0,-5.0,1.0,0.0,0.0,0.83740234375,0.052734375,0.26318359375,8.231707317073171,-14.451219512195124,1.402439024390244
10_51_28_100,1.0,4.0,-4.0,4.0,0.0,0.0,3.0,-4.0,0.8232421875,0.033203125,0.279296875,4.51219512195122,-12.378048780487806,0.853658536585366
10_51_28_100,5.0,9.0,19.0,5.0,-1.0,-1.0,-1.0,0.0,0.85546875,0.02783203125,0.2607421875,9.878048780487806,-8.963414634146343,0.30487804878048785
10_51_28_100,4.0,-8.0,-32.0,0.0,0.0,-2.0,-2.0,4.0,0.87158203125,-0.0302734375,0.26318359375,16.585365853658537,-7.500000000000001,7.621951219512196
10_51_28_100,-5.0,-5.0,3.0,3.0,-2.0,1.0,-1.0,0.0,0.8544921875,-0.0263671875,0.31201171875,23.719512195121954,-2.073170731707317,16.402439024390244
10_51_28_100,-8.0,-12.0,-17.0,-6.0,-7.0,0.0,2.0,-3.0,0.83740234375,-0.01953125,0.26025390625,23.53658536585366,3.231707317073171,20.914634146341466
10_51_28_100,1.0,3.0,-28.0,1.0,-2.0,2.0,-5.0,-4.0,0.80322265625,-0.00048828125,0.26953125,26.707317073170735,10.792682926829269,22.500000000000004
10_51_28_100,-7.0,-9.0,-22.0,-4.0,-1.0,-3.0,-2.0,-4.0,0.80908203125,0.02734375,0.2705078125,37.5609756097561,19.878048780487806,23.475609756097562
10_51_28_156,6.0,19.0,29.0,7.0,-8.0,-8.0,3.0,-1.0,0.87548828125,0.1259765625,0.2841796875,-0.48780487804878053,-16.158536585365855,2.1341463414634148
10_51_28_156,-6.0,-13.0,8.0,0.0,2.0,-2.0,4.0,3.0,0.88134765625,0.142578125,0.2587890625,9.26829268292683,-14.695121951219514,-0.24390243902439027
10_51_28_156,1.0,2.0,13.0,4.0,0.0,-2.0,1.0,4.0,0.87109375,0.10205078125,0.25830078125,12.256097560975611,-15.121951219512196,-0.1829268292682927
10_51_28_156,-8.0,-6.0,-8.0,1.0,-8.0,-5.0,-1.0,1.0,0.83740234375,0.052734375,0.26318359375,8.231707317073171,-14.451219512195124,1.402439024390244
10_51_28_156,5.0,2.0,-1.0,0.0,3.0,6.0,4.0,2.0,0.8232421875,0.033203125,0.279296875,4.51219512195122,-12.378048780487806,0.853658536585366
10_51_28_156,3.0,11.0,5.0,3.0,2.0,-1.0,-1.0,0.0,0.85546875,0.02783203125,0.2607421875,9.878048780487806,-8.963414634146343,0.30487804878048785
10_51_28_156,-1.0,-6.0,1.0,2.0,-2.0,-1.0,-1.0,-2.0,0.87158203125,-0.0302734375,0.26318359375,16.585365853658537,-7.500000000000001,7.621951219512196
10_51_28_156,9.0,2.0,14.0,9.0,3.0,-2.0,0.0,10.0,0.8544921875,-0.0263671875,0.31201171875,23.719512195121954,-2.073170731707317,16.402439024390244
10_51_28_156,6.0,3.0,2.0,1.0,-2.0,-1.0,-2.0,1.0,0.83740234375,-0.01953125,0.26025390625,23.53658536585366,3.231707317073171,20.914634146341466
10_51_28_205,-5.0,3.0,-8.0,1.0,-1.0,-2.0,-2.0,2.0,0.9873046875,0.04638671875,0.2890625,-6.951219512195123,-19.207317073170735,1.6463414634146343
10_51_28_205,9.0,5.0,1.0,3.0,-1.0,-5.0,1.0,3.0,0.908203125,0.083984375,0.3095703125,-6.585365853658537,-18.53658536585366,2.804878048780488
10_51_28_205,-10.0,-2.0,2.0,0.0,3.0,4.0,-1.0,-4.0,0.87548828125,0.1259765625,0.2841796875,-0.48780487804878053,-16.158536585365855,2.1341463414634148
10_51_28_205,-2.0,-2.0,-4.0,-3.0,-3.0,-1.0,-2.0,-1.0,0.88134765625,0.142578125,0.2587890625,9.26829268292683,-14.695121951219514,-0.24390243902439027
10_51_28_205,-6.0,2.0,-1.0,-1.0,-2.0,-5.0,-9.0,-4.0,0.87109375,0.10205078125,0.25830078125,12.256097560975611,-15.121951219512196,-0.1829268292682927
10_51_28_205,0.0,5.0,-4.0,2.0,2.0,-2.0,3.0,0.0,0.83740234375,0.052734375,0.26318359375,8.231707317073171,-14.451219512195124,1.402439024390244
10_51_28_205,1.0,-10.0,8.0,4.0,-4.0,0.0,-8.0,1.0,0.8232421875,0.033203125,0.279296875,4.51219512195122,-12.378048780487806,0.853658536585366
10_51_28_205,-5.0,-1.0,-6.0,-5.0,-6.0,-1.0,-2.0,-1.0,0.85546875,0.02783203125,0.2607421875,9.878048780487806,-8.963414634146343,0.30487804878048785
10_51_28_205,-1.0,-1.0,-10.0,-1.0,3.0,5.0,3.0,2.0,0.87158203125,-0.0302734375,0.26318359375,16.585365853658537,-7.500000000000001,7.621951219512196
10_51_28_256,19.0,2.0,3.0,-3.0,1.0,-3.0,1.0,4.0,1.00244140625,0.07177734375,0.28369140625,-4.695121951219512,-17.25609756097561,1.9512195121951221
10_51_28_256,-4.0,-4.0,-7.0,-4.0,-6.0,5.0,-3.0,-1.0,1.00439453125,-0.0126953125,0.28369140625,-9.695121951219512,-21.097560975609756,5.914634146341464
10_51_28_256,-1.0,-2.0,5.0,0.0,1.0,0.0,-4.0,-1.0,0.9736328125,-0.041015625,0.3115234375,-21.03658536585366,-21.585365853658537,6.52439024390244
10_51_28_256,-6.0,-4.0,-1.0,4.0,1.0,2.0,-3.0,0.0,0.99755859375,0.03515625,0.3017578125,-16.158536585365855,-18.231707317073173,3.1707317073170733
10_51_28_256,7.0,7.0,6.0,5.0,5.0,0.0,6.0,0.0,0.9873046875,0.04638671875,0.2890625,-6.951219512195123,-19.207317073170735,1.6463414634146343
10_51_28_256,1.0,6.0,-7.0,4.0,4.0,-3.0,2.0,-1.0,0.908203125,0.083984375,0.3095703125,-6.585365853658537,-18.53658536585366,2.804878048780488
10_51_28_256,-9.0,-1.0,-4.0,-2.0,-1.0,-1.0,-1.0,-1.0,0.87548828125,0.1259765625,0.2841796875,-0.48780487804878053,-16.158536585365855,2.1341463414634148
10_51_28_256,-1.0,-12.0,-7.0,-5.0,-1.0,-4.0,0.0,1.0,0.88134765625,0.142578125,0.2587890625,9.26829268292683,-14.695121951219514,-0.24390243902439027
10_51_28_256,3.0,-3.0,-7.0,0.0,-1.0,-2.0,-4.0,-6.0,0.87109375,0.10205078125,0.25830078125,12.256097560975611,-15.121951219512196,-0.1829268292682927
10_51_28_256,6.0,9.0,-2.0,-3.0,-5.0,-1.0,-2.0,1.0,0.83740234375,0.052734375,0.26318359375,8.231707317073171,-14.451219512195124,1.402439024390244
10_51_28_302,6.0,2.0,5.0,5.0,0.0,-7.0,-8.0,-2.0,1.0224609375,0.07275390625,0.27099609375,-42.07317073170732,-20.60975609756098,11.707317073170733
10_51_28_302,-57.0,-16.0,-11.0,-14.0,-20.0,-8.0,45.0,-4.0,1.00244140625,0.11083984375,0.3369140625,-17.926829268292686,-17.5,-0.7317073170731708
10_51_28_302,11.0,-1.0,-2.0,-10.0,1.0,20.0,-20.0,-6.0,1.00244140625,0.07177734375,0.28369140625,-4.695121951219512,-17.25609756097561,1.9512195121951221
10_51_28_302,-10.0,-7.0,-11.0,-4.0,-2.0,-23.0,-14.0,0.0,1.00439453125,-0.0126953125,0.28369140625,-9.695121951219512,-21.097560975609756,5.914634146341464
10_51_28_302,28.0,0.0,3.0,5.0,2.0,3.0,4.0,3.0,0.9736328125,-0.041015625,0.3115234375,-21.03658536585366,-21.585365853658537,6.52439024390244
10_51_28_302,18.0,-3.0,-3.0,-18.0,-7.0,1.0,-3.0,2.0,0.99755859375,0.03515625,0.3017578125,-16.158536585365855,-18.231707317073173,3.1707317073170733
10_51_28_302,4.0,-5.0,-6.0,4.0,5.0,-7.0,1.0,-1.0,0.9873046875,0.04638671875,0.2890625,-6.951219512195123,-19.207317073170735,1.6463414634146343
10_51_28_302,-1.0,11.0,15.0,8.0,0.0,-1.0,2.0,0.0,0.908203125,0.083984375,0.3095703125,-6.585365853658537,-18.53658536585366,2.804878048780488
10_51_28_302,-1.0,-4.0,8.0,-12.0,-10.0,0.0,-2.0,-3.0,0.87548828125,0.1259765625,0.2841796875,-0.48780487804878053,-16.158536585365855,2.1341463414634148
10_51_28_346,20.0,11.0,-19.0,-15.0,-7.0,7.0,11.0,1.0,0.962890625,-0.0732421875,0.4384765625,9.573170731707318,-7.073170731707318,14.573170731707318
10_51_28_346,-1.0,4.0,21.0,-1.0,-4.0,-4.0,-4.0,5.0,0.93212890625,-0.16650390625,0.28662109375,-31.219512195121954,-18.04878048780488,32.80487804878049
10_51_28_346,18.0,-1.0,-6.0,5.0,12.0,4.0,-1.0,-1.0,0.939453125,-0.0888671875,0.234375,-43.65853658536586,-21.76829268292683,28.353658536585368
10_51_28_346,-62.0,-12.0,-9.0,4.0,-2.0,2.0,-3.0,-9.0,1.0224609375,0.07275390625,0.27099609375,-42.07317073170732,-20.60975609756098,11.707317073170733
10_51_28_346,12.0,-5.0,0.0,0.0,-4.0,-8.0,-9.0,-5.0,1.00244140625,0.11083984375,0.3369140625,-17.926829268292686,-17.5,-0.7317073170731708
10_51_28_346,6.0,7.0,3.0,3.0,-4.0,-4.0,-2.0,-4.0,1.00244140625,0.07177734375,0.28369140625,-4.695121951219512,-17.25609756097561,1.9512195121951221
10_51_28_346,3.0,9.0,2.0,2.0,5.0,6.0,5.0,4.0,1.00439453125,-0.0126953125,0.28369140625,-9.695121951219512,-21.097560975609756,5.914634146341464
10_51_28_346,-5.0,-6.0,-10.0,-7.0,4.0,-1.0,-2.0,-14.0,0.9736328125,-0.041015625,0.3115234375,-21.03658536585366,-21.585365853658537,6.52439024390244
10_51_28_346,5.0,-5.0,-2.0,-2.0,-9.0,-4.0,6.0,-7.0,0.99755859375,0.03515625,0.3017578125,-16.158536585365855,-18.231707317073173,3.1707317073170733
10_51_28_346,4.0,15.0,-4.0,-3.0,6.0,6.0,-14.0,-15.0,0.9873046875,0.04638671875,0.2890625,-6.951219512195123,-19.207317073170735,1.6463414634146343
10_51_28_410,22.0,15.0,7.0,2.0,0.0,-1.0,-30.0,-1.0,0.94091796875,0.0947265625,0.31005859375,19.085365853658537,-11.76829268292683,25.426829268292686
10_51_28_410,-3.0,-15.0,-5.0,-8.0,5.0,-10.0,25.0,6.0,0.91162109375,0.126953125,0.4482421875,24.32926829268293,-3.780487804878049,7.621951219512196
10_51_28_410,-13.0,-16.0,-8.0,-4.0,-6.0,12.0,127.0,30.0,0.962890625,-0.0732421875,0.4384765625,9.573170731707318,-7.073170731707318,14.573170731707318
10_51_28_410,-15.0,-11.0,-4.0,-4.0,-5.0,-56.0,-124.0,-23.0,0.93212890625,-0.16650390625,0.28662109375,-31.219512195121954,-18.04878048780488,32.80487804878049
10_51_28_410,-37.0,-7.0,-70.0,-15.0,-13.0,21.0,-23.0,-16.0,0.939453125,-0.0888671875,0.234375,-43.65853658536586,-21.76829268292683,28.353658536585368
10_51_28_410,15.0,9.0,65.0,18.0,-8.0,-23.0,-40.0,-2.0,1.0224609375,0.07275390625,0.27099609375,-42.07317073170732,-20.60975609756098,11.707317073170733
10_51_28_410,-8.0,10.0,72.0,35.0,20.0,-5.0,-6.0,-2.0,1.00244140625,0.11083984375,0.3369140625,-17.926829268292686,-17.5,-0.7317073170731708
10_51_28_410,-39.0,-10.0,-46.0,-32.0,5.0,4.0,3.0,-4.0,1.00244140625,0.07177734375,0.28369140625,-4.695121951219512,-17.25609756097561,1.9512195121951221
10_51_28_410,20.0,11.0,-19.0,-15.0,-7.0,7.0,11.0,1.0,1.00439453125,-0.0126953125,0.28369140625,-9.695121951219512,-21.097560975609756,5.914634146341464
10_51_28_410,-1.0,4.0,21.0,-1.0,-4.0,-4.0,-4.0,5.0,0.9736328125,-0.041015625,0.3115234375,-21.03658536585366,-21.585365853658537,6.52439024390244
10_51_28_448,-66.0,-31.0,-23.0,-12.0,-6.0,-24.0,127.0,0.0,0.990234375,-0.3466796875,0.408203125,-37.37804878048781,-3.2926829268292686,7.8048780487804885
10_51_28_448,23.0,17.0,16.0,8.0,-12.0,-4.0,-104.0,7.0,1.01416015625,-0.21142578125,0.41650390625,-73.04878048780489,-5.2439024390243905,7.439024390243903
10_51_28_448,8.0,-6.0,15.0,12.0,-5.0,-22.0,-22.0,-2.0,0.97900390625,0.02734375,0.34375,-52.19512195121952,-8.719512195121952,24.695121951219516
10_51_28_448,16.0,-3.0,-65.0,3.0,10.0,3.0,-5.0,4.0,0.94091796875,0.0947265625,0.31005859375,19.085365853658537,-11.76829268292683,25.426829268292686
10_51_28_448,42.0,11.0,24.0,-10.0,2.0,21.0,12.0,17.0,0.91162109375,0.126953125,0.4482421875,24.32926829268293,-3.780487804878049,7.621951219512196
10_51_28_448,-45.0,10.0,22.0,-35.0,-8.0,8.0,11.0,3.0,0.962890625,-0.0732421875,0.4384765625,9.573170731707318,-7.073170731707318,14.573170731707318
10_51_28_448,16.0,4.0,1.0,8.0,-7.0,-11.0,-4.0,-4.0,0.93212890625,-0.16650390625,0.28662109375,-31.219512195121954,-18.04878048780488,32.80487804878049
10_51_28_448,7.0,4.0,16.0,3.0,-1.0,6.0,1.0,6.0,0.939453125,-0.0888671875,0.234375,-43.65853658536586,-21.76829268292683,28.353658536585368
10_51_28_448,-9.0,7.0,6.0,0.0,2.0,4.0,8.0,-5.0,1.0224609375,0.07275390625,0.27099609375,-42.07317073170732,-20.60975609756098,11.707317073170733
10_51_28_448,-12.0,4.0,-3.0,5.0,0.0,4.0,0.0,24.0,1.00244140625,0.11083984375,0.3369140625,-17.926829268292686,-17.5,-0.7317073170731708
10_51_28_504,22.0,9.0,-11.0,3.0,-8.0,-19.0,38.0,36.0,0.92626953125,-0.28271484375,0.36669921875,-7.865853658536586,-2.5,4.695121951219512
10_51_28_504,-21.0,20.0,-9.0,-12.0,-9.0,22.0,11.0,-15.0,0.990234375,-0.3466796875,0.408203125,-37.37804878048781,-3.2926829268292686,7.8048780487804885
10_51_28_504,-5.0,-49.0,-38.0,-9.0,-7.0,-13.0,2.0,-17.0,1.01416015625,-0.21142578125,0.41650390625,-73.04878048780489,-5.2439024390243905,7.439024390243903
10_51_28_504,60.0,-6.0,5.0,7.0,29.0,53.0,-21.0,-14.0,0.97900390625,0.02734375,0.34375,-52.19512195121952,-8.719512195121952,24.695121951219516
10_51_28_504,-79.0,-29.0,-11.0,-17.0,-17.0,-2.0,-27.0,-9.0,0.94091796875,0.0947265625,0.31005859375,19.085365853658537,-11.76829268292683,25.426829268292686
10_51_28_504,70.0,29.0,17.0,-5.0,-1.0,-18.0,-87.0,-22.0,0.91162109375,0.126953125,0.4482421875,24.32926829268293,-3.780487804878049,7.621951219512196
10_51_28_504,-66.0,-31.0,-23.0,-12.0,-6.0,-24.0,127.0,0.0,0.962890625,-0.0732421875,0.4384765625,9.573170731707318,-7.073170731707318,14.573170731707318
10_51_28_504,23.0,17.0,16.0,8.0,-12.0,-4.0,-104.0,7.0,0.93212890625,-0.16650390625,0.28662109375,-31.219512195121954,-18.04878048780488,32.80487804878049
10_51_28_555,31.0,23.0,103.0,0.0,17.0,49.0,3.0,12.0,0.93310546875,-0.29638671875,0.30419921875,9.146341463414634,0.12195121951219513,9.634146341463415
10_51_28_555,11.0,20.0,127.0,20.0,-1.0,-23.0,0.0,2.0,0.919921875,-0.46337890625,0.2216796875,24.939024390243905,-14.085365853658537,2.7439024390243905
10_51_28_555,-3.0,-4.0,127.0,5.0,-3.0,-15.0,3.0,1.0,0.935546875,-0.3291015625,0.5068359375,4.695121951219512,-9.51219512195122,4.75609756097561
10_51_28_555,4.0,-3.0,-128.0,12.0,-2.0,2.0,4.0,2.0,0.93017578125,-0.28173828125,0.36865234375,-10.609756097560977,-6.463414634146342,1.5853658536585367
10_51_28_555,34.0,-37.0,-128.0,12.0,8.0,16.0,15.0,21.0,0.92626953125,-0.28271484375,0.36669921875,-7.865853658536586,-2.5,4.695121951219512
10_51_28_555,-23.0,-47.0,-128.0,-5.0,4.0,11.0,-32.0,-52.0,0.990234375,-0.3466796875,0.408203125,-37.37804878048781,-3.2926829268292686,7.8048780487804885
10_51_28_555,-26.0,-22.0,-70.0,10.0,2.0,4.0,-14.0,1.0,1.01416015625,-0.21142578125,0.41650390625,-73.04878048780489,-5.2439024390243905,7.439024390243903
10_51_28_555,-20.0,-10.0,127.0,-6.0,-4.0,11.0,0.0,16.0,0.97900390625,0.02734375,0.34375,-52.19512195121952,-8.719512195121952,24.695121951219516
10_51_28_555,8.0,-18.0,-128.0,-10.0,5.0,3.0,1.0,30.0,0.94091796875,0.0947265625,0.31005859375,19.085365853658537,-11.76829268292683,25.426829268292686
10_51_28_555,1.0,87.0,127.0,6.0,-7.0,-14.0,-20.0,-10.0,0.91162109375,0.126953125,0.4482421875,24.32926829268293,-3.780487804878049,7.621951219512196
10_51_28_603,38.0,28.0,-4.0,-6.0,-1.0,-10.0,-14.0,-6.0,0.93017578125,-0.265625,0.333984375,29.939024390243905,3.1097560975609757,46.463414634146346
10_51_28_603,0.0,20.0,-6.0,5.0,4.0,5.0,22.0,13.0,0.8798828125,-0.33056640625,0.3203125,4.207317073170732,4.939024390243903,46.82926829268293
10_51_28_603,-38.0,12.0,-49.0,1.0,7.0,4.0,23.0,-1.0,0.88671875,-0.23193359375,0.26318359375,14.207317073170733,9.390243902439025,31.280487804878053
10_51_28_603,-30.0,-63.0,-40.0,-11.0,-23.0,-22.0,-48.0,-20.0,0.93310546875,-0.29638671875,0.30419921875,9.146341463414634,0.12195121951219513,9.634146341463415
10_51_28_603,-35.0,-5.0,93.0,-14.0,-18.0,-31.0,-128.0,-22.0,0.919921875,-0.46337890625,0.2216796875,24.939024390243905,-14.085365853658537,2.7439024390243905
10_51_28_603,16.0,1.0,-91.0,2.0,15.0,35.0,127.0,18.0,0.935546875,-0.3291015625,0.5068359375,4.695121951219512,-9.51219512195122,4.75609756097561
10_51_28_603,10.0,11.0,31.0,-1.0,-20.0,5.0,-85.0,46.0,0.93017578125,-0.28173828125,0.36865234375,-10.609756097560977,-6.463414634146342,1.5853658536585367
10_51_28_603,-1.0,13.0,-15.0,33.0,56.0,18.0,-104.0,4.0,0.92626953125,-0.28271484375,0.36669921875,-7.865853658536586,-2.5,4.695121951219512
10_51_28_603,28.0,11.0,37.0,-11.0,4.0,-4.0,-2.0,4.0,0.990234375,-0.3466796875,0.408203125,-37.37804878048781,-3.2926829268292686,7.8048780487804885
10_51_28_603,9.0,37.0,-77.0,27.0,-20.0,-8.0,-9.0,0.0,1.01416015625,-0.21142578125,0.41650390625,-73.04878048780489,-5.2439024390243905,7.439024390243903
10_51_28_664,-23.0,-18.0,-9.0,-5.0,100.0,8.0,27.0,33.0,0.99755859375,0.02490234375,0.29638671875,10.792682926829269,0.24390243902439027,9.085365853658537
10_51_28_664,82.0,-2.0,15.0,49.0,-21.0,-7.0,-60.0,-27.0,0.97705078125,-0.12744140625,0.2802734375,36.03658536585366,1.8902439024390245,34.146341463414636
10_51_28_664,-51.0,20.0,16.0,-51.0,-42.0,-33.0,-10.0,-5.0,0.93017578125,-0.265625,0.333984375,29.939024390243905,3.1097560975609757,46.463414634146346
10_51_28_664,-32.0,-20.0,-1.0,15.0,-2.0,-19.0,1.0,4.0,0.8798828125,-0.33056640625,0.3203125,4.207317073170732,4.939024390243903,46.82926829268293
10_51_28_664,-13.0,6.0,9.0,5.0,6.0,-1.0,73.0,-21.0,0.88671875,-0.23193359375,0.26318359375,14.207317073170733,9.390243902439025,31.280487804878053
10_51_28_664,-14.0,-1.0,-16.0,-1.0,-2.0,3.0,52.0,6.0,0.93310546875,-0.29638671875,0.30419921875,9.146341463414634,0.12195121951219513,9.634146341463415
10_51_28_664,-10.0,4.0,12.0,11.0,8.0,14.0,-32.0,12.0,0.919921875,-0.46337890625,0.2216796875,24.939024390243905,-14.085365853658537,2.7439024390243905
10_51_28_664,49.0,-12.0,-9.0,-9.0,-11.0,-15.0,-12.0,-13.0,0.935546875,-0.3291015625,0.5068359375,4.695121951219512,-9.51219512195122,4.75609756097561
10_51_28_664,38.0,28.0,-4.0,-6.0,-1.0,-10.0,-14.0,-6.0,0.93017578125,-0.28173828125,0.36865234375,-10.609756097560977,-6.463414634146342,1.5853658536585367
10_51_28_664,0.0,20.0,-6.0,5.0,4.0,5.0,22.0,13.0,0.92626953125,-0.28271484375,0.36669921875,-7.865853658536586,-2.5,4.695121951219512
10_51_28_711,27.0,32.0,98.0,17.0,-22.0,20.0,127.0,57.0,0.88525390625,-0.3212890625,0.33203125,-51.951219512195124,4.329268292682928,28.84146341463415
10_51_28_711,127.0,73.0,-113.0,4.0,46.0,-32.0,-67.0,108.0,1.0087890625,-0.01123046875,0.31103515625,-23.10975609756098,4.451219512195122,11.585365853658537
10_51_28_711,-128.0,-15.0,16.0,15.0,56.0,48.0,127.0,-49.0,0.99755859375,0.02490234375,0.29638671875,10.792682926829269,0.24390243902439027,9.085365853658537
10_51_28_711,72.0,24.0,51.0,-2.0,-88.0,-46.0,-128.0,19.0,0.97705078125,-0.12744140625,0.2802734375,36.03658536585366,1.8902439024390245,34.146341463414636
10_51_28_711,-12.0,-26.0,-6.0,12.0,34.0,-2.0,24.0,-6.0,0.93017578125,-0.265625,0.333984375,29.939024390243905,3.1097560975609757,46.463414634146346
10_51_28_711,-41.0,7.0,2.0,-21.0,13.0,18.0,12.0,-1.0,0.8798828125,-0.33056640625,0.3203125,4.207317073170732,4.939024390243903,46.82926829268293
10_51_28_711,35.0,17.0,5.0,-2.0,-28.0,-32.0,-15.0,0.0,0.88671875,-0.23193359375,0.26318359375,14.207317073170733,9.390243902439025,31.280487804878053
10_51_28_711,-58.0,-20.0,-6.0,-10.0,-41.0,-32.0,34.0,-8.0,0.93310546875,-0.29638671875,0.30419921875,9.146341463414634,0.12195121951219513,9.634146341463415
10_51_28_711,-23.0,3.0,-1.0,6.0,-38.0,10.0,-51.0,-1.0,0.919921875,-0.46337890625,0.2216796875,24.939024390243905,-14.085365853658537,2.7439024390243905
10_51_28_711,67.0,-19.0,15.0,-8.0,26.0,32.0,-25.0,-1.0,0.935546875,-0.3291015625,0.5068359375,4.695121951219512,-9.51219512195122,4.75609756097561
10_51_28_757,15.0,24.0,-103.0,5.0,42.0,74.0,-72.0,-128.0,0.9404296875,-0.287109375,0.3642578125,-19.085365853658537,10.914634146341465,7.134146341463415
10_51_28_757,121.0,-30.0,-97.0,-4.0,-15.0,127.0,-8.0,57.0,0.87841796875,-0.2275390625,0.4267578125,1.829268292682927,14.51219512195122,16.82926829268293
10_51_28_757,-128.0,-38.0,122.0,14.0,-26.0,34.0,-30.0,3.0,0.83935546875,-0.36181640625,0.39208984375,-24.512195121951223,7.439024390243903,32.6219512195122
10_51_28_757,115.0,71.0,29.0,29.0,-12.0,-79.0,-3.0,27.0,0.88525390625,-0.3212890625,0.33203125,-51.951219512195124,4.329268292682928,28.84146341463415
10_51_28_757,-26.0,40.0,127.0,4.0,17.0,-66.0,-3.0,-43.0,1.0087890625,-0.01123046875,0.31103515625,-23.10975609756098,4.451219512195122,11.585365853658537
10_51_28_757,-11.0,-50.0,-128.0,-11.0,-8.0,51.0,-13.0,40.0,0.99755859375,0.02490234375,0.29638671875,10.792682926829269,0.24390243902439027,9.085365853658537
10_51_28_757,-13.0,38.0,116.0,28.0,31.0,4.0,-36.0,-26.0,0.97705078125,-0.12744140625,0.2802734375,36.03658536585366,1.8902439024390245,34.146341463414636
10_51_28_757,39.0,18.0,-66.0,-32.0,-4.0,2.0,-21.0,5.0,0.93017578125,-0.265625,0.333984375,29.939024390243905,3.1097560975609757,46.463414634146346
10_51_28_757,-13.0,-40.0,-29.0,-21.0,-39.0,-19.0,-12.0,1.0,0.8798828125,-0.33056640625,0.3203125,4.207317073170732,4.939024390243903,46.82926829268293
10_51_28_757,-22.0,10.0,0.0,13.0,-6.0,4.0,-35.0,-19.0,0.88671875,-0.23193359375,0.26318359375,14.207317073170733,9.390243902439025,31.280487804878053
10_51_28_810,-27.0,-7.0,18.0,23.0,47.0,17.0,-106.0,-24.0,0.86328125,-0.35791015625,0.421875,7.621951219512196,11.158536585365855,21.03658536585366
10_51_28_810,2.0,13.0,29.0,-11.0,17.0,109.0,112.0,15.0,1.00537109375,-0.4892578125,0.3017578125,-12.134146341463415,5.2439024390243905,20.60975609756098
10_51_28_810,-94.0,-36.0,-21.0,-2.0,-42.0,-104.0,-92.0,-32.0,1.06396484375,-0.43359375,0.31640625,-33.23170731707317,2.804878048780488,22.012195121951223
10_51_28_810,-33.0,-3.0,17.0,-13.0,53.0,23.0,34.0,-2.0,0.9404296875,-0.287109375,0.3642578125,-19.085365853658537,10.914634146341465,7.134146341463415
10_51_28_810,122.0,37.0,40.0,-14.0,-48.0,1.0,116.0,18.0,0.87841796875,-0.2275390625,0.4267578125,1.829268292682927,14.51219512195122,16.82926829268293
10_51_28_810,15.0,-14.0,-42.0,15.0,28.0,-13.0,-83.0,-19.0,0.83935546875,-0.36181640625,0.39208984375,-24.512195121951223,7.439024390243903,32.6219512195122
10_51_28_810,18.0,19.0,9.0,28.0,-1.0,-18.0,3.0,37.0,0.88525390625,-0.3212890625,0.33203125,-51.951219512195124,4.329268292682928,28.84146341463415
10_51_28_810,-69.0,-34.0,10.0,-35.0,-26.0,-59.0,12.0,-27.0,1.0087890625,-0.01123046875,0.31103515625,-23.10975609756098,4.451219512195122,11.585365853658537
10_51_28_810,8.0,9.0,-128.0,14.0,28.0,-4.0,-19.0,-44.0,0.99755859375,0.02490234375,0.29638671875,10.792682926829269,0.24390243902439027,9.085365853658537
10_51_28_810,-14.0,9.0,123.0,20.0,-16.0,3.0,-10.0,14.0,0.97705078125,-0.12744140625,0.2802734375,36.03658536585366,1.8902439024390245,34.146341463414636
10_51_28_856,19.0,-21.0,-55.0,2.0,-42.0,-106.0,-128.0,-52.0,0.73779296875,-0.36865234375,0.51220703125,-4.085365853658537,15.975609756097562,24.75609756097561
10_51_28_856,57.0,15.0,7.0,-22.0,14.0,37.0,-42.0,3.0,0.814453125,-0.36328125,0.49365234375,-10.365853658536587,15.30487804878049,28.353658536585368
10_51_28_856,-77.0,-14.0,-10.0,7.0,12.0,-128.0,-10.0,-16.0,0.86328125,-0.35791015625,0.421875,7.621951219512196,11.158536585365855,21.03658536585366
10_51_28_856,-33.0,-10.0,-14.0,4.0,6.0,71.0,94.0,35.0,1.00537109375,-0.4892578125,0.3017578125,-12.134146341463415,5.2439024390243905,20.60975609756098
10_51_28_856,5.0,-20.0,29.0,-7.0,-69.0,70.0,-78.0,-12.0,1.06396484375,-0.43359375,0.31640625,-33.23170731707317,2.804878048780488,22.012195121951223
10_51_28_856,-3.0,4.0,7.0,34.0,123.0,26.0,-15.0,41.0,0.9404296875,-0.287109375,0.3642578125,-19.085365853658537,10.914634146341465,7.134146341463415
10_51_28_856,-10.0,5.0,-10.0,2.0,2.0,-30.0,82.0,-21.0,0.87841796875,-0.2275390625,0.4267578125,1.829268292682927,14.51219512195122,16.82926829268293
10_51_28_856,81.0,29.0,63.0,10.0,-4.0,-16.0,-61.0,22.0,0.83935546875,-0.36181640625,0.39208984375,-24.512195121951223,7.439024390243903,32.6219512195122
10_51_28_856,-103.0,-38.0,-74.0,-36.0,-79.0,49.0,99.0,-24.0,0.88525390625,-0.3212890625,0.33203125,-51.951219512195124,4.329268292682928,28.84146341463415
10_51_28_856,1.0,-5.0,16.0,-4.0,-10.0,-67.0,32.0,-26.0,1.0087890625,-0.01123046875,0.31103515625,-23.10975609756098,4.451219512195122,11.585365853658537
10_51_28_908,-46.0,-32.0,-35.0,10.0,95.0,-103.0,-60.0,7.0,0.796875,-0.41943359375,0.38427734375,5.548780487804878,19.390243902439025,17.134146341463417
10_51_28_908,41.0,3.0,29.0,8.0,25.0,25.0,9.0,63.0,0.91943359375,-0.2998046875,0.4560546875,9.146341463414634,18.53658536585366,19.26829268292683
10_51_28_908,12.0,-20.0,8.0,-48.0,-113.0,-27.0,-32.0,-10.0,0.85009765625,-0.14892578125,0.50390625,11.646341463414634,18.658536585365855,20.182926829268293
10_51_28_908,-3.0,1.0,15.0,0.0,33.0,25.0,-34.0,-4.0,0.73779296875,-0.36865234375,0.51220703125,-4.085365853658537,15.975609756097562,24.75609756097561
10_51_28_908,-19.0,-15.0,-10.0,15.0,-2.0,-4.0,20.0,3.0,0.814453125,-0.36328125,0.49365234375,-10.365853658536587,15.30487804878049,28.353658536585368
10_51_28_908,-4.0,-3.0,-20.0,-10.0,-14.0,-19.0,-20.0,-24.0,0.86328125,-0.35791015625,0.421875,7.621951219512196,11.158536585365855,21.03658536585366
10_51_28_908,-45.0,-17.0,-33.0,5.0,65.0,-29.0,-26.0,-6.0,1.00537109375,-0.4892578125,0.3017578125,-12.134146341463415,5.2439024390243905,20.60975609756098
10_51_28_908,1.0,6.0,16.0,-5.0,-23.0,33.0,-18.0,-2.0,1.06396484375,-0.43359375,0.31640625,-33.23170731707317,2.804878048780488,22.012195121951223
10_51_28_908,-23.0,-2.0,-18.0,13.0,-15.0,-111.0,-5.0,9.0,0.9404296875,-0.287109375,0.3642578125,-19.085365853658537,10.914634146341465,7.134146341463415
10_51_28_908,8.0,17.0,4.0,16.0,36.0,4.0,105.0,50.0,0.87841796875,-0.2275390625,0.4267578125,1.829268292682927,14.51219512195122,16.82926829268293
10_51_28_965,-72.0,4.0,1.0,-11.0,-74.0,-9.0,-128.0,-81.0,0.720703125,-0.46826171875,0.318359375,2.5,10.853658536585368,7.560975609756098
10_51_28_965,-68.0,-59.0,-27.0,5.0,43.0,15.0,127.0,0.0,0.74853515625,-0.470703125,0.39404296875,3.1097560975609757,16.70731707317073,13.353658536585368
10_51_28_965,127.0,55.0,32.0,-10.0,-64.0,23.0,-128.0,-17.0,0.796875,-0.41943359375,0.38427734375,5.548780487804878,19.390243902439025,17.134146341463417
10_51_28_965,24.0,9.0,0.0,-15.0,43.0,26.0,6.0,14.0,0.91943359375,-0.2998046875,0.4560546875,9.146341463414634,18.53658536585366,19.26829268292683
10_51_28_965,-15.0,-2.0,13.0,18.0,-45.0,26.0,40.0,15.0,0.85009765625,-0.14892578125,0.50390625,11.646341463414634,18.658536585365855,20.182926829268293
10_51_28_965,-41.0,-10.0,-13.0,-25.0,-6.0,-44.0,-67.0,-43.0,0.73779296875,-0.36865234375,0.51220703125,-4.085365853658537,15.975609756097562,24.75609756097561
10_51_28_965,-9.0,-6.0,-2.0,11.0,96.0,-2.0,-23.0,-17.0,0.814453125,-0.36328125,0.49365234375,-10.365853658536587,15.30487804878049,28.353658536585368
10_51_28_965,44.0,6.0,-1.0,-1.0,4.0,-29.0,-34.0,9.0,0.86328125,-0.35791015625,0.421875,7.621951219512196,11.158536585365855,21.03658536585366
10_51_28_965,-55.0,-3.0,-12.0,-16.0,-66.0,12.0,-99.0,-18.0,1.00537109375,-0.4892578125,0.3017578125,-12.134146341463415,5.2439024390243905,20.60975609756098
10_51_28_965,-37.0,-30.0,-26.0,-9.0,-45.0,-4.0,127.0,-8.0,1.06396484375,-0.43359375,0.31640625,-33.23170731707317,2.804878048780488,22.012195121951223
10_51_29_006,-29.0,-8.0,-12.0,-12.0,127.0,0.0,127.0,0.0,0.8544921875,-0.2626953125,0.46923828125,5.3048780487804885,17.134146341463417,8.658536585365855
10_51_29_006,36.0,16.0,17.0,-66.0,-90.0,-24.0,-94.0,-16.0,0.78466796875,-0.37451171875,0.41357421875,-3.1707317073170733,9.451219512195122,14.451219512195124
10_51_29_006,-18.0,-5.0,3.0,-23.0,-103.0,6.0,18.0,5.0,0.80224609375,-0.4638671875,0.330078125,-5.7926829268292686,9.390243902439025,8.719512195121952
10_51_29_006,18.0,-12.0,0.0,-2.0,13.0,-1.0,-103.0,-14.0,0.720703125,-0.46826171875,0.318359375,2.5,10.853658536585368,7.560975609756098
10_51_29_006,116.0,-25.0,6.0,9.0,-41.0,-24.0,26.0,15.0,0.74853515625,-0.470703125,0.39404296875,3.1097560975609757,16.70731707317073,13.353658536585368
10_51_29_006,-48.0,-11.0,-16.0,-18.0,31.0,7.0,16.0,-6.0,0.796875,-0.41943359375,0.38427734375,5.548780487804878,19.390243902439025,17.134146341463417
10_51_29_006,70.0,15.0,33.0,36.0,119.0,41.0,39.0,36.0,0.91943359375,-0.2998046875,0.4560546875,9.146341463414634,18.53658536585366,19.26829268292683
10_51_29_006,44.0,6.0,31.0,-45.0,-128.0,-15.0,1.0,52.0,0.85009765625,-0.14892578125,0.50390625,11.646341463414634,18.658536585365855,20.182926829268293
10_51_29_006,-25.0,-61.0,-63.0,-26.0,-37.0,-53.0,-67.0,-56.0,0.73779296875,-0.36865234375,0.51220703125,-4.085365853658537,15.975609756097562,24.75609756097561
10_51_29_006,-38.0,9.0,17.0,40.0,127.0,-9.0,33.0,-37.0,0.814453125,-0.36328125,0.49365234375,-10.365853658536587,15.30487804878049,28.353658536585368
10_51_29_073,1.0,18.0,-13.0,-27.0,24.0,-10.0,76.0,11.0,0.78271484375,-0.27685546875,0.4599609375,-7.8048780487804885,14.02439024390244,10.24390243902439
10_51_29_073,-99.0,7.0,14.0,35.0,0.0,-16.0,-49.0,1.0,0.86279296875,-0.3232421875,0.470703125,2.7439024390243905,18.10975609756098,10.182926829268293
10_51_29_073,127.0,15.0,14.0,5.0,6.0,-51.0,-36.0,12.0,0.8544921875,-0.2626953125,0.46923828125,5.3048780487804885,17.134146341463417,8.658536585365855
10_51_29_073,-114.0,-42.0,-11.0,7.0,-38.0,-35.0,56.0,-1.0,0.78466796875,-0.37451171875,0.41357421875,-3.1707317073170733,9.451219512195122,14.451219512195124
10_51_29_073,14.0,16.0,10.0,-5.0,-128.0,2.0,-26.0,12.0,0.80224609375,-0.4638671875,0.330078125,-5.7926829268292686,9.390243902439025,8.719512195121952
10_51_29_073,-108.0,-37.0,-45.0,16.0,127.0,-26.0,-31.0,-67.0,0.720703125,-0.46826171875,0.318359375,2.5,10.853658536585368,7.560975609756098
10_51_29_073,103.0,36.0,29.0,-4.0,46.0,36.0,31.0,35.0,0.74853515625,-0.470703125,0.39404296875,3.1097560975609757,16.70731707317073,13.353658536585368
10_51_29_073,98.0,35.0,35.0,-81.0,-128.0,41.0,28.0,49.0,0.796875,-0.41943359375,0.38427734375,5.548780487804878,19.390243902439025,17.134146341463417
10_51_29_073,-6.0,-9.0,-26.0,-33.0,-36.0,-1.0,-71.0,-63.0,0.91943359375,-0.2998046875,0.4560546875,9.146341463414634,18.53658536585366,19.26829268292683
10_51_29_073,-9.0,6.0,-2.0,24.0,10.0,0.0,-23.0,26.0,0.85009765625,-0.14892578125,0.50390625,11.646341463414634,18.658536585365855,20.182926829268293
10_51_29_109,43.0,30.0,21.0,18.0,64.0,39.0,10.0,31.0,0.78662109375,-0.263671875,0.3427734375,10.792682926829269,9.329268292682928,5.365853658536586
10_51_29_109,-63.0,-28.0,-33.0,45.0,42.0,-2.0,3.0,-14.0,0.89111328125,-0.46875,0.30029296875,5.2439024390243905,11.646341463414634,10.731707317073171
10_51_29_109,58.0,33.0,57.0,-86.0,0.0,-10.0,-36.0,3.0,0.82373046875,-0.37744140625,0.42138671875,-12.073170731707318,10.426829268292684,11.951219512195124
10_51_29_109,-27.0,-2.0,-3.0,-36.0,8.0,-20.0,35.0,17.0,0.78271484375,-0.27685546875,0.4599609375,-7.8048780487804885,14.02439024390244,10.24390243902439
10_51_29_109,26.0,13.0,12.0,-1.0,-43.0,-9.0,70.0,26.0,0.86279296875,-0.3232421875,0.470703125,2.7439024390243905,18.10975609756098,10.182926829268293
10_51_29_109,31.0,6.0,23.0,-28.0,-109.0,0.0,26.0,-2.0,0.8544921875,-0.2626953125,0.46923828125,5.3048780487804885,17.134146341463417,8.658536585365855
10_51_29_109,-7.0,-34.0,-32.0,99.0,13.0,-22.0,-38.0,-7.0,0.78466796875,-0.37451171875,0.41357421875,-3.1707317073170733,9.451219512195122,14.451219512195124
10_51_29_109,-33.0,10.0,2.0,33.0,127.0,-3.0,10.0,2.0,0.80224609375,-0.4638671875,0.330078125,-5.7926829268292686,9.390243902439025,8.719512195121952
10_51_29_109,39.0,27.0,4.0,36.0,-13.0,-1.0,48.0,35.0,0.720703125,-0.46826171875,0.318359375,2.5,10.853658536585368,7.560975609756098
10_51_29_109,13.0,-16.0,50.0,58.0,-49.0,13.0,-52.0,-21.0,0.74853515625,-0.470703125,0.39404296875,3.1097560975609757,16.70731707317073,13.353658536585368
10_51_29_157,31.0,26.0,52.0,10.0,-77.0,9.0,12.0,9.0,0.8896484375,-0.43701171875,0.4814453125,7.073170731707318,2.5609756097560976,10.365853658536587
10_51_29_157,-84.0,-35.0,-31.0,10.0,-90.0,3.0,-52.0,-18.0,0.837890625,-0.40869140625,0.47412109375,2.1341463414634148,2.3170731707317076,10.060975609756099
10_51_29_157,26.0,19.0,33.0,48.0,127.0,-7.0,34.0,63.0,0.79931640625,-0.298828125,0.47119140625,3.9024390243902443,2.378048780487805,8.292682926829269
10_51_29_157,30.0,24.0,22.0,-3.0,-17.0,-17.0,15.0,40.0,0.78662109375,-0.263671875,0.3427734375,10.792682926829269,9.329268292682928,5.365853658536586
10_51_29_157,-45.0,-40.0,3.0,-11.0,-65.0,3.0,-23.0,11.0,0.89111328125,-0.46875,0.30029296875,5.2439024390243905,11.646341463414634,10.731707317073171
10_51_29_157,111.0,63.0,23.0,-36.0,-36.0,-5.0,22.0,16.0,0.82373046875,-0.37744140625,0.42138671875,-12.073170731707318,10.426829268292684,11.951219512195124
10_51_29_157,-89.0,-8.0,-34.0,-10.0,-90.0,-16.0,79.0,-15.0,0.78271484375,-0.27685546875,0.4599609375,-7.8048780487804885,14.02439024390244,10.24390243902439
10_51_29_157,-83.0,-31.0,-36.0,-20.0,64.0,0.0,-128.0,-35.0,0.86279296875,-0.3232421875,0.470703125,2.7439024390243905,18.10975609756098,10.182926829268293
10_51_29_157,-10.0,2.0,41.0,72.0,127.0,-20.0,30.0,15.0,0.8544921875,-0.2626953125,0.46923828125,5.3048780487804885,17.134146341463417,8.658536585365855
10_51_29_157,13.0,30.0,13.0,-20.0,-94.0,11.0,53.0,-3.0,0.78466796875,-0.37451171875,0.41357421875,-3.1707317073170733,9.451219512195122,14.451219512195124
10_51_29_220,29.0,4.0,-18.0,2.0,-5.0,8.0,-10.0,8.0,0.76904296875,-0.39794921875,0.42822265625,10.060975609756099,-3.1707317073170733,4.451219512195122
