Timestamps,channel_1,channel_2,channel_3,channel_4,channel_5,channel_6,channel_7,channel_8,ACC_X,ACC_Y,ACC_Z,GYR_X,GYR_Y,GYR_Z
11_40_15_905,1.0,0.0,0.0,-1.0,-1.0,0.0,-2.0,-2.0,0.92138671875,-0.0732421875,0.32470703125,2.0121951219512195,0.5487804878048781,1.9512195121951221
11_40_15_905,-2.0,0.0,0.0,-3.0,0.0,-4.0,2.0,-3.0,0.9228515625,-0.07763671875,0.31787109375,1.5853658536585367,0.7317073170731708,1.7682926829268295
11_40_15_905,0.0,-1.0,-3.0,-3.0,-4.0,-4.0,-4.0,1.0,0.91796875,-0.07470703125,0.32275390625,2.5,1.4634146341463417,1.7682926829268295
11_40_15_905,-5.0,0.0,-3.0,0.0,1.0,-1.0,2.0,-2.0,0.9208984375,-0.0732421875,0.31982421875,2.1341463414634148,1.7682926829268295,1.9512195121951221
11_40_15_905,1.0,2.0,0.0,-4.0,0.0,0.0,4.0,0.0,0.0,0.0,0.0,0.0,0.0,0.0
11_40_15_905,2.0,-3.0,-1.0,-1.0,-1.0,-1.0,-1.0,-5.0,0.0,0.0,0.0,0.0,0.0,0.0
11_40_15_905,-1.0,1.0,-6.0,-1.0,-2.0,-1.0,-6.0,-2.0,0.0,0.0,0.0,0.0,0.0,0.0
11_40_15_905,-1.0,0.0,-1.0,-1.0,1.0,1.0,-2.0,-1.0,0.0,0.0,0.0,0.0,0.0,0.0
11_40_15_905,-2.0,-3.0,-3.0,-2.0,0.0,1.0,-4.0,1.0,0.0,0.0,0.0,0.0,0.0,0.0
11_40_15_905,-4.0,-3.0,-2.0,-1.0,-2.0,-2.0,1.0,-4.0,0.0,0.0,0.0,0.0,0.0,0.0
11_40_15_982,-3.0,1.0,0.0,-1.0,2.0,-2.0,-3.0,-1.0,0.92138671875,-0.0732421875,0.32470703125,2.0121951219512195,0.5487804878048781,1.9512195121951221
11_40_15_982,2.0,-1.0,-5.0,-4.0,-3.0,0.0,1.0,-1.0,0.9228515625,-0.07763671875,0.31787109375,1.5853658536585367,0.7317073170731708,1.7682926829268295
11_40_15_982,1.0,0.0,0.0,-1.0,-1.0,0.0,-2.0,-2.0,0.91796875,-0.07470703125,0.32275390625,2.5,1.4634146341463417,1.7682926829268295
11_40_15_982,-2.0,0.0,0.0,-3.0,0.0,-4.0,2.0,-3.0,0.9208984375,-0.0732421875,0.31982421875,2.1341463414634148,1.7682926829268295,1.9512195121951221
11_40_15_982,0.0,-1.0,-3.0,-3.0,-4.0,-4.0,-4.0,1.0,0.0,0.0,0.0,0.0,0.0,0.0
11_40_15_982,-5.0,0.0,-3.0,0.0,1.0,-1.0,2.0,-2.0,0.0,0.0,0.0,0.0,0.0,0.0
11_40_15_982,1.0,2.0,0.0,-4.0,0.0,0.0,4.0,0.0,0.0,0.0,0.0,0.0,0.0,0.0
11_40_15_982,2.0,-3.0,-1.0,-1.0,-1.0,-1.0,-1.0,-5.0,0.0,0.0,0.0,0.0,0.0,0.0
11_40_15_982,-1.0,1.0,-6.0,-1.0,-2.0,-1.0,-6.0,-2.0,0.0,0.0,0.0,0.0,0.0,0.0
11_40_15_982,-1.0,0.0,-1.0,-1.0,1.0,1.0,-2.0,-1.0,0.0,0.0,0.0,0.0,0.0,0.0
11_40_16_065,-3.0,1.0,0.0,-1.0,2.0,-2.0,-3.0,-1.0,0.9228515625,-0.07763671875,0.31787109375,1.5853658536585367,0.7317073170731708,1.7682926829268295
11_40_16_065,2.0,-1.0,-5.0,-4.0,-3.0,0.0,1.0,-1.0,0.91796875,-0.07470703125,0.32275390625,2.5,1.4634146341463417,1.7682926829268295
11_40_16_065,1.0,0.0,0.0,-1.0,-1.0,0.0,-2.0,-2.0,0.9208984375,-0.0732421875,0.31982421875,2.1341463414634148,1.7682926829268295,1.9512195121951221
11_40_16_065,-2.0,0.0,0.0,-3.0,0.0,-4.0,2.0,-3.0,0.0,0.0,0.0,0.0,0.0,0.0
11_40_16_065,0.0,-1.0,-3.0,-3.0,-4.0,-4.0,-4.0,1.0,0.0,0.0,0.0,0.0,0.0,0.0
11_40_16_065,-5.0,0.0,-3.0,0.0,1.0,-1.0,2.0,-2.0,0.0,0.0,0.0,0.0,0.0,0.0
11_40_16_065,1.0,2.0,0.0,-4.0,0.0,0.0,4.0,0.0,0.0,0.0,0.0,0.0,0.0,0.0
11_40_16_065,2.0,-3.0,-1.0,-1.0,-1.0,-1.0,-1.0,-5.0,0.0,0.0,0.0,0.0,0.0,0.0
11_40_16_125,-2.0,1.0,1.0,-2.0,-3.0,-2.0,-1.0,0.0,0.9208984375,-0.068359375,0.32763671875,1.2195121951219514,0.6097560975609757,1.6463414634146343
11_40_16_125,-1.0,-1.0,1.0,3.0,-1.0,1.0,-2.0,3.0,0.921875,-0.0654296875,0.32666015625,1.8902439024390245,0.48780487804878053,2.1341463414634148
11_40_16_125,-2.0,0.0,1.0,-1.0,-1.0,-4.0,0.0,0.0,0.92138671875,-0.0732421875,0.32470703125,2.0121951219512195,0.5487804878048781,1.9512195121951221
11_40_16_125,-2.0,-1.0,-3.0,-3.0,0.0,-1.0,-1.0,-3.0,0.9228515625,-0.07763671875,0.31787109375,1.5853658536585367,0.7317073170731708,1.7682926829268295
11_40_16_125,-3.0,1.0,0.0,-1.0,2.0,-2.0,-3.0,-1.0,0.91796875,-0.07470703125,0.32275390625,2.5,1.4634146341463417,1.7682926829268295
11_40_16_125,2.0,-1.0,-5.0,-4.0,-3.0,0.0,1.0,-1.0,0.9208984375,-0.0732421875,0.31982421875,2.1341463414634148,1.7682926829268295,1.9512195121951221
11_40_16_125,1.0,0.0,0.0,-1.0,-1.0,0.0,-2.0,-2.0,0.0,0.0,0.0,0.0,0.0,0.0
11_40_16_125,-2.0,0.0,0.0,-3.0,0.0,-4.0,2.0,-3.0,0.0,0.0,0.0,0.0,0.0,0.0
11_40_16_125,0.0,-1.0,-3.0,-3.0,-4.0,-4.0,-4.0,1.0,0.0,0.0,0.0,0.0,0.0,0.0
11_40_16_125,-5.0,0.0,-3.0,0.0,1.0,-1.0,2.0,-2.0,0.0,0.0,0.0,0.0,0.0,0.0
11_40_16_187,0.0,5.0,1.0,0.0,0.0,-1.0,-2.0,-1.0,0.91943359375,-0.06640625,0.32080078125,0.0,0.9146341463414634,1.3414634146341464
11_40_16_187,-2.0,1.0,1.0,-2.0,-3.0,-2.0,-1.0,0.0,0.9208984375,-0.068359375,0.32763671875,1.2195121951219514,0.6097560975609757,1.6463414634146343
11_40_16_187,-1.0,-1.0,1.0,3.0,-1.0,1.0,-2.0,3.0,0.921875,-0.0654296875,0.32666015625,1.8902439024390245,0.48780487804878053,2.1341463414634148
11_40_16_187,-2.0,0.0,1.0,-1.0,-1.0,-4.0,0.0,0.0,0.92138671875,-0.0732421875,0.32470703125,2.0121951219512195,0.5487804878048781,1.9512195121951221
11_40_16_187,-2.0,-1.0,-3.0,-3.0,0.0,-1.0,-1.0,-3.0,0.9228515625,-0.07763671875,0.31787109375,1.5853658536585367,0.7317073170731708,1.7682926829268295
11_40_16_187,-3.0,1.0,0.0,-1.0,2.0,-2.0,-3.0,-1.0,0.91796875,-0.07470703125,0.32275390625,2.5,1.4634146341463417,1.7682926829268295
11_40_16_187,2.0,-1.0,-5.0,-4.0,-3.0,0.0,1.0,-1.0,0.9208984375,-0.0732421875,0.31982421875,2.1341463414634148,1.7682926829268295,1.9512195121951221
11_40_16_187,1.0,0.0,0.0,-1.0,-1.0,0.0,-2.0,-2.0,0.0,0.0,0.0,0.0,0.0,0.0
11_40_16_187,-2.0,0.0,0.0,-3.0,0.0,-4.0,2.0,-3.0,0.0,0.0,0.0,0.0,0.0,0.0
11_40_16_233,1.0,-3.0,3.0,-3.0,-1.0,-1.0,-3.0,0.0,0.91943359375,-0.06640625,0.32080078125,0.0,0.9146341463414634,1.3414634146341464
11_40_16_233,4.0,-4.0,6.0,0.0,-1.0,0.0,0.0,-3.0,0.9208984375,-0.068359375,0.32763671875,1.2195121951219514,0.6097560975609757,1.6463414634146343
11_40_16_233,-1.0,-6.0,-3.0,1.0,-3.0,0.0,-3.0,-2.0,0.921875,-0.0654296875,0.32666015625,1.8902439024390245,0.48780487804878053,2.1341463414634148
11_40_16_233,0.0,4.0,-1.0,0.0,0.0,-2.0,-2.0,1.0,0.92138671875,-0.0732421875,0.32470703125,2.0121951219512195,0.5487804878048781,1.9512195121951221
11_40_16_233,-1.0,-4.0,-1.0,-1.0,2.0,0.0,-4.0,-3.0,0.9228515625,-0.07763671875,0.31787109375,1.5853658536585367,0.7317073170731708,1.7682926829268295
11_40_16_233,1.0,-3.0,-1.0,-3.0,-3.0,2.0,0.0,-3.0,0.91796875,-0.07470703125,0.32275390625,2.5,1.4634146341463417,1.7682926829268295
11_40_16_286,-2.0,5.0,-4.0,1.0,-1.0,-1.0,-3.0,2.0,0.91796875,-0.0791015625,0.3310546875,-2.073170731707317,-1.524390243902439,0.426829268292683
11_40_16_286,-2.0,1.0,-1.0,-5.0,-3.0,-3.0,-2.0,-2.0,0.919921875,-0.07177734375,0.32666015625,-2.439024390243903,-1.2804878048780488,0.426829268292683
11_40_16_286,4.0,-1.0,-2.0,2.0,2.0,-1.0,-1.0,-3.0,0.91796875,-0.07568359375,0.3330078125,-2.378048780487805,-1.2195121951219514,0.30487804878048785
11_40_16_286,-3.0,0.0,1.0,-3.0,-2.0,-1.0,1.0,-2.0,0.916015625,-0.072265625,0.33056640625,-1.5853658536585367,-0.12195121951219513,0.6707317073170732
11_40_16_286,2.0,-1.0,0.0,0.0,-1.0,0.0,-1.0,-2.0,0.9169921875,-0.07470703125,0.32763671875,-1.9512195121951221,0.1829268292682927,0.7317073170731708
11_40_16_286,-1.0,0.0,-3.0,-1.0,0.0,-3.0,-4.0,-1.0,0.91943359375,-0.06640625,0.32080078125,0.0,0.9146341463414634,1.3414634146341464
11_40_16_286,1.0,-3.0,3.0,-3.0,-1.0,-1.0,-3.0,0.0,0.9208984375,-0.068359375,0.32763671875,1.2195121951219514,0.6097560975609757,1.6463414634146343
11_40_16_286,4.0,-4.0,6.0,0.0,-1.0,0.0,0.0,-3.0,0.921875,-0.0654296875,0.32666015625,1.8902439024390245,0.48780487804878053,2.1341463414634148
11_40_16_286,-1.0,-6.0,-3.0,1.0,-3.0,0.0,-3.0,-2.0,0.92138671875,-0.0732421875,0.32470703125,2.0121951219512195,0.5487804878048781,1.9512195121951221
11_40_16_286,0.0,4.0,-1.0,0.0,0.0,-2.0,-2.0,1.0,0.9228515625,-0.07763671875,0.31787109375,1.5853658536585367,0.7317073170731708,1.7682926829268295
11_40_16_340,-2.0,-7.0,-1.0,-3.0,2.0,1.0,-2.0,-1.0,0.91796875,-0.0791015625,0.3310546875,-2.073170731707317,-1.524390243902439,0.426829268292683
11_40_16_340,-1.0,0.0,2.0,0.0,-2.0,-2.0,0.0,0.0,0.919921875,-0.07177734375,0.32666015625,-2.439024390243903,-1.2804878048780488,0.426829268292683
11_40_16_340,5.0,0.0,-2.0,-2.0,-2.0,-3.0,3.0,1.0,0.91796875,-0.07568359375,0.3330078125,-2.378048780487805,-1.2195121951219514,0.30487804878048785
11_40_16_340,0.0,-1.0,-4.0,1.0,0.0,0.0,-2.0,0.0,0.916015625,-0.072265625,0.33056640625,-1.5853658536585367,-0.12195121951219513,0.6707317073170732
11_40_16_340,2.0,-1.0,-1.0,-3.0,0.0,0.0,0.0,-2.0,0.9169921875,-0.07470703125,0.32763671875,-1.9512195121951221,0.1829268292682927,0.7317073170731708
11_40_16_340,-2.0,5.0,-4.0,1.0,-1.0,-1.0,-3.0,2.0,0.91943359375,-0.06640625,0.32080078125,0.0,0.9146341463414634,1.3414634146341464
11_40_16_340,-2.0,1.0,-1.0,-5.0,-3.0,-3.0,-2.0,-2.0,0.9208984375,-0.068359375,0.32763671875,1.2195121951219514,0.6097560975609757,1.6463414634146343
11_40_16_340,4.0,-1.0,-2.0,2.0,2.0,-1.0,-1.0,-3.0,0.921875,-0.0654296875,0.32666015625,1.8902439024390245,0.48780487804878053,2.1341463414634148
11_40_16_340,-3.0,0.0,1.0,-3.0,-2.0,-1.0,1.0,-2.0,0.92138671875,-0.0732421875,0.32470703125,2.0121951219512195,0.5487804878048781,1.9512195121951221
11_40_16_361,2.0,-1.0,-3.0,0.0,-2.0,3.0,-3.0,2.0,0.91796875,-0.08251953125,0.3291015625,-2.073170731707317,-1.4634146341463417,0.30487804878048785
11_40_16_361,4.0,0.0,-4.0,0.0,-3.0,-3.0,-3.0,0.0,0.91796875,-0.0791015625,0.3310546875,-2.073170731707317,-1.524390243902439,0.426829268292683
11_40_16_361,2.0,0.0,-3.0,0.0,1.0,-3.0,-2.0,1.0,0.919921875,-0.07177734375,0.32666015625,-2.439024390243903,-1.2804878048780488,0.426829268292683
11_40_16_361,-3.0,0.0,-3.0,5.0,1.0,0.0,1.0,1.0,0.91796875,-0.07568359375,0.3330078125,-2.378048780487805,-1.2195121951219514,0.30487804878048785
11_40_16_361,-2.0,-7.0,-1.0,-3.0,2.0,1.0,-2.0,-1.0,0.916015625,-0.072265625,0.33056640625,-1.5853658536585367,-0.12195121951219513,0.6707317073170732
11_40_16_361,-1.0,0.0,2.0,0.0,-2.0,-2.0,0.0,0.0,0.9169921875,-0.07470703125,0.32763671875,-1.9512195121951221,0.1829268292682927,0.7317073170731708
11_40_16_361,5.0,0.0,-2.0,-2.0,-2.0,-3.0,3.0,1.0,0.91943359375,-0.06640625,0.32080078125,0.0,0.9146341463414634,1.3414634146341464
11_40_16_361,0.0,-1.0,-4.0,1.0,0.0,0.0,-2.0,0.0,0.9208984375,-0.068359375,0.32763671875,1.2195121951219514,0.6097560975609757,1.6463414634146343
11_40_16_361,2.0,-1.0,-1.0,-3.0,0.0,0.0,0.0,-2.0,0.921875,-0.0654296875,0.32666015625,1.8902439024390245,0.48780487804878053,2.1341463414634148
11_40_16_407,-1.0,1.0,1.0,4.0,0.0,6.0,0.0,-1.0,0.91796875,-0.08251953125,0.3291015625,-2.073170731707317,-1.4634146341463417,0.30487804878048785
11_40_16_407,-1.0,-10.0,2.0,2.0,2.0,-3.0,1.0,2.0,0.91796875,-0.0791015625,0.3310546875,-2.073170731707317,-1.524390243902439,0.426829268292683
11_40_16_407,-3.0,-2.0,4.0,2.0,-1.0,-1.0,0.0,4.0,0.919921875,-0.07177734375,0.32666015625,-2.439024390243903,-1.2804878048780488,0.426829268292683
11_40_16_407,-1.0,-8.0,-5.0,-1.0,2.0,0.0,-1.0,2.0,0.91796875,-0.07568359375,0.3330078125,-2.378048780487805,-1.2195121951219514,0.30487804878048785
11_40_16_407,-1.0,4.0,0.0,-2.0,-1.0,0.0,-1.0,0.0,0.916015625,-0.072265625,0.33056640625,-1.5853658536585367,-0.12195121951219513,0.6707317073170732
11_40_16_407,2.0,-1.0,-3.0,0.0,-2.0,3.0,-3.0,2.0,0.9169921875,-0.07470703125,0.32763671875,-1.9512195121951221,0.1829268292682927,0.7317073170731708
11_40_16_407,4.0,0.0,-4.0,0.0,-3.0,-3.0,-3.0,0.0,0.91943359375,-0.06640625,0.32080078125,0.0,0.9146341463414634,1.3414634146341464
11_40_16_407,2.0,0.0,-3.0,0.0,1.0,-3.0,-2.0,1.0,0.9208984375,-0.068359375,0.32763671875,1.2195121951219514,0.6097560975609757,1.6463414634146343
11_40_16_472,-2.0,4.0,-1.0,-2.0,-3.0,1.0,0.0,1.0,0.92333984375,-0.0830078125,0.3369140625,-2.073170731707317,-0.7317073170731708,0.5487804878048781
11_40_16_472,3.0,0.0,2.0,1.0,-1.0,2.0,-2.0,-3.0,0.91552734375,-0.0751953125,0.326171875,-2.1951219512195124,-0.7926829268292683,0.6097560975609757
11_40_16_472,1.0,-2.0,0.0,-4.0,-5.0,0.0,1.0,2.0,0.9228515625,-0.0810546875,0.34228515625,-0.9756097560975611,-1.1585365853658538,0.06097560975609757
11_40_16_472,-7.0,-3.0,-1.0,-2.0,0.0,0.0,-2.0,-2.0,0.91943359375,-0.0732421875,0.3271484375,-1.4634146341463417,-0.7317073170731708,0.426829268292683
11_40_16_472,-3.0,3.0,-7.0,0.0,-1.0,0.0,-1.0,-2.0,0.91552734375,-0.07373046875,0.330078125,-1.2804878048780488,-1.4634146341463417,0.5487804878048781
11_40_16_472,4.0,-8.0,6.0,-1.0,0.0,0.0,0.0,1.0,0.91796875,-0.08251953125,0.3291015625,-2.073170731707317,-1.4634146341463417,0.30487804878048785
11_40_16_472,0.0,2.0,-4.0,-1.0,-6.0,-2.0,-5.0,1.0,0.91796875,-0.0791015625,0.3310546875,-2.073170731707317,-1.524390243902439,0.426829268292683
11_40_16_472,1.0,2.0,1.0,1.0,5.0,-1.0,-2.0,0.0,0.919921875,-0.07177734375,0.32666015625,-2.439024390243903,-1.2804878048780488,0.426829268292683
11_40_16_472,-3.0,0.0,-5.0,0.0,0.0,-1.0,-1.0,1.0,0.91796875,-0.07568359375,0.3330078125,-2.378048780487805,-1.2195121951219514,0.30487804878048785
11_40_16_472,4.0,-4.0,-3.0,-5.0,0.0,-3.0,-2.0,-3.0,0.916015625,-0.072265625,0.33056640625,-1.5853658536585367,-0.12195121951219513,0.6707317073170732
11_40_16_560,-4.0,1.0,-1.0,-2.0,-3.0,-1.0,-3.0,2.0,0.91552734375,-0.0751953125,0.326171875,-2.1951219512195124,-0.7926829268292683,0.6097560975609757
11_40_16_560,-2.0,4.0,-1.0,-2.0,-3.0,1.0,0.0,1.0,0.9228515625,-0.0810546875,0.34228515625,-0.9756097560975611,-1.1585365853658538,0.06097560975609757
11_40_16_560,3.0,0.0,2.0,1.0,-1.0,2.0,-2.0,-3.0,0.91943359375,-0.0732421875,0.3271484375,-1.4634146341463417,-0.7317073170731708,0.426829268292683
11_40_16_560,1.0,-2.0,0.0,-4.0,-5.0,0.0,1.0,2.0,0.91552734375,-0.07373046875,0.330078125,-1.2804878048780488,-1.4634146341463417,0.5487804878048781
11_40_16_560,-7.0,-3.0,-1.0,-2.0,0.0,0.0,-2.0,-2.0,0.91796875,-0.08251953125,0.3291015625,-2.073170731707317,-1.4634146341463417,0.30487804878048785
11_40_16_560,-3.0,3.0,-7.0,0.0,-1.0,0.0,-1.0,-2.0,0.91796875,-0.0791015625,0.3310546875,-2.073170731707317,-1.524390243902439,0.426829268292683
11_40_16_560,4.0,-8.0,6.0,-1.0,0.0,0.0,0.0,1.0,0.919921875,-0.07177734375,0.32666015625,-2.439024390243903,-1.2804878048780488,0.426829268292683
11_40_16_560,0.0,2.0,-4.0,-1.0,-6.0,-2.0,-5.0,1.0,0.91796875,-0.07568359375,0.3330078125,-2.378048780487805,-1.2195121951219514,0.30487804878048785
11_40_16_560,1.0,2.0,1.0,1.0,5.0,-1.0,-2.0,0.0,0.916015625,-0.072265625,0.33056640625,-1.5853658536585367,-0.12195121951219513,0.6707317073170732
11_40_16_605,-3.0,-2.0,4.0,-4.0,-3.0,0.0,-1.0,-5.0,0.9150390625,-0.08544921875,0.32666015625,-1.9512195121951221,-0.6097560975609757,0.6097560975609757
11_40_16_605,3.0,-1.0,-4.0,0.0,-2.0,1.0,-3.0,-1.0,0.921875,-0.08251953125,0.32958984375,-1.3414634146341464,-0.48780487804878053,0.6097560975609757
11_40_16_605,-1.0,1.0,2.0,-3.0,-2.0,3.0,-1.0,-1.0,0.91650390625,-0.0830078125,0.3310546875,-1.829268292682927,-0.6097560975609757,0.24390243902439027
11_40_16_605,5.0,-5.0,-1.0,-1.0,-2.0,1.0,-1.0,-2.0,0.91845703125,-0.08935546875,0.32666015625,-1.7682926829268295,-0.6707317073170732,0.30487804878048785
11_40_16_605,0.0,-8.0,-3.0,1.0,-1.0,-1.0,0.0,-2.0,0.92333984375,-0.0830078125,0.3369140625,-2.073170731707317,-0.7317073170731708,0.5487804878048781
11_40_16_605,-4.0,-1.0,-8.0,1.0,-2.0,-3.0,-4.0,2.0,0.91552734375,-0.0751953125,0.326171875,-2.1951219512195124,-0.7926829268292683,0.6097560975609757
11_40_16_605,-1.0,1.0,0.0,-1.0,0.0,-1.0,4.0,0.0,0.9228515625,-0.0810546875,0.34228515625,-0.9756097560975611,-1.1585365853658538,0.06097560975609757
11_40_16_605,2.0,-2.0,1.0,0.0,0.0,-1.0,0.0,-6.0,0.91943359375,-0.0732421875,0.3271484375,-1.4634146341463417,-0.7317073170731708,0.426829268292683
11_40_16_605,-2.0,-2.0,-5.0,-4.0,0.0,-3.0,0.0,0.0,0.91552734375,-0.07373046875,0.330078125,-1.2804878048780488,-1.4634146341463417,0.5487804878048781
11_40_16_605,0.0,-1.0,-2.0,-1.0,-3.0,0.0,-2.0,1.0,0.91796875,-0.08251953125,0.3291015625,-2.073170731707317,-1.4634146341463417,0.30487804878048785
11_40_16_657,1.0,-5.0,-1.0,-1.0,1.0,2.0,-1.0,-3.0,0.921875,-0.08251953125,0.32958984375,-1.3414634146341464,-0.48780487804878053,0.6097560975609757
11_40_16_657,0.0,-3.0,3.0,-3.0,-1.0,-1.0,-1.0,0.0,0.91650390625,-0.0830078125,0.3310546875,-1.829268292682927,-0.6097560975609757,0.24390243902439027
11_40_16_657,-3.0,-2.0,4.0,-4.0,-3.0,0.0,-1.0,-5.0,0.91845703125,-0.08935546875,0.32666015625,-1.7682926829268295,-0.6707317073170732,0.30487804878048785
11_40_16_657,3.0,-1.0,-4.0,0.0,-2.0,1.0,-3.0,-1.0,0.92333984375,-0.0830078125,0.3369140625,-2.073170731707317,-0.7317073170731708,0.5487804878048781
11_40_16_657,-1.0,1.0,2.0,-3.0,-2.0,3.0,-1.0,-1.0,0.91552734375,-0.0751953125,0.326171875,-2.1951219512195124,-0.7926829268292683,0.6097560975609757
11_40_16_657,5.0,-5.0,-1.0,-1.0,-2.0,1.0,-1.0,-2.0,0.9228515625,-0.0810546875,0.34228515625,-0.9756097560975611,-1.1585365853658538,0.06097560975609757
11_40_16_657,0.0,-8.0,-3.0,1.0,-1.0,-1.0,0.0,-2.0,0.91943359375,-0.0732421875,0.3271484375,-1.4634146341463417,-0.7317073170731708,0.426829268292683
11_40_16_657,-4.0,-1.0,-8.0,1.0,-2.0,-3.0,-4.0,2.0,0.91552734375,-0.07373046875,0.330078125,-1.2804878048780488,-1.4634146341463417,0.5487804878048781
11_40_16_709,1.0,-4.0,-1.0,-4.0,-4.0,-3.0,-3.0,-2.0,0.9189453125,-0.0791015625,0.32568359375,-1.402439024390244,-1.1585365853658538,0.6707317073170732
11_40_16_709,-5.0,-3.0,-2.0,1.0,-1.0,-4.0,-2.0,-1.0,0.92041015625,-0.08447265625,0.32568359375,-0.7317073170731708,-0.9756097560975611,0.3658536585365854
11_40_16_709,0.0,-3.0,-4.0,2.0,-1.0,0.0,-2.0,-2.0,0.9130859375,-0.0869140625,0.33349609375,-1.2804878048780488,-0.853658536585366,0.426829268292683
11_40_16_709,0.0,1.0,0.0,1.0,-1.0,0.0,-3.0,-2.0,0.916015625,-0.08154296875,0.328125,-1.829268292682927,-0.5487804878048781,0.48780487804878053
11_40_16_709,-2.0,3.0,3.0,-2.0,1.0,0.0,0.0,-1.0,0.9150390625,-0.08544921875,0.32666015625,-1.9512195121951221,-0.6097560975609757,0.6097560975609757
11_40_16_709,3.0,-1.0,-2.0,0.0,-2.0,-2.0,-2.0,-3.0,0.921875,-0.08251953125,0.32958984375,-1.3414634146341464,-0.48780487804878053,0.6097560975609757
11_40_16_709,2.0,-2.0,-1.0,-1.0,1.0,0.0,-1.0,-1.0,0.91650390625,-0.0830078125,0.3310546875,-1.829268292682927,-0.6097560975609757,0.24390243902439027
11_40_16_709,-1.0,-2.0,-4.0,-2.0,0.0,1.0,-2.0,-5.0,0.91845703125,-0.08935546875,0.32666015625,-1.7682926829268295,-0.6707317073170732,0.30487804878048785
11_40_16_709,-4.0,-4.0,-2.0,0.0,-1.0,-3.0,1.0,0.0,0.92333984375,-0.0830078125,0.3369140625,-2.073170731707317,-0.7317073170731708,0.5487804878048781
11_40_16_709,1.0,-1.0,0.0,0.0,-1.0,-2.0,-1.0,0.0,0.91552734375,-0.0751953125,0.326171875,-2.1951219512195124,-0.7926829268292683,0.6097560975609757
11_40_16_757,-1.0,0.0,-1.0,-2.0,-5.0,-1.0,-1.0,-1.0,0.9189453125,-0.0791015625,0.32568359375,-1.402439024390244,-1.1585365853658538,0.6707317073170732
11_40_16_757,-1.0,-5.0,-3.0,2.0,3.0,-3.0,0.0,0.0,0.92041015625,-0.08447265625,0.32568359375,-0.7317073170731708,-0.9756097560975611,0.3658536585365854
11_40_16_757,3.0,-5.0,0.0,1.0,-3.0,3.0,0.0,-1.0,0.9130859375,-0.0869140625,0.33349609375,-1.2804878048780488,-0.853658536585366,0.426829268292683
11_40_16_757,1.0,-4.0,-1.0,-4.0,-4.0,-3.0,-3.0,-2.0,0.916015625,-0.08154296875,0.328125,-1.829268292682927,-0.5487804878048781,0.48780487804878053
11_40_16_757,-5.0,-3.0,-2.0,1.0,-1.0,-4.0,-2.0,-1.0,0.9150390625,-0.08544921875,0.32666015625,-1.9512195121951221,-0.6097560975609757,0.6097560975609757
11_40_16_757,0.0,-3.0,-4.0,2.0,-1.0,0.0,-2.0,-2.0,0.921875,-0.08251953125,0.32958984375,-1.3414634146341464,-0.48780487804878053,0.6097560975609757
11_40_16_757,0.0,1.0,0.0,1.0,-1.0,0.0,-3.0,-2.0,0.91650390625,-0.0830078125,0.3310546875,-1.829268292682927,-0.6097560975609757,0.24390243902439027
11_40_16_757,-2.0,3.0,3.0,-2.0,1.0,0.0,0.0,-1.0,0.91845703125,-0.08935546875,0.32666015625,-1.7682926829268295,-0.6707317073170732,0.30487804878048785
11_40_16_757,3.0,-1.0,-2.0,0.0,-2.0,-2.0,-2.0,-3.0,0.92333984375,-0.0830078125,0.3369140625,-2.073170731707317,-0.7317073170731708,0.5487804878048781
11_40_16_811,-3.0,2.0,-8.0,-4.0,-1.0,0.0,-2.0,-1.0,0.92041015625,-0.08447265625,0.32568359375,-0.7317073170731708,-0.9756097560975611,0.3658536585365854
11_40_16_811,0.0,-1.0,-2.0,2.0,-1.0,-2.0,0.0,1.0,0.9130859375,-0.0869140625,0.33349609375,-1.2804878048780488,-0.853658536585366,0.426829268292683
11_40_16_811,-5.0,2.0,1.0,-2.0,0.0,0.0,-2.0,-2.0,0.916015625,-0.08154296875,0.328125,-1.829268292682927,-0.5487804878048781,0.48780487804878053
11_40_16_811,0.0,2.0,-1.0,-4.0,-1.0,1.0,0.0,-3.0,0.9150390625,-0.08544921875,0.32666015625,-1.9512195121951221,-0.6097560975609757,0.6097560975609757
11_40_16_811,-1.0,0.0,-1.0,-2.0,-5.0,-1.0,-1.0,-1.0,0.921875,-0.08251953125,0.32958984375,-1.3414634146341464,-0.48780487804878053,0.6097560975609757
11_40_16_811,-1.0,-5.0,-3.0,2.0,3.0,-3.0,0.0,0.0,0.91650390625,-0.0830078125,0.3310546875,-1.829268292682927,-0.6097560975609757,0.24390243902439027
11_40_16_811,3.0,-5.0,0.0,1.0,-3.0,3.0,0.0,-1.0,0.91845703125,-0.08935546875,0.32666015625,-1.7682926829268295,-0.6707317073170732,0.30487804878048785
11_40_16_847,-4.0,2.0,0.0,-1.0,-2.0,-2.0,0.0,1.0,0.92236328125,-0.0849609375,0.3349609375,-0.48780487804878053,-0.853658536585366,1.1585365853658538
11_40_16_847,-2.0,4.0,-1.0,-5.0,1.0,1.0,-4.0,0.0,0.91748046875,-0.0859375,0.32763671875,-0.853658536585366,-0.48780487804878053,1.3414634146341464
11_40_16_847,2.0,-1.0,-1.0,-1.0,0.0,1.0,3.0,-2.0,0.9248046875,-0.083984375,0.3232421875,-1.2195121951219514,-0.5487804878048781,1.1585365853658538
11_40_16_847,1.0,-2.0,2.0,1.0,-2.0,-2.0,-3.0,-3.0,0.927734375,-0.08740234375,0.32568359375,-1.3414634146341464,-0.7926829268292683,1.0365853658536586
11_40_16_847,0.0,1.0,-7.0,0.0,2.0,1.0,2.0,3.0,0.92431640625,-0.08447265625,0.330078125,-1.707317073170732,-1.0365853658536586,0.853658536585366
11_40_16_847,-1.0,-1.0,3.0,3.0,-2.0,-4.0,-1.0,-2.0,0.9189453125,-0.0791015625,0.32568359375,-1.402439024390244,-1.1585365853658538,0.6707317073170732
11_40_16_847,0.0,-2.0,-2.0,1.0,-1.0,-2.0,-1.0,-3.0,0.92041015625,-0.08447265625,0.32568359375,-0.7317073170731708,-0.9756097560975611,0.3658536585365854
11_40_16_847,0.0,-4.0,4.0,-2.0,0.0,-1.0,0.0,-1.0,0.9130859375,-0.0869140625,0.33349609375,-1.2804878048780488,-0.853658536585366,0.426829268292683
11_40_16_847,-4.0,3.0,-7.0,1.0,1.0,-2.0,1.0,-2.0,0.916015625,-0.08154296875,0.328125,-1.829268292682927,-0.5487804878048781,0.48780487804878053
11_40_16_903,3.0,2.0,2.0,-1.0,-1.0,-2.0,-3.0,-1.0,0.92431640625,-0.083984375,0.3369140625,-1.0975609756097562,-1.0365853658536586,0.7926829268292683
11_40_16_903,0.0,-4.0,-2.0,-1.0,-1.0,3.0,-4.0,0.0,0.92236328125,-0.0849609375,0.3349609375,-0.48780487804878053,-0.853658536585366,1.1585365853658538
11_40_16_903,-1.0,3.0,4.0,-2.0,-3.0,-1.0,1.0,-5.0,0.91748046875,-0.0859375,0.32763671875,-0.853658536585366,-0.48780487804878053,1.3414634146341464
11_40_16_903,-4.0,2.0,0.0,-1.0,-2.0,-2.0,0.0,1.0,0.9248046875,-0.083984375,0.3232421875,-1.2195121951219514,-0.5487804878048781,1.1585365853658538
11_40_16_903,-2.0,4.0,-1.0,-5.0,1.0,1.0,-4.0,0.0,0.927734375,-0.08740234375,0.32568359375,-1.3414634146341464,-0.7926829268292683,1.0365853658536586
11_40_16_903,2.0,-1.0,-1.0,-1.0,0.0,1.0,3.0,-2.0,0.92431640625,-0.08447265625,0.330078125,-1.707317073170732,-1.0365853658536586,0.853658536585366
11_40_16_903,1.0,-2.0,2.0,1.0,-2.0,-2.0,-3.0,-3.0,0.9189453125,-0.0791015625,0.32568359375,-1.402439024390244,-1.1585365853658538,0.6707317073170732
11_40_16_903,0.0,1.0,-7.0,0.0,2.0,1.0,2.0,3.0,0.92041015625,-0.08447265625,0.32568359375,-0.7317073170731708,-0.9756097560975611,0.3658536585365854
11_40_16_966,5.0,0.0,-4.0,-1.0,0.0,-3.0,-1.0,-1.0,0.92236328125,-0.08837890625,0.3330078125,-2.1341463414634148,-0.853658536585366,0.426829268292683
11_40_16_966,-1.0,-2.0,-2.0,0.0,1.0,-4.0,-2.0,0.0,0.92431640625,-0.083984375,0.3369140625,-1.0975609756097562,-1.0365853658536586,0.7926829268292683
11_40_16_966,-5.0,1.0,-4.0,-1.0,0.0,-2.0,-1.0,-2.0,0.92236328125,-0.0849609375,0.3349609375,-0.48780487804878053,-0.853658536585366,1.1585365853658538
11_40_16_966,3.0,2.0,2.0,-1.0,-1.0,-2.0,-3.0,-1.0,0.91748046875,-0.0859375,0.32763671875,-0.853658536585366,-0.48780487804878053,1.3414634146341464
11_40_16_966,0.0,-4.0,-2.0,-1.0,-1.0,3.0,-4.0,0.0,0.9248046875,-0.083984375,0.3232421875,-1.2195121951219514,-0.5487804878048781,1.1585365853658538
11_40_16_966,-1.0,3.0,4.0,-2.0,-3.0,-1.0,1.0,-5.0,0.927734375,-0.08740234375,0.32568359375,-1.3414634146341464,-0.7926829268292683,1.0365853658536586
11_40_16_966,-4.0,2.0,0.0,-1.0,-2.0,-2.0,0.0,1.0,0.92431640625,-0.08447265625,0.330078125,-1.707317073170732,-1.0365853658536586,0.853658536585366
11_40_16_966,-2.0,4.0,-1.0,-5.0,1.0,1.0,-4.0,0.0,0.9189453125,-0.0791015625,0.32568359375,-1.402439024390244,-1.1585365853658538,0.6707317073170732
11_40_16_966,2.0,-1.0,-1.0,-1.0,0.0,1.0,3.0,-2.0,0.92041015625,-0.08447265625,0.32568359375,-0.7317073170731708,-0.9756097560975611,0.3658536585365854
11_40_17_024,1.0,2.0,-2.0,-4.0,-2.0,2.0,0.0,2.0,0.93701171875,-0.0888671875,0.35400390625,-1.0365853658536586,-0.5487804878048781,-0.426829268292683
11_40_17_024,-1.0,-4.0,-4.0,-1.0,-3.0,-1.0,0.0,-2.0,0.9384765625,-0.08349609375,0.34375,-1.524390243902439,-0.6707317073170732,-0.12195121951219513
11_40_17_024,-2.0,3.0,-4.0,1.0,-3.0,0.0,0.0,-3.0,0.92919921875,-0.087890625,0.3388671875,-1.6463414634146343,-0.9146341463414634,0.3658536585365854
11_40_17_024,-1.0,6.0,-3.0,0.0,-1.0,1.0,-2.0,-2.0,0.92236328125,-0.08837890625,0.3330078125,-2.1341463414634148,-0.853658536585366,0.426829268292683
11_40_17_024,-4.0,-2.0,-1.0,-1.0,-2.0,-3.0,-1.0,2.0,0.92431640625,-0.083984375,0.3369140625,-1.0975609756097562,-1.0365853658536586,0.7926829268292683
11_40_17_024,-5.0,8.0,-3.0,-3.0,-2.0,-5.0,0.0,-4.0,0.92236328125,-0.0849609375,0.3349609375,-0.48780487804878053,-0.853658536585366,1.1585365853658538
11_40_17_024,-3.0,0.0,2.0,-1.0,-1.0,0.0,-2.0,0.0,0.91748046875,-0.0859375,0.32763671875,-0.853658536585366,-0.48780487804878053,1.3414634146341464
11_40_17_024,0.0,-1.0,-1.0,-2.0,-5.0,-3.0,-1.0,-1.0,0.9248046875,-0.083984375,0.3232421875,-1.2195121951219514,-0.5487804878048781,1.1585365853658538
11_40_17_024,2.0,-5.0,1.0,2.0,2.0,-1.0,1.0,3.0,0.927734375,-0.08740234375,0.32568359375,-1.3414634146341464,-0.7926829268292683,1.0365853658536586
11_40_17_067,-3.0,-2.0,-2.0,1.0,-2.0,-1.0,0.0,-1.0,0.94384765625,-0.08056640625,0.3720703125,-2.987804878048781,2.25609756097561,-1.1585365853658538
11_40_17_067,-3.0,1.0,-2.0,-2.0,-2.0,-1.0,-1.0,2.0,0.93701171875,-0.0888671875,0.35400390625,-1.0365853658536586,-0.5487804878048781,-0.426829268292683
11_40_17_067,1.0,-5.0,1.0,2.0,0.0,-3.0,2.0,0.0,0.9384765625,-0.08349609375,0.34375,-1.524390243902439,-0.6707317073170732,-0.12195121951219513
11_40_17_067,1.0,2.0,-2.0,-4.0,-2.0,2.0,0.0,2.0,0.92919921875,-0.087890625,0.3388671875,-1.6463414634146343,-0.9146341463414634,0.3658536585365854
11_40_17_067,-1.0,-4.0,-4.0,-1.0,-3.0,-1.0,0.0,-2.0,0.92236328125,-0.08837890625,0.3330078125,-2.1341463414634148,-0.853658536585366,0.426829268292683
11_40_17_067,-2.0,3.0,-4.0,1.0,-3.0,0.0,0.0,-3.0,0.92431640625,-0.083984375,0.3369140625,-1.0975609756097562,-1.0365853658536586,0.7926829268292683
11_40_17_067,-1.0,6.0,-3.0,0.0,-1.0,1.0,-2.0,-2.0,0.92236328125,-0.0849609375,0.3349609375,-0.48780487804878053,-0.853658536585366,1.1585365853658538
11_40_17_067,-4.0,-2.0,-1.0,-1.0,-2.0,-3.0,-1.0,2.0,0.91748046875,-0.0859375,0.32763671875,-0.853658536585366,-0.48780487804878053,1.3414634146341464
11_40_17_067,-5.0,8.0,-3.0,-3.0,-2.0,-5.0,0.0,-4.0,0.9248046875,-0.083984375,0.3232421875,-1.2195121951219514,-0.5487804878048781,1.1585365853658538
11_40_17_067,-3.0,0.0,2.0,-1.0,-1.0,0.0,-2.0,0.0,0.927734375,-0.08740234375,0.32568359375,-1.3414634146341464,-0.7926829268292683,1.0365853658536586
11_40_17_180,1.0,0.0,-1.0,-1.0,2.0,-1.0,-1.0,-1.0,0.94384765625,-0.08056640625,0.3720703125,-2.987804878048781,2.25609756097561,-1.1585365853658538
11_40_17_180,-3.0,-2.0,-2.0,1.0,-2.0,-1.0,0.0,-1.0,0.93701171875,-0.0888671875,0.35400390625,-1.0365853658536586,-0.5487804878048781,-0.426829268292683
11_40_17_180,-3.0,1.0,-2.0,-2.0,-2.0,-1.0,-1.0,2.0,0.9384765625,-0.08349609375,0.34375,-1.524390243902439,-0.6707317073170732,-0.12195121951219513
11_40_17_180,1.0,-5.0,1.0,2.0,0.0,-3.0,2.0,0.0,0.92919921875,-0.087890625,0.3388671875,-1.6463414634146343,-0.9146341463414634,0.3658536585365854
11_40_17_180,1.0,2.0,-2.0,-4.0,-2.0,2.0,0.0,2.0,0.92236328125,-0.08837890625,0.3330078125,-2.1341463414634148,-0.853658536585366,0.426829268292683
11_40_17_180,-1.0,-4.0,-4.0,-1.0,-3.0,-1.0,0.0,-2.0,0.92431640625,-0.083984375,0.3369140625,-1.0975609756097562,-1.0365853658536586,0.7926829268292683
11_40_17_180,-2.0,3.0,-4.0,1.0,-3.0,0.0,0.0,-3.0,0.92236328125,-0.0849609375,0.3349609375,-0.48780487804878053,-0.853658536585366,1.1585365853658538
11_40_17_180,-1.0,6.0,-3.0,0.0,-1.0,1.0,-2.0,-2.0,0.91748046875,-0.0859375,0.32763671875,-0.853658536585366,-0.48780487804878053,1.3414634146341464
11_40_17_180,-4.0,-2.0,-1.0,-1.0,-2.0,-3.0,-1.0,2.0,0.9248046875,-0.083984375,0.3232421875,-1.2195121951219514,-0.5487804878048781,1.1585365853658538
11_40_17_230,-4.0,-2.0,-4.0,-3.0,-3.0,-1.0,-4.0,-3.0,0.9208984375,-0.052734375,0.345703125,-1.7682926829268295,10.060975609756099,-3.4756097560975614
11_40_17_230,1.0,-1.0,0.0,-3.0,-1.0,1.0,-1.0,2.0,0.9306640625,-0.0615234375,0.35302734375,-2.987804878048781,7.560975609756098,-2.682926829268293
11_40_17_230,-5.0,-3.0,1.0,-2.0,0.0,-1.0,0.0,-2.0,0.93994140625,-0.0771484375,0.36572265625,-3.2926829268292686,4.573170731707317,-1.7682926829268295
11_40_17_230,1.0,0.0,-1.0,-1.0,2.0,-1.0,-1.0,-1.0,0.94384765625,-0.08056640625,0.3720703125,-2.987804878048781,2.25609756097561,-1.1585365853658538
11_40_17_230,-3.0,-2.0,-2.0,1.0,-2.0,-1.0,0.0,-1.0,0.93701171875,-0.0888671875,0.35400390625,-1.0365853658536586,-0.5487804878048781,-0.426829268292683
11_40_17_230,-3.0,1.0,-2.0,-2.0,-2.0,-1.0,-1.0,2.0,0.9384765625,-0.08349609375,0.34375,-1.524390243902439,-0.6707317073170732,-0.12195121951219513
11_40_17_230,1.0,-5.0,1.0,2.0,0.0,-3.0,2.0,0.0,0.92919921875,-0.087890625,0.3388671875,-1.6463414634146343,-0.9146341463414634,0.3658536585365854
11_40_17_230,1.0,2.0,-2.0,-4.0,-2.0,2.0,0.0,2.0,0.92236328125,-0.08837890625,0.3330078125,-2.1341463414634148,-0.853658536585366,0.426829268292683
11_40_17_271,1.0,-2.0,-4.0,1.0,-3.0,1.0,-3.0,-2.0,0.90478515625,-0.05859375,0.35546875,-3.2926829268292686,9.634146341463415,-5.2439024390243905
11_40_17_271,-3.0,2.0,-3.0,-4.0,-2.0,-2.0,-3.0,1.0,0.92236328125,-0.07080078125,0.36083984375,-1.2195121951219514,10.731707317073171,-4.024390243902439
11_40_17_271,0.0,2.0,-3.0,1.0,-5.0,-4.0,0.0,0.0,0.9208984375,-0.052734375,0.345703125,-1.7682926829268295,10.060975609756099,-3.4756097560975614
11_40_17_271,-6.0,2.0,1.0,0.0,-1.0,0.0,-1.0,0.0,0.9306640625,-0.0615234375,0.35302734375,-2.987804878048781,7.560975609756098,-2.682926829268293
11_40_17_271,0.0,-5.0,1.0,-1.0,0.0,1.0,-1.0,1.0,0.93994140625,-0.0771484375,0.36572265625,-3.2926829268292686,4.573170731707317,-1.7682926829268295
11_40_17_271,-1.0,3.0,-2.0,-1.0,-2.0,-1.0,-2.0,0.0,0.94384765625,-0.08056640625,0.3720703125,-2.987804878048781,2.25609756097561,-1.1585365853658538
11_40_17_271,-4.0,-2.0,-4.0,-3.0,-3.0,-1.0,-4.0,-3.0,0.93701171875,-0.0888671875,0.35400390625,-1.0365853658536586,-0.5487804878048781,-0.426829268292683
11_40_17_271,1.0,-1.0,0.0,-3.0,-1.0,1.0,-1.0,2.0,0.9384765625,-0.08349609375,0.34375,-1.524390243902439,-0.6707317073170732,-0.12195121951219513
11_40_17_330,-4.0,3.0,-4.0,-1.0,-4.0,-3.0,2.0,1.0,0.8857421875,-0.0751953125,0.3564453125,-2.1341463414634148,5.426829268292684,-5.121951219512195
11_40_17_330,-3.0,4.0,-1.0,-2.0,1.0,-2.0,0.0,-4.0,0.90478515625,-0.05859375,0.35546875,-3.2926829268292686,9.634146341463415,-5.2439024390243905
11_40_17_330,3.0,3.0,1.0,1.0,-1.0,-2.0,0.0,-3.0,0.92236328125,-0.07080078125,0.36083984375,-1.2195121951219514,10.731707317073171,-4.024390243902439
11_40_17_330,1.0,-2.0,-4.0,1.0,-3.0,1.0,-3.0,-2.0,0.9208984375,-0.052734375,0.345703125,-1.7682926829268295,10.060975609756099,-3.4756097560975614
11_40_17_330,-3.0,2.0,-3.0,-4.0,-2.0,-2.0,-3.0,1.0,0.9306640625,-0.0615234375,0.35302734375,-2.987804878048781,7.560975609756098,-2.682926829268293
11_40_17_330,0.0,2.0,-3.0,1.0,-5.0,-4.0,0.0,0.0,0.93994140625,-0.0771484375,0.36572265625,-3.2926829268292686,4.573170731707317,-1.7682926829268295
11_40_17_330,-6.0,2.0,1.0,0.0,-1.0,0.0,-1.0,0.0,0.94384765625,-0.08056640625,0.3720703125,-2.987804878048781,2.25609756097561,-1.1585365853658538
11_40_17_330,0.0,-5.0,1.0,-1.0,0.0,1.0,-1.0,1.0,0.93701171875,-0.0888671875,0.35400390625,-1.0365853658536586,-0.5487804878048781,-0.426829268292683
11_40_17_330,-1.0,3.0,-2.0,-1.0,-2.0,-1.0,-2.0,0.0,0.9384765625,-0.08349609375,0.34375,-1.524390243902439,-0.6707317073170732,-0.12195121951219513
11_40_17_374,-4.0,0.0,-1.0,4.0,-2.0,1.0,3.0,0.0,0.87939453125,-0.05810546875,0.35888671875,-2.0121951219512195,0.3658536585365854,-4.2682926829268295
11_40_17_374,-1.0,-2.0,-4.0,1.0,-1.0,-4.0,2.0,-1.0,0.87890625,-0.06689453125,0.35595703125,-0.9756097560975611,2.682926829268293,-4.573170731707317
11_40_17_374,-2.0,1.0,1.0,0.0,-3.0,-2.0,-4.0,2.0,0.8857421875,-0.0751953125,0.3564453125,-2.1341463414634148,5.426829268292684,-5.121951219512195
11_40_17_374,0.0,4.0,1.0,0.0,1.0,2.0,-2.0,1.0,0.90478515625,-0.05859375,0.35546875,-3.2926829268292686,9.634146341463415,-5.2439024390243905
11_40_17_374,1.0,-2.0,-2.0,-1.0,2.0,-1.0,-1.0,0.0,0.92236328125,-0.07080078125,0.36083984375,-1.2195121951219514,10.731707317073171,-4.024390243902439
11_40_17_374,1.0,-5.0,0.0,0.0,-1.0,-1.0,1.0,0.0,0.9208984375,-0.052734375,0.345703125,-1.7682926829268295,10.060975609756099,-3.4756097560975614
11_40_17_374,-4.0,3.0,-4.0,-1.0,-4.0,-3.0,2.0,1.0,0.9306640625,-0.0615234375,0.35302734375,-2.987804878048781,7.560975609756098,-2.682926829268293
11_40_17_374,-3.0,4.0,-1.0,-2.0,1.0,-2.0,0.0,-4.0,0.93994140625,-0.0771484375,0.36572265625,-3.2926829268292686,4.573170731707317,-1.7682926829268295
11_40_17_374,3.0,3.0,1.0,1.0,-1.0,-2.0,0.0,-3.0,0.94384765625,-0.08056640625,0.3720703125,-2.987804878048781,2.25609756097561,-1.1585365853658538
11_40_17_435,-1.0,-4.0,1.0,0.0,-3.0,-1.0,-1.0,-2.0,0.88134765625,-0.0615234375,0.3544921875,-3.353658536585366,-1.3414634146341464,-3.963414634146342
11_40_17_435,-1.0,1.0,-4.0,-1.0,-1.0,0.0,-3.0,-1.0,0.87939453125,-0.05810546875,0.35888671875,-2.0121951219512195,0.3658536585365854,-4.2682926829268295
11_40_17_435,-1.0,-2.0,1.0,-1.0,3.0,2.0,-2.0,2.0,0.87890625,-0.06689453125,0.35595703125,-0.9756097560975611,2.682926829268293,-4.573170731707317
11_40_17_435,-3.0,-2.0,-3.0,0.0,2.0,1.0,1.0,0.0,0.8857421875,-0.0751953125,0.3564453125,-2.1341463414634148,5.426829268292684,-5.121951219512195
11_40_17_435,4.0,-1.0,0.0,2.0,-1.0,-1.0,-3.0,-3.0,0.90478515625,-0.05859375,0.35546875,-3.2926829268292686,9.634146341463415,-5.2439024390243905
11_40_17_435,-7.0,4.0,-1.0,-3.0,-4.0,-2.0,-4.0,4.0,0.92236328125,-0.07080078125,0.36083984375,-1.2195121951219514,10.731707317073171,-4.024390243902439
11_40_17_435,0.0,-1.0,-3.0,-5.0,-3.0,-2.0,3.0,-1.0,0.9208984375,-0.052734375,0.345703125,-1.7682926829268295,10.060975609756099,-3.4756097560975614
11_40_17_435,-4.0,0.0,-1.0,4.0,-2.0,1.0,3.0,0.0,0.9306640625,-0.0615234375,0.35302734375,-2.987804878048781,7.560975609756098,-2.682926829268293
11_40_17_435,-1.0,-2.0,-4.0,1.0,-1.0,-4.0,2.0,-1.0,0.93994140625,-0.0771484375,0.36572265625,-3.2926829268292686,4.573170731707317,-1.7682926829268295
11_40_17_435,-2.0,1.0,1.0,0.0,-3.0,-2.0,-4.0,2.0,0.94384765625,-0.08056640625,0.3720703125,-2.987804878048781,2.25609756097561,-1.1585365853658538
11_40_17_579,1.0,-1.0,1.0,-5.0,2.0,-1.0,0.0,1.0,0.9150390625,-0.0595703125,0.3486328125,-3.231707317073171,-6.646341463414635,-3.963414634146342
11_40_17_579,-2.0,-4.0,-4.0,-1.0,3.0,1.0,-4.0,2.0,0.88134765625,-0.0615234375,0.3544921875,-3.353658536585366,-1.3414634146341464,-3.963414634146342
11_40_17_579,-1.0,-4.0,1.0,0.0,-3.0,-1.0,-1.0,-2.0,0.87939453125,-0.05810546875,0.35888671875,-2.0121951219512195,0.3658536585365854,-4.2682926829268295
11_40_17_579,-1.0,1.0,-4.0,-1.0,-1.0,0.0,-3.0,-1.0,0.87890625,-0.06689453125,0.35595703125,-0.9756097560975611,2.682926829268293,-4.573170731707317
11_40_17_579,-1.0,-2.0,1.0,-1.0,3.0,2.0,-2.0,2.0,0.8857421875,-0.0751953125,0.3564453125,-2.1341463414634148,5.426829268292684,-5.121951219512195
11_40_17_579,-3.0,-2.0,-3.0,0.0,2.0,1.0,1.0,0.0,0.90478515625,-0.05859375,0.35546875,-3.2926829268292686,9.634146341463415,-5.2439024390243905
11_40_17_579,4.0,-1.0,0.0,2.0,-1.0,-1.0,-3.0,-3.0,0.92236328125,-0.07080078125,0.36083984375,-1.2195121951219514,10.731707317073171,-4.024390243902439
11_40_17_579,-7.0,4.0,-1.0,-3.0,-4.0,-2.0,-4.0,4.0,0.9208984375,-0.052734375,0.345703125,-1.7682926829268295,10.060975609756099,-3.4756097560975614
11_40_17_579,0.0,-1.0,-3.0,-5.0,-3.0,-2.0,3.0,-1.0,0.9306640625,-0.0615234375,0.35302734375,-2.987804878048781,7.560975609756098,-2.682926829268293
11_40_17_579,-4.0,0.0,-1.0,4.0,-2.0,1.0,3.0,0.0,0.93994140625,-0.0771484375,0.36572265625,-3.2926829268292686,4.573170731707317,-1.7682926829268295
11_40_17_627,-4.0,-2.0,-5.0,-1.0,-4.0,-2.0,-3.0,0.0,0.9150390625,-0.0595703125,0.3486328125,-3.231707317073171,-6.646341463414635,-3.963414634146342
11_40_17_627,1.0,-1.0,1.0,-5.0,2.0,-1.0,0.0,1.0,0.88134765625,-0.0615234375,0.3544921875,-3.353658536585366,-1.3414634146341464,-3.963414634146342
11_40_17_627,-2.0,-4.0,-4.0,-1.0,3.0,1.0,-4.0,2.0,0.87939453125,-0.05810546875,0.35888671875,-2.0121951219512195,0.3658536585365854,-4.2682926829268295
11_40_17_627,-1.0,-4.0,1.0,0.0,-3.0,-1.0,-1.0,-2.0,0.87890625,-0.06689453125,0.35595703125,-0.9756097560975611,2.682926829268293,-4.573170731707317
11_40_17_627,-1.0,1.0,-4.0,-1.0,-1.0,0.0,-3.0,-1.0,0.8857421875,-0.0751953125,0.3564453125,-2.1341463414634148,5.426829268292684,-5.121951219512195
11_40_17_627,-1.0,-2.0,1.0,-1.0,3.0,2.0,-2.0,2.0,0.90478515625,-0.05859375,0.35546875,-3.2926829268292686,9.634146341463415,-5.2439024390243905
11_40_17_627,-3.0,-2.0,-3.0,0.0,2.0,1.0,1.0,0.0,0.92236328125,-0.07080078125,0.36083984375,-1.2195121951219514,10.731707317073171,-4.024390243902439
11_40_17_627,4.0,-1.0,0.0,2.0,-1.0,-1.0,-3.0,-3.0,0.9208984375,-0.052734375,0.345703125,-1.7682926829268295,10.060975609756099,-3.4756097560975614
11_40_17_627,-7.0,4.0,-1.0,-3.0,-4.0,-2.0,-4.0,4.0,0.9306640625,-0.0615234375,0.35302734375,-2.987804878048781,7.560975609756098,-2.682926829268293
11_40_17_668,-3.0,-1.0,1.0,0.0,-2.0,-1.0,-3.0,-2.0,0.85400390625,-0.0595703125,0.39599609375,-18.414634146341466,-8.231707317073171,-8.231707317073171
11_40_17_668,-1.0,-2.0,-3.0,-2.0,-1.0,-1.0,-2.0,-3.0,0.88330078125,-0.037109375,0.357421875,-18.04878048780488,-9.26829268292683,-7.01219512195122
11_40_17_668,-3.0,-6.0,-3.0,3.0,0.0,-2.0,0.0,0.0,0.90283203125,-0.0107421875,0.3583984375,-10.487804878048781,-11.341463414634147,-5.060975609756098
11_40_17_668,-2.0,-3.0,-2.0,0.0,0.0,-1.0,-2.0,-1.0,0.91015625,-0.04443359375,0.361328125,-5.121951219512195,-8.536585365853659,-3.780487804878049
11_40_17_668,-2.0,4.0,-5.0,-1.0,-1.0,2.0,-3.0,-6.0,0.9150390625,-0.04248046875,0.3603515625,-3.1097560975609757,-7.8048780487804885,-3.536585365853659
11_40_17_668,0.0,0.0,-3.0,0.0,-1.0,0.0,0.0,1.0,0.9150390625,-0.0595703125,0.3486328125,-3.231707317073171,-6.646341463414635,-3.963414634146342
11_40_17_668,4.0,-6.0,-2.0,1.0,2.0,-2.0,-2.0,1.0,0.88134765625,-0.0615234375,0.3544921875,-3.353658536585366,-1.3414634146341464,-3.963414634146342
11_40_17_668,-3.0,-9.0,8.0,-1.0,0.0,-1.0,0.0,0.0,0.87939453125,-0.05810546875,0.35888671875,-2.0121951219512195,0.3658536585365854,-4.2682926829268295
11_40_17_668,-4.0,-1.0,-7.0,-1.0,-4.0,-4.0,-2.0,2.0,0.87890625,-0.06689453125,0.35595703125,-0.9756097560975611,2.682926829268293,-4.573170731707317
11_40_17_668,0.0,1.0,-3.0,1.0,-4.0,-1.0,-1.0,-1.0,0.8857421875,-0.0751953125,0.3564453125,-2.1341463414634148,5.426829268292684,-5.121951219512195
11_40_17_725,-3.0,4.0,2.0,1.0,2.0,1.0,0.0,-5.0,0.849609375,-0.04296875,0.4013671875,-17.98780487804878,-9.085365853658537,-7.621951219512196
11_40_17_725,-1.0,3.0,-2.0,2.0,5.0,3.0,1.0,2.0,0.85400390625,-0.0595703125,0.39599609375,-18.414634146341466,-8.231707317073171,-8.231707317073171
11_40_17_725,1.0,3.0,-2.0,-6.0,10.0,-1.0,-3.0,0.0,0.88330078125,-0.037109375,0.357421875,-18.04878048780488,-9.26829268292683,-7.01219512195122
11_40_17_725,2.0,-6.0,0.0,-1.0,-15.0,-1.0,0.0,-4.0,0.90283203125,-0.0107421875,0.3583984375,-10.487804878048781,-11.341463414634147,-5.060975609756098
11_40_17_725,2.0,1.0,-3.0,7.0,0.0,-2.0,0.0,-5.0,0.91015625,-0.04443359375,0.361328125,-5.121951219512195,-8.536585365853659,-3.780487804878049
11_40_17_725,-4.0,-5.0,-1.0,-4.0,-4.0,-2.0,-5.0,5.0,0.9150390625,-0.04248046875,0.3603515625,-3.1097560975609757,-7.8048780487804885,-3.536585365853659
11_40_17_725,-3.0,-1.0,1.0,0.0,-2.0,-1.0,-3.0,-2.0,0.9150390625,-0.0595703125,0.3486328125,-3.231707317073171,-6.646341463414635,-3.963414634146342
11_40_17_725,-1.0,-2.0,-3.0,-2.0,-1.0,-1.0,-2.0,-3.0,0.88134765625,-0.0615234375,0.3544921875,-3.353658536585366,-1.3414634146341464,-3.963414634146342
11_40_17_725,-3.0,-6.0,-3.0,3.0,0.0,-2.0,0.0,0.0,0.87939453125,-0.05810546875,0.35888671875,-2.0121951219512195,0.3658536585365854,-4.2682926829268295
11_40_17_725,-2.0,-3.0,-2.0,0.0,0.0,-1.0,-2.0,-1.0,0.87890625,-0.06689453125,0.35595703125,-0.9756097560975611,2.682926829268293,-4.573170731707317
11_40_17_892,-1.0,1.0,-2.0,-4.0,-4.0,-2.0,-5.0,2.0,0.833984375,-0.03125,0.41650390625,-20.30487804878049,-9.817073170731708,-6.341463414634147
11_40_17_892,2.0,-3.0,-2.0,0.0,-1.0,-1.0,0.0,3.0,0.849609375,-0.04296875,0.4013671875,-17.98780487804878,-9.085365853658537,-7.621951219512196
11_40_17_892,-3.0,4.0,2.0,1.0,2.0,1.0,0.0,-5.0,0.85400390625,-0.0595703125,0.39599609375,-18.414634146341466,-8.231707317073171,-8.231707317073171
11_40_17_892,-1.0,3.0,-2.0,2.0,5.0,3.0,1.0,2.0,0.88330078125,-0.037109375,0.357421875,-18.04878048780488,-9.26829268292683,-7.01219512195122
11_40_17_892,1.0,3.0,-2.0,-6.0,10.0,-1.0,-3.0,0.0,0.90283203125,-0.0107421875,0.3583984375,-10.487804878048781,-11.341463414634147,-5.060975609756098
11_40_17_892,2.0,-6.0,0.0,-1.0,-15.0,-1.0,0.0,-4.0,0.91015625,-0.04443359375,0.361328125,-5.121951219512195,-8.536585365853659,-3.780487804878049
11_40_17_892,2.0,1.0,-3.0,7.0,0.0,-2.0,0.0,-5.0,0.9150390625,-0.04248046875,0.3603515625,-3.1097560975609757,-7.8048780487804885,-3.536585365853659
11_40_17_892,-4.0,-5.0,-1.0,-4.0,-4.0,-2.0,-5.0,5.0,0.9150390625,-0.0595703125,0.3486328125,-3.231707317073171,-6.646341463414635,-3.963414634146342
11_40_17_892,-3.0,-1.0,1.0,0.0,-2.0,-1.0,-3.0,-2.0,0.88134765625,-0.0615234375,0.3544921875,-3.353658536585366,-1.3414634146341464,-3.963414634146342
11_40_17_892,-1.0,-2.0,-3.0,-2.0,-1.0,-1.0,-2.0,-3.0,0.87939453125,-0.05810546875,0.35888671875,-2.0121951219512195,0.3658536585365854,-4.2682926829268295
11_40_17_942,-3.0,4.0,-3.0,-1.0,-3.0,-5.0,-1.0,1.0,0.82373046875,-0.0830078125,0.435546875,-23.84146341463415,-12.560975609756099,-5.0
11_40_17_942,-2.0,-3.0,-1.0,-3.0,-3.0,0.0,-2.0,-2.0,0.8330078125,-0.05078125,0.427734375,-23.414634146341466,-10.792682926829269,-5.548780487804878
11_40_17_942,3.0,-4.0,-1.0,-3.0,-6.0,-4.0,-4.0,4.0,0.833984375,-0.03125,0.41650390625,-20.30487804878049,-9.817073170731708,-6.341463414634147
11_40_17_942,0.0,-4.0,-5.0,2.0,2.0,1.0,1.0,-1.0,0.849609375,-0.04296875,0.4013671875,-17.98780487804878,-9.085365853658537,-7.621951219512196
11_40_17_942,-7.0,5.0,1.0,4.0,1.0,0.0,0.0,0.0,0.85400390625,-0.0595703125,0.39599609375,-18.414634146341466,-8.231707317073171,-8.231707317073171
11_40_17_942,0.0,-3.0,-2.0,2.0,6.0,-1.0,-1.0,-1.0,0.88330078125,-0.037109375,0.357421875,-18.04878048780488,-9.26829268292683,-7.01219512195122
11_40_17_942,1.0,-2.0,2.0,-3.0,4.0,-2.0,1.0,-3.0,0.90283203125,-0.0107421875,0.3583984375,-10.487804878048781,-11.341463414634147,-5.060975609756098
11_40_17_942,1.0,3.0,-2.0,-5.0,-3.0,-1.0,-1.0,-1.0,0.91015625,-0.04443359375,0.361328125,-5.121951219512195,-8.536585365853659,-3.780487804878049
11_40_17_942,-1.0,1.0,-2.0,-4.0,-4.0,-2.0,-5.0,2.0,0.9150390625,-0.04248046875,0.3603515625,-3.1097560975609757,-7.8048780487804885,-3.536585365853659
11_40_17_942,2.0,-3.0,-2.0,0.0,-1.0,-1.0,0.0,3.0,0.9150390625,-0.0595703125,0.3486328125,-3.231707317073171,-6.646341463414635,-3.963414634146342
11_40_17_981,-4.0,-5.0,-1.0,0.0,2.0,-3.0,-3.0,-1.0,0.86376953125,-0.10888671875,0.5029296875,1.524390243902439,-5.365853658536586,7.8048780487804885
11_40_17_981,0.0,-6.0,5.0,-3.0,-1.0,-2.0,-4.0,-1.0,0.82421875,-0.10595703125,0.48583984375,-2.682926829268293,-10.853658536585368,3.7195121951219514
11_40_17_981,0.0,1.0,-3.0,-5.0,-3.0,-4.0,1.0,-3.0,0.82373046875,-0.0830078125,0.435546875,-23.84146341463415,-12.560975609756099,-5.0
11_40_17_981,-2.0,-5.0,2.0,2.0,1.0,-4.0,1.0,-7.0,0.8330078125,-0.05078125,0.427734375,-23.414634146341466,-10.792682926829269,-5.548780487804878
11_40_17_981,2.0,-2.0,-7.0,1.0,-1.0,0.0,-2.0,-2.0,0.833984375,-0.03125,0.41650390625,-20.30487804878049,-9.817073170731708,-6.341463414634147
11_40_17_981,0.0,-10.0,5.0,-4.0,-4.0,0.0,2.0,-1.0,0.849609375,-0.04296875,0.4013671875,-17.98780487804878,-9.085365853658537,-7.621951219512196
11_40_17_981,-3.0,4.0,-3.0,-1.0,-3.0,-5.0,-1.0,1.0,0.85400390625,-0.0595703125,0.39599609375,-18.414634146341466,-8.231707317073171,-8.231707317073171
11_40_17_981,-2.0,-3.0,-1.0,-3.0,-3.0,0.0,-2.0,-2.0,0.88330078125,-0.037109375,0.357421875,-18.04878048780488,-9.26829268292683,-7.01219512195122
11_40_17_981,3.0,-4.0,-1.0,-3.0,-6.0,-4.0,-4.0,4.0,0.90283203125,-0.0107421875,0.3583984375,-10.487804878048781,-11.341463414634147,-5.060975609756098
11_40_17_981,0.0,-4.0,-5.0,2.0,2.0,1.0,1.0,-1.0,0.91015625,-0.04443359375,0.361328125,-5.121951219512195,-8.536585365853659,-3.780487804878049
11_40_18_036,-2.0,-2.0,1.0,1.0,2.0,1.0,-1.0,-6.0,0.92236328125,-0.0810546875,0.50830078125,7.621951219512196,-1.5853658536585367,13.29268292682927
11_40_18_036,3.0,-5.0,-1.0,2.0,-6.0,-1.0,2.0,2.0,0.86376953125,-0.10888671875,0.5029296875,1.524390243902439,-5.365853658536586,7.8048780487804885
11_40_18_036,5.0,-5.0,5.0,1.0,-2.0,-1.0,0.0,-1.0,0.82421875,-0.10595703125,0.48583984375,-2.682926829268293,-10.853658536585368,3.7195121951219514
11_40_18_036,-2.0,-1.0,-1.0,2.0,0.0,1.0,-3.0,1.0,0.82373046875,-0.0830078125,0.435546875,-23.84146341463415,-12.560975609756099,-5.0
11_40_18_036,-4.0,-8.0,2.0,-3.0,1.0,-1.0,0.0,-2.0,0.8330078125,-0.05078125,0.427734375,-23.414634146341466,-10.792682926829269,-5.548780487804878
11_40_18_036,-3.0,-2.0,-4.0,1.0,-4.0,1.0,0.0,1.0,0.833984375,-0.03125,0.41650390625,-20.30487804878049,-9.817073170731708,-6.341463414634147
11_40_18_036,3.0,-5.0,-2.0,-5.0,8.0,0.0,-3.0,1.0,0.849609375,-0.04296875,0.4013671875,-17.98780487804878,-9.085365853658537,-7.621951219512196
11_40_18_036,-4.0,-1.0,-7.0,7.0,0.0,-2.0,0.0,1.0,0.85400390625,-0.0595703125,0.39599609375,-18.414634146341466,-8.231707317073171,-8.231707317073171
11_40_18_036,-5.0,0.0,2.0,-8.0,5.0,3.0,1.0,0.0,0.88330078125,-0.037109375,0.357421875,-18.04878048780488,-9.26829268292683,-7.01219512195122
11_40_18_084,-2.0,-7.0,1.0,1.0,0.0,-5.0,-1.0,0.0,0.9365234375,-0.10205078125,0.45703125,24.695121951219516,16.890243902439025,25.0609756097561
11_40_18_084,1.0,3.0,-1.0,-1.0,1.0,1.0,3.0,1.0,0.9189453125,-0.07958984375,0.4580078125,18.170731707317074,12.560975609756099,21.890243902439025
11_40_18_084,-2.0,0.0,0.0,-4.0,-2.0,-2.0,3.0,1.0,0.92724609375,-0.07373046875,0.47607421875,14.26829268292683,7.073170731707318,18.84146341463415
11_40_18_084,-1.0,2.0,-7.0,0.0,-1.0,1.0,-1.0,-5.0,0.93359375,-0.0849609375,0.48291015625,10.426829268292684,2.073170731707317,15.54878048780488
11_40_18_084,-3.0,-5.0,2.0,-2.0,-1.0,-6.0,0.0,1.0,0.92236328125,-0.0810546875,0.50830078125,7.621951219512196,-1.5853658536585367,13.29268292682927
11_40_18_084,-2.0,5.0,-4.0,-2.0,-1.0,-3.0,-2.0,1.0,0.86376953125,-0.10888671875,0.5029296875,1.524390243902439,-5.365853658536586,7.8048780487804885
11_40_18_084,-1.0,0.0,-5.0,2.0,-1.0,-1.0,-4.0,-2.0,0.82421875,-0.10595703125,0.48583984375,-2.682926829268293,-10.853658536585368,3.7195121951219514
11_40_18_084,0.0,5.0,-3.0,4.0,1.0,1.0,-1.0,3.0,0.82373046875,-0.0830078125,0.435546875,-23.84146341463415,-12.560975609756099,-5.0
11_40_18_084,0.0,-1.0,4.0,0.0,-1.0,-4.0,-3.0,0.0,0.8330078125,-0.05078125,0.427734375,-23.414634146341466,-10.792682926829269,-5.548780487804878
11_40_18_084,3.0,-5.0,-17.0,0.0,-2.0,-1.0,0.0,0.0,0.833984375,-0.03125,0.41650390625,-20.30487804878049,-9.817073170731708,-6.341463414634147
11_40_18_139,2.0,0.0,4.0,-2.0,-4.0,0.0,-3.0,-4.0,1.00927734375,-0.15185546875,0.4599609375,30.426829268292686,19.451219512195124,26.82926829268293
11_40_18_139,-2.0,4.0,-7.0,-6.0,-2.0,3.0,4.0,0.0,0.9365234375,-0.10205078125,0.45703125,24.695121951219516,16.890243902439025,25.0609756097561
11_40_18_139,1.0,-6.0,-4.0,2.0,0.0,1.0,-1.0,1.0,0.9189453125,-0.07958984375,0.4580078125,18.170731707317074,12.560975609756099,21.890243902439025
11_40_18_139,-3.0,0.0,0.0,4.0,-5.0,-1.0,-3.0,-1.0,0.92724609375,-0.07373046875,0.47607421875,14.26829268292683,7.073170731707318,18.84146341463415
11_40_18_139,2.0,-4.0,15.0,-3.0,-15.0,0.0,0.0,3.0,0.93359375,-0.0849609375,0.48291015625,10.426829268292684,2.073170731707317,15.54878048780488
11_40_18_139,-1.0,-2.0,-1.0,1.0,-3.0,-1.0,-3.0,-1.0,0.92236328125,-0.0810546875,0.50830078125,7.621951219512196,-1.5853658536585367,13.29268292682927
11_40_18_139,-3.0,0.0,1.0,-1.0,-4.0,-1.0,-2.0,3.0,0.86376953125,-0.10888671875,0.5029296875,1.524390243902439,-5.365853658536586,7.8048780487804885
11_40_18_139,-2.0,-5.0,-3.0,-2.0,0.0,2.0,-4.0,-6.0,0.82421875,-0.10595703125,0.48583984375,-2.682926829268293,-10.853658536585368,3.7195121951219514
11_40_18_188,-1.0,-1.0,2.0,-3.0,-1.0,0.0,-1.0,0.0,1.0830078125,-0.15576171875,0.44677734375,30.60975609756098,22.98780487804878,27.682926829268297
11_40_18_188,3.0,-2.0,-4.0,3.0,-2.0,-1.0,-3.0,-1.0,1.00927734375,-0.15185546875,0.4599609375,30.426829268292686,19.451219512195124,26.82926829268293
11_40_18_188,1.0,-1.0,-6.0,1.0,-2.0,-3.0,-6.0,6.0,0.9365234375,-0.10205078125,0.45703125,24.695121951219516,16.890243902439025,25.0609756097561
11_40_18_188,-5.0,6.0,-3.0,-4.0,-4.0,-4.0,-3.0,0.0,0.9189453125,-0.07958984375,0.4580078125,18.170731707317074,12.560975609756099,21.890243902439025
11_40_18_188,4.0,-7.0,5.0,-4.0,0.0,-1.0,2.0,0.0,0.92724609375,-0.07373046875,0.47607421875,14.26829268292683,7.073170731707318,18.84146341463415
11_40_18_188,-2.0,4.0,3.0,10.0,-1.0,-1.0,0.0,0.0,0.93359375,-0.0849609375,0.48291015625,10.426829268292684,2.073170731707317,15.54878048780488
11_40_18_188,2.0,0.0,4.0,-2.0,-4.0,0.0,-3.0,-4.0,0.92236328125,-0.0810546875,0.50830078125,7.621951219512196,-1.5853658536585367,13.29268292682927
11_40_18_188,-2.0,4.0,-7.0,-6.0,-2.0,3.0,4.0,0.0,0.86376953125,-0.10888671875,0.5029296875,1.524390243902439,-5.365853658536586,7.8048780487804885
11_40_18_234,3.0,1.0,-8.0,1.0,0.0,0.0,1.0,-1.0,1.11474609375,-0.13330078125,0.421875,24.451219512195124,29.26829268292683,27.134146341463417
11_40_18_234,1.0,-6.0,5.0,1.0,2.0,-3.0,-1.0,-2.0,1.0830078125,-0.15576171875,0.44677734375,30.60975609756098,22.98780487804878,27.682926829268297
11_40_18_234,-3.0,-5.0,-11.0,2.0,-2.0,1.0,-3.0,-2.0,1.00927734375,-0.15185546875,0.4599609375,30.426829268292686,19.451219512195124,26.82926829268293
11_40_18_234,-2.0,2.0,7.0,0.0,-3.0,1.0,1.0,1.0,0.9365234375,-0.10205078125,0.45703125,24.695121951219516,16.890243902439025,25.0609756097561
11_40_18_234,2.0,0.0,-6.0,-4.0,0.0,-2.0,0.0,-3.0,0.9189453125,-0.07958984375,0.4580078125,18.170731707317074,12.560975609756099,21.890243902439025
11_40_18_234,-1.0,-1.0,2.0,-3.0,-1.0,0.0,-1.0,0.0,0.92724609375,-0.07373046875,0.47607421875,14.26829268292683,7.073170731707318,18.84146341463415
11_40_18_234,3.0,-2.0,-4.0,3.0,-2.0,-1.0,-3.0,-1.0,0.93359375,-0.0849609375,0.48291015625,10.426829268292684,2.073170731707317,15.54878048780488
11_40_18_285,0.0,-4.0,7.0,-1.0,2.0,-2.0,-1.0,-1.0,0.90185546875,-0.26416015625,0.46435546875,28.475609756097562,70.91463414634147,27.621951219512198
11_40_18_285,0.0,4.0,-13.0,-4.0,-1.0,-5.0,0.0,0.0,0.890625,-0.208984375,0.42919921875,25.365853658536587,68.84146341463415,29.75609756097561
11_40_18_285,1.0,-7.0,10.0,-5.0,-1.0,1.0,0.0,-5.0,0.89697265625,-0.1748046875,0.41357421875,22.073170731707318,60.243902439024396,31.402439024390247
11_40_18_285,4.0,3.0,3.0,1.0,-3.0,0.0,-1.0,1.0,0.95458984375,-0.12451171875,0.40185546875,9.756097560975611,52.5609756097561,30.30487804878049
11_40_18_285,0.0,-7.0,11.0,0.0,-3.0,-1.0,2.0,-2.0,1.02099609375,-0.103515625,0.39697265625,8.475609756097562,47.01219512195122,28.292682926829272
11_40_18_285,-2.0,3.0,-1.0,0.0,1.0,-2.0,-6.0,-1.0,1.0869140625,-0.099609375,0.39697265625,15.060975609756099,38.41463414634147,26.89024390243903
11_40_18_285,2.0,-12.0,4.0,-2.0,1.0,-1.0,-2.0,-4.0,1.11474609375,-0.13330078125,0.421875,24.451219512195124,29.26829268292683,27.134146341463417
11_40_18_285,-2.0,6.0,-4.0,2.0,-1.0,-4.0,-6.0,1.0,1.0830078125,-0.15576171875,0.44677734375,30.60975609756098,22.98780487804878,27.682926829268297
11_40_18_285,0.0,-1.0,-3.0,2.0,-5.0,-1.0,-4.0,2.0,1.00927734375,-0.15185546875,0.4599609375,30.426829268292686,19.451219512195124,26.82926829268293
11_40_18_285,0.0,2.0,-3.0,0.0,-2.0,1.0,-3.0,1.0,0.9365234375,-0.10205078125,0.45703125,24.695121951219516,16.890243902439025,25.0609756097561
11_40_18_350,-3.0,-5.0,2.0,-1.0,2.0,0.0,0.0,-2.0,0.95458984375,-0.12451171875,0.40185546875,9.756097560975611,52.5609756097561,30.30487804878049
11_40_18_350,1.0,-2.0,-2.0,0.0,-2.0,1.0,-1.0,2.0,1.02099609375,-0.103515625,0.39697265625,8.475609756097562,47.01219512195122,28.292682926829272
11_40_18_350,0.0,-4.0,7.0,-1.0,2.0,-2.0,-1.0,-1.0,1.0869140625,-0.099609375,0.39697265625,15.060975609756099,38.41463414634147,26.89024390243903
11_40_18_350,0.0,4.0,-13.0,-4.0,-1.0,-5.0,0.0,0.0,1.11474609375,-0.13330078125,0.421875,24.451219512195124,29.26829268292683,27.134146341463417
11_40_18_350,1.0,-7.0,10.0,-5.0,-1.0,1.0,0.0,-5.0,1.0830078125,-0.15576171875,0.44677734375,30.60975609756098,22.98780487804878,27.682926829268297
11_40_18_350,4.0,3.0,3.0,1.0,-3.0,0.0,-1.0,1.0,1.00927734375,-0.15185546875,0.4599609375,30.426829268292686,19.451219512195124,26.82926829268293
11_40_18_393,-7.0,0.0,6.0,-3.0,-1.0,-2.0,1.0,-2.0,0.99169921875,-0.2900390625,0.4677734375,31.89024390243903,65.3048780487805,14.573170731707318
11_40_18_393,5.0,-6.0,-10.0,-1.0,-2.0,1.0,-4.0,0.0,0.9716796875,-0.3193359375,0.47314453125,36.09756097560976,67.6219512195122,18.658536585365855
11_40_18_393,-1.0,1.0,-1.0,-2.0,-1.0,-2.0,-5.0,-6.0,0.93603515625,-0.31005859375,0.466796875,33.963414634146346,69.75609756097562,23.53658536585366
11_40_18_393,-12.0,4.0,4.0,1.0,-2.0,2.0,3.0,1.0,0.90185546875,-0.26416015625,0.46435546875,28.475609756097562,70.91463414634147,27.621951219512198
11_40_18_393,0.0,-3.0,0.0,2.0,-2.0,-4.0,-2.0,-3.0,0.890625,-0.208984375,0.42919921875,25.365853658536587,68.84146341463415,29.75609756097561
11_40_18_393,1.0,-9.0,2.0,-4.0,-1.0,-2.0,-3.0,3.0,0.89697265625,-0.1748046875,0.41357421875,22.073170731707318,60.243902439024396,31.402439024390247
11_40_18_393,-9.0,-10.0,-1.0,-2.0,-2.0,-1.0,-2.0,3.0,0.95458984375,-0.12451171875,0.40185546875,9.756097560975611,52.5609756097561,30.30487804878049
11_40_18_393,-1.0,10.0,-3.0,-4.0,0.0,-1.0,-7.0,-46.0,1.02099609375,-0.103515625,0.39697265625,8.475609756097562,47.01219512195122,28.292682926829272
11_40_18_393,-4.0,-9.0,4.0,-1.0,-1.0,3.0,-2.0,15.0,1.0869140625,-0.099609375,0.39697265625,15.060975609756099,38.41463414634147,26.89024390243903
11_40_18_518,6.0,-1.0,-24.0,-6.0,1.0,-1.0,1.0,-2.0,0.97509765625,-0.2587890625,0.44482421875,23.170731707317074,63.10975609756098,12.134146341463415
11_40_18_518,-3.0,5.0,-5.0,2.0,2.0,0.0,-1.0,5.0,0.99169921875,-0.2900390625,0.4677734375,31.89024390243903,65.3048780487805,14.573170731707318
11_40_18_518,5.0,1.0,-6.0,-1.0,-4.0,-2.0,1.0,-1.0,0.9716796875,-0.3193359375,0.47314453125,36.09756097560976,67.6219512195122,18.658536585365855
11_40_18_518,-7.0,0.0,6.0,-3.0,-1.0,-2.0,1.0,-2.0,0.93603515625,-0.31005859375,0.466796875,33.963414634146346,69.75609756097562,23.53658536585366
11_40_18_518,5.0,-6.0,-10.0,-1.0,-2.0,1.0,-4.0,0.0,0.90185546875,-0.26416015625,0.46435546875,28.475609756097562,70.91463414634147,27.621951219512198
11_40_18_518,-1.0,1.0,-1.0,-2.0,-1.0,-2.0,-5.0,-6.0,0.890625,-0.208984375,0.42919921875,25.365853658536587,68.84146341463415,29.75609756097561
11_40_18_518,-12.0,4.0,4.0,1.0,-2.0,2.0,3.0,1.0,0.89697265625,-0.1748046875,0.41357421875,22.073170731707318,60.243902439024396,31.402439024390247
11_40_18_518,0.0,-3.0,0.0,2.0,-2.0,-4.0,-2.0,-3.0,0.95458984375,-0.12451171875,0.40185546875,9.756097560975611,52.5609756097561,30.30487804878049
11_40_18_518,1.0,-9.0,2.0,-4.0,-1.0,-2.0,-3.0,3.0,1.02099609375,-0.103515625,0.39697265625,8.475609756097562,47.01219512195122,28.292682926829272
11_40_18_518,-9.0,-10.0,-1.0,-2.0,-2.0,-1.0,-2.0,3.0,1.0869140625,-0.099609375,0.39697265625,15.060975609756099,38.41463414634147,26.89024390243903
11_40_18_655,6.0,-1.0,-24.0,-6.0,1.0,-1.0,1.0,-2.0,0.9716796875,-0.3193359375,0.47314453125,36.09756097560976,67.6219512195122,18.658536585365855
11_40_18_655,-3.0,5.0,-5.0,2.0,2.0,0.0,-1.0,5.0,0.93603515625,-0.31005859375,0.466796875,33.963414634146346,69.75609756097562,23.53658536585366
11_40_18_655,5.0,1.0,-6.0,-1.0,-4.0,-2.0,1.0,-1.0,0.90185546875,-0.26416015625,0.46435546875,28.475609756097562,70.91463414634147,27.621951219512198
11_40_18_655,-7.0,0.0,6.0,-3.0,-1.0,-2.0,1.0,-2.0,0.890625,-0.208984375,0.42919921875,25.365853658536587,68.84146341463415,29.75609756097561
11_40_18_655,5.0,-6.0,-10.0,-1.0,-2.0,1.0,-4.0,0.0,0.89697265625,-0.1748046875,0.41357421875,22.073170731707318,60.243902439024396,31.402439024390247
11_40_18_655,-1.0,1.0,-1.0,-2.0,-1.0,-2.0,-5.0,-6.0,0.95458984375,-0.12451171875,0.40185546875,9.756097560975611,52.5609756097561,30.30487804878049
11_40_18_655,-12.0,4.0,4.0,1.0,-2.0,2.0,3.0,1.0,1.02099609375,-0.103515625,0.39697265625,8.475609756097562,47.01219512195122,28.292682926829272
11_40_18_655,0.0,-3.0,0.0,2.0,-2.0,-4.0,-2.0,-3.0,1.0869140625,-0.099609375,0.39697265625,15.060975609756099,38.41463414634147,26.89024390243903
11_40_18_712,4.0,-15.0,30.0,-4.0,-4.0,0.0,2.0,-1.0,0.91015625,-0.21240234375,0.43505859375,12.439024390243903,61.524390243902445,10.914634146341465
11_40_18_712,-2.0,-15.0,13.0,-3.0,2.0,1.0,2.0,-1.0,0.97509765625,-0.2587890625,0.44482421875,23.170731707317074,63.10975609756098,12.134146341463415
11_40_18_712,6.0,3.0,-9.0,3.0,1.0,3.0,0.0,-3.0,0.99169921875,-0.2900390625,0.4677734375,31.89024390243903,65.3048780487805,14.573170731707318
11_40_18_712,-10.0,-7.0,4.0,1.0,-1.0,-1.0,-1.0,-5.0,0.9716796875,-0.3193359375,0.47314453125,36.09756097560976,67.6219512195122,18.658536585365855
11_40_18_712,8.0,4.0,5.0,0.0,-3.0,-2.0,2.0,1.0,0.93603515625,-0.31005859375,0.466796875,33.963414634146346,69.75609756097562,23.53658536585366
11_40_18_712,-3.0,4.0,-13.0,-3.0,0.0,-1.0,-1.0,3.0,0.90185546875,-0.26416015625,0.46435546875,28.475609756097562,70.91463414634147,27.621951219512198
11_40_18_712,-5.0,-3.0,10.0,2.0,0.0,2.0,1.0,3.0,0.890625,-0.208984375,0.42919921875,25.365853658536587,68.84146341463415,29.75609756097561
11_40_18_712,0.0,-2.0,5.0,0.0,0.0,-2.0,0.0,0.0,0.89697265625,-0.1748046875,0.41357421875,22.073170731707318,60.243902439024396,31.402439024390247
11_40_18_712,-4.0,0.0,10.0,0.0,-2.0,-5.0,-10.0,0.0,0.95458984375,-0.12451171875,0.40185546875,9.756097560975611,52.5609756097561,30.30487804878049
11_40_18_757,-3.0,2.0,3.0,0.0,-1.0,-2.0,0.0,-4.0,0.99169921875,-0.2900390625,0.4677734375,31.89024390243903,65.3048780487805,14.573170731707318
11_40_18_757,2.0,1.0,6.0,-2.0,0.0,1.0,6.0,12.0,0.9716796875,-0.3193359375,0.47314453125,36.09756097560976,67.6219512195122,18.658536585365855
11_40_18_757,-11.0,4.0,-15.0,0.0,3.0,0.0,1.0,-11.0,0.93603515625,-0.31005859375,0.466796875,33.963414634146346,69.75609756097562,23.53658536585366
11_40_18_757,0.0,-15.0,-5.0,-1.0,-3.0,-5.0,2.0,0.0,0.90185546875,-0.26416015625,0.46435546875,28.475609756097562,70.91463414634147,27.621951219512198
11_40_18_757,-3.0,7.0,0.0,1.0,1.0,0.0,1.0,5.0,0.890625,-0.208984375,0.42919921875,25.365853658536587,68.84146341463415,29.75609756097561
11_40_18_757,-3.0,-14.0,24.0,-5.0,-4.0,-6.0,-5.0,-60.0,0.89697265625,-0.1748046875,0.41357421875,22.073170731707318,60.243902439024396,31.402439024390247
11_40_18_806,-3.0,-15.0,-31.0,-6.0,-2.0,-2.0,-3.0,4.0,0.8154296875,-0.0439453125,0.4775390625,6.219512195121951,-6.707317073170732,-13.78048780487805
11_40_18_806,-3.0,11.0,-17.0,2.0,-1.0,0.0,0.0,-1.0,0.7919921875,-0.0849609375,0.45751953125,8.78048780487805,-7.378048780487806,-12.439024390243903
11_40_18_806,-3.0,-3.0,1.0,-4.0,1.0,-4.0,-2.0,3.0,0.80224609375,-0.11083984375,0.44921875,7.8048780487804885,-4.573170731707317,-9.51219512195122
11_40_18_806,-1.0,11.0,9.0,2.0,-1.0,-4.0,-1.0,4.0,0.814453125,-0.18994140625,0.45703125,7.560975609756098,58.90243902439025,10.365853658536587
11_40_18_806,-7.0,-1.0,-3.0,-4.0,0.0,-2.0,-3.0,-8.0,0.91015625,-0.21240234375,0.43505859375,12.439024390243903,61.524390243902445,10.914634146341465
11_40_18_806,-1.0,-29.0,-56.0,0.0,-2.0,-3.0,0.0,-3.0,0.97509765625,-0.2587890625,0.44482421875,23.170731707317074,63.10975609756098,12.134146341463415
11_40_18_806,3.0,-8.0,8.0,-4.0,-3.0,1.0,1.0,1.0,0.99169921875,-0.2900390625,0.4677734375,31.89024390243903,65.3048780487805,14.573170731707318
11_40_18_806,15.0,14.0,3.0,1.0,2.0,-1.0,-4.0,-3.0,0.9716796875,-0.3193359375,0.47314453125,36.09756097560976,67.6219512195122,18.658536585365855
11_40_18_806,3.0,-1.0,3.0,0.0,2.0,1.0,1.0,1.0,0.93603515625,-0.31005859375,0.466796875,33.963414634146346,69.75609756097562,23.53658536585366
11_40_18_888,1.0,7.0,-22.0,-1.0,-2.0,-2.0,-3.0,-1.0,0.6337890625,0.01123046875,0.54345703125,1.1585365853658538,-26.219512195121954,-15.365853658536587
11_40_18_888,-3.0,5.0,6.0,2.0,2.0,1.0,-1.0,-1.0,0.82275390625,-0.06298828125,0.52392578125,-5.914634146341464,-9.02439024390244,-15.487804878048783
11_40_18_888,-4.0,-5.0,-3.0,2.0,-4.0,-3.0,0.0,-3.0,0.8154296875,-0.0439453125,0.4775390625,6.219512195121951,-6.707317073170732,-13.78048780487805
11_40_18_888,-3.0,-15.0,-31.0,-6.0,-2.0,-2.0,-3.0,4.0,0.7919921875,-0.0849609375,0.45751953125,8.78048780487805,-7.378048780487806,-12.439024390243903
11_40_18_888,-3.0,11.0,-17.0,2.0,-1.0,0.0,0.0,-1.0,0.80224609375,-0.11083984375,0.44921875,7.8048780487804885,-4.573170731707317,-9.51219512195122
11_40_18_888,-3.0,-3.0,1.0,-4.0,1.0,-4.0,-2.0,3.0,0.814453125,-0.18994140625,0.45703125,7.560975609756098,58.90243902439025,10.365853658536587
11_40_18_888,-1.0,11.0,9.0,2.0,-1.0,-4.0,-1.0,4.0,0.91015625,-0.21240234375,0.43505859375,12.439024390243903,61.524390243902445,10.914634146341465
11_40_18_888,-7.0,-1.0,-3.0,-4.0,0.0,-2.0,-3.0,-8.0,0.97509765625,-0.2587890625,0.44482421875,23.170731707317074,63.10975609756098,12.134146341463415
11_40_18_888,-1.0,-29.0,-56.0,0.0,-2.0,-3.0,0.0,-3.0,0.99169921875,-0.2900390625,0.4677734375,31.89024390243903,65.3048780487805,14.573170731707318
11_40_18_888,3.0,-8.0,8.0,-4.0,-3.0,1.0,1.0,1.0,0.9716796875,-0.3193359375,0.47314453125,36.09756097560976,67.6219512195122,18.658536585365855
11_40_18_927,14.0,1.0,0.0,-3.0,2.0,1.0,3.0,-1.0,0.720703125,0.05029296875,0.51513671875,-20.426829268292686,-29.146341463414636,0.0
11_40_18_927,-3.0,2.0,-3.0,3.0,-1.0,-1.0,0.0,0.0,0.7607421875,0.0341796875,0.525390625,-20.853658536585368,-29.573170731707318,1.2804878048780488
11_40_18_927,0.0,-2.0,4.0,-3.0,-1.0,0.0,3.0,-1.0,0.7138671875,0.046875,0.5,-2.6219512195121952,-28.353658536585368,-7.378048780487806
11_40_18_927,-3.0,5.0,4.0,-1.0,2.0,-2.0,0.0,0.0,0.63427734375,0.0380859375,0.52490234375,0.6097560975609757,-27.378048780487806,-12.926829268292684
11_40_18_927,-1.0,1.0,36.0,-5.0,-2.0,-2.0,-3.0,-2.0,0.6337890625,0.01123046875,0.54345703125,1.1585365853658538,-26.219512195121954,-15.365853658536587
11_40_18_927,-3.0,0.0,-6.0,1.0,0.0,0.0,-2.0,-1.0,0.82275390625,-0.06298828125,0.52392578125,-5.914634146341464,-9.02439024390244,-15.487804878048783
11_40_18_927,-2.0,-14.0,-4.0,-5.0,-4.0,-2.0,-3.0,0.0,0.8154296875,-0.0439453125,0.4775390625,6.219512195121951,-6.707317073170732,-13.78048780487805
11_40_18_927,-6.0,4.0,2.0,-1.0,-1.0,1.0,-1.0,-3.0,0.7919921875,-0.0849609375,0.45751953125,8.78048780487805,-7.378048780487806,-12.439024390243903
11_40_18_927,-3.0,8.0,12.0,4.0,1.0,-1.0,1.0,-5.0,0.80224609375,-0.11083984375,0.44921875,7.8048780487804885,-4.573170731707317,-9.51219512195122
11_40_18_927,6.0,-5.0,12.0,-1.0,-3.0,-1.0,2.0,0.0,0.814453125,-0.18994140625,0.45703125,7.560975609756098,58.90243902439025,10.365853658536587
11_40_18_986,-4.0,4.0,10.0,7.0,2.0,-3.0,-1.0,2.0,0.720703125,0.05029296875,0.51513671875,-20.426829268292686,-29.146341463414636,0.0
11_40_18_986,-16.0,18.0,1.0,4.0,2.0,1.0,1.0,4.0,0.7607421875,0.0341796875,0.525390625,-20.853658536585368,-29.573170731707318,1.2804878048780488
11_40_18_986,-8.0,-24.0,2.0,-2.0,-7.0,-3.0,0.0,-6.0,0.7138671875,0.046875,0.5,-2.6219512195121952,-28.353658536585368,-7.378048780487806
11_40_18_986,0.0,9.0,2.0,0.0,-3.0,1.0,-2.0,0.0,0.63427734375,0.0380859375,0.52490234375,0.6097560975609757,-27.378048780487806,-12.926829268292684
11_40_18_986,4.0,3.0,-6.0,-1.0,-2.0,0.0,-1.0,1.0,0.6337890625,0.01123046875,0.54345703125,1.1585365853658538,-26.219512195121954,-15.365853658536587
11_40_18_986,5.0,-5.0,9.0,1.0,1.0,-1.0,0.0,-1.0,0.82275390625,-0.06298828125,0.52392578125,-5.914634146341464,-9.02439024390244,-15.487804878048783
11_40_18_986,14.0,1.0,0.0,-3.0,2.0,1.0,3.0,-1.0,0.8154296875,-0.0439453125,0.4775390625,6.219512195121951,-6.707317073170732,-13.78048780487805
11_40_18_986,-3.0,2.0,-3.0,3.0,-1.0,-1.0,0.0,0.0,0.7919921875,-0.0849609375,0.45751953125,8.78048780487805,-7.378048780487806,-12.439024390243903
11_40_19_039,6.0,-5.0,0.0,-3.0,5.0,3.0,2.0,2.0,0.7666015625,-0.0361328125,0.470703125,-2.804878048780488,-26.951219512195124,13.475609756097562
11_40_19_039,2.0,1.0,-1.0,2.0,0.0,-3.0,-2.0,-9.0,0.71728515625,-0.01513671875,0.5,-18.29268292682927,-26.158536585365855,7.01219512195122
11_40_19_039,-2.0,-7.0,-3.0,1.0,-1.0,-1.0,0.0,6.0,0.7236328125,0.009765625,0.5205078125,-25.914634146341466,-26.58536585365854,3.231707317073171
11_40_19_039,-4.0,6.0,-3.0,-4.0,0.0,-2.0,-3.0,0.0,0.69921875,0.05322265625,0.52294921875,-26.158536585365855,-27.926829268292686,0.9146341463414634
11_40_19_039,2.0,-14.0,-4.0,1.0,-2.0,-3.0,2.0,3.0,0.720703125,0.05029296875,0.51513671875,-20.426829268292686,-29.146341463414636,0.0
11_40_19_039,0.0,-11.0,0.0,4.0,1.0,-2.0,-2.0,-2.0,0.7607421875,0.0341796875,0.525390625,-20.853658536585368,-29.573170731707318,1.2804878048780488
11_40_19_039,-1.0,-5.0,3.0,3.0,-4.0,-1.0,1.0,-1.0,0.7138671875,0.046875,0.5,-2.6219512195121952,-28.353658536585368,-7.378048780487806
11_40_19_039,2.0,19.0,-7.0,-4.0,0.0,0.0,1.0,-1.0,0.63427734375,0.0380859375,0.52490234375,0.6097560975609757,-27.378048780487806,-12.926829268292684
11_40_19_039,-25.0,-16.0,2.0,-2.0,1.0,1.0,-4.0,-3.0,0.6337890625,0.01123046875,0.54345703125,1.1585365853658538,-26.219512195121954,-15.365853658536587
11_40_19_039,4.0,30.0,-6.0,-3.0,-3.0,-2.0,2.0,0.0,0.82275390625,-0.06298828125,0.52392578125,-5.914634146341464,-9.02439024390244,-15.487804878048783
11_40_19_087,7.0,-5.0,-1.0,-1.0,-4.0,-2.0,-3.0,7.0,0.91943359375,-0.0029296875,0.47412109375,14.02439024390244,-18.658536585365855,22.31707317073171
11_40_19_087,1.0,0.0,2.0,1.0,-2.0,1.0,0.0,1.0,0.89404296875,-0.029296875,0.46533203125,11.707317073170733,-21.707317073170735,20.426829268292686
11_40_19_087,3.0,2.0,-5.0,-3.0,1.0,0.0,2.0,1.0,0.85546875,-0.02880859375,0.45654296875,7.317073170731708,-24.512195121951223,17.31707317073171
11_40_19_087,2.0,-1.0,3.0,-1.0,2.0,1.0,-5.0,-4.0,0.7666015625,-0.0361328125,0.470703125,-2.804878048780488,-26.951219512195124,13.475609756097562
11_40_19_087,7.0,-2.0,-40.0,2.0,0.0,0.0,0.0,-1.0,0.71728515625,-0.01513671875,0.5,-18.29268292682927,-26.158536585365855,7.01219512195122
11_40_19_087,-17.0,5.0,1.0,-3.0,-2.0,-3.0,-1.0,-5.0,0.7236328125,0.009765625,0.5205078125,-25.914634146341466,-26.58536585365854,3.231707317073171
11_40_19_087,-3.0,-10.0,-6.0,2.0,3.0,1.0,-1.0,3.0,0.69921875,0.05322265625,0.52294921875,-26.158536585365855,-27.926829268292686,0.9146341463414634
11_40_19_087,6.0,-13.0,-9.0,-2.0,-6.0,-4.0,3.0,-1.0,0.720703125,0.05029296875,0.51513671875,-20.426829268292686,-29.146341463414636,0.0
11_40_19_087,-7.0,11.0,4.0,-4.0,-2.0,0.0,-1.0,5.0,0.7607421875,0.0341796875,0.525390625,-20.853658536585368,-29.573170731707318,1.2804878048780488
11_40_19_160,4.0,-1.0,-4.0,-1.0,4.0,4.0,3.0,12.0,0.89501953125,-0.0224609375,0.48486328125,7.560975609756098,-16.219512195121954,24.207317073170735
11_40_19_160,1.0,5.0,-3.0,-1.0,3.0,3.0,-4.0,-6.0,0.91943359375,-0.0029296875,0.47412109375,14.02439024390244,-18.658536585365855,22.31707317073171
11_40_19_160,-30.0,-7.0,1.0,-5.0,-3.0,-6.0,-2.0,-18.0,0.89404296875,-0.029296875,0.46533203125,11.707317073170733,-21.707317073170735,20.426829268292686
11_40_19_160,7.0,-5.0,-1.0,-1.0,-4.0,-2.0,-3.0,7.0,0.85546875,-0.02880859375,0.45654296875,7.317073170731708,-24.512195121951223,17.31707317073171
11_40_19_160,1.0,0.0,2.0,1.0,-2.0,1.0,0.0,1.0,0.7666015625,-0.0361328125,0.470703125,-2.804878048780488,-26.951219512195124,13.475609756097562
11_40_19_160,3.0,2.0,-5.0,-3.0,1.0,0.0,2.0,1.0,0.71728515625,-0.01513671875,0.5,-18.29268292682927,-26.158536585365855,7.01219512195122
11_40_19_160,2.0,-1.0,3.0,-1.0,2.0,1.0,-5.0,-4.0,0.7236328125,0.009765625,0.5205078125,-25.914634146341466,-26.58536585365854,3.231707317073171
11_40_19_160,7.0,-2.0,-40.0,2.0,0.0,0.0,0.0,-1.0,0.69921875,0.05322265625,0.52294921875,-26.158536585365855,-27.926829268292686,0.9146341463414634
11_40_19_160,-17.0,5.0,1.0,-3.0,-2.0,-3.0,-1.0,-5.0,0.720703125,0.05029296875,0.51513671875,-20.426829268292686,-29.146341463414636,0.0
11_40_19_160,-3.0,-10.0,-6.0,2.0,3.0,1.0,-1.0,3.0,0.7607421875,0.0341796875,0.525390625,-20.853658536585368,-29.573170731707318,1.2804878048780488
11_40_19_206,1.0,-5.0,35.0,4.0,-2.0,-2.0,1.0,11.0,0.9189453125,-0.08447265625,0.49560546875,-17.98780487804878,-14.695121951219514,27.439024390243905
11_40_19_206,8.0,-1.0,10.0,-8.0,-10.0,-7.0,-3.0,1.0,0.8916015625,-0.0341796875,0.4755859375,-5.3048780487804885,-12.74390243902439,25.731707317073173
11_40_19_206,-16.0,-13.0,6.0,1.0,2.0,3.0,-2.0,-1.0,0.89501953125,-0.0224609375,0.48486328125,7.560975609756098,-16.219512195121954,24.207317073170735
11_40_19_206,9.0,1.0,2.0,0.0,6.0,5.0,4.0,1.0,0.91943359375,-0.0029296875,0.47412109375,14.02439024390244,-18.658536585365855,22.31707317073171
11_40_19_206,2.0,-3.0,2.0,-3.0,0.0,-3.0,-6.0,10.0,0.89404296875,-0.029296875,0.46533203125,11.707317073170733,-21.707317073170735,20.426829268292686
11_40_19_206,1.0,3.0,-4.0,1.0,-7.0,-6.0,-2.0,-22.0,0.85546875,-0.02880859375,0.45654296875,7.317073170731708,-24.512195121951223,17.31707317073171
11_40_19_206,4.0,0.0,0.0,-5.0,-1.0,1.0,1.0,1.0,0.7666015625,-0.0361328125,0.470703125,-2.804878048780488,-26.951219512195124,13.475609756097562
11_40_19_206,-6.0,-7.0,-2.0,1.0,-3.0,-3.0,1.0,4.0,0.71728515625,-0.01513671875,0.5,-18.29268292682927,-26.158536585365855,7.01219512195122
11_40_19_206,4.0,-1.0,-4.0,-1.0,4.0,4.0,3.0,12.0,0.7236328125,0.009765625,0.5205078125,-25.914634146341466,-26.58536585365854,3.231707317073171
11_40_19_206,1.0,5.0,-3.0,-1.0,3.0,3.0,-4.0,-6.0,0.69921875,0.05322265625,0.52294921875,-26.158536585365855,-27.926829268292686,0.9146341463414634
11_40_19_274,2.0,7.0,-6.0,-6.0,-2.0,-4.0,1.0,-2.0,0.92529296875,-0.2255859375,0.505859375,-7.682926829268293,-23.475609756097562,21.158536585365855
11_40_19_274,6.0,-16.0,0.0,3.0,-3.0,-1.0,0.0,11.0,0.9189453125,-0.08447265625,0.49560546875,-17.98780487804878,-14.695121951219514,27.439024390243905
11_40_19_274,1.0,-5.0,35.0,4.0,-2.0,-2.0,1.0,11.0,0.8916015625,-0.0341796875,0.4755859375,-5.3048780487804885,-12.74390243902439,25.731707317073173
11_40_19_274,8.0,-1.0,10.0,-8.0,-10.0,-7.0,-3.0,1.0,0.89501953125,-0.0224609375,0.48486328125,7.560975609756098,-16.219512195121954,24.207317073170735
11_40_19_274,-16.0,-13.0,6.0,1.0,2.0,3.0,-2.0,-1.0,0.91943359375,-0.0029296875,0.47412109375,14.02439024390244,-18.658536585365855,22.31707317073171
11_40_19_274,9.0,1.0,2.0,0.0,6.0,5.0,4.0,1.0,0.89404296875,-0.029296875,0.46533203125,11.707317073170733,-21.707317073170735,20.426829268292686
11_40_19_274,2.0,-3.0,2.0,-3.0,0.0,-3.0,-6.0,10.0,0.85546875,-0.02880859375,0.45654296875,7.317073170731708,-24.512195121951223,17.31707317073171
11_40_19_274,1.0,3.0,-4.0,1.0,-7.0,-6.0,-2.0,-22.0,0.7666015625,-0.0361328125,0.470703125,-2.804878048780488,-26.951219512195124,13.475609756097562
11_40_19_274,4.0,0.0,0.0,-5.0,-1.0,1.0,1.0,1.0,0.71728515625,-0.01513671875,0.5,-18.29268292682927,-26.158536585365855,7.01219512195122
11_40_19_274,-6.0,-7.0,-2.0,1.0,-3.0,-3.0,1.0,4.0,0.7236328125,0.009765625,0.5205078125,-25.914634146341466,-26.58536585365854,3.231707317073171
11_40_19_319,-1.0,5.0,18.0,3.0,-15.0,-2.0,4.0,8.0,0.9033203125,-0.1884765625,0.51953125,4.51219512195122,-25.121951219512198,17.012195121951223
11_40_19_319,-2.0,-1.0,-11.0,-12.0,-13.0,-4.0,-3.0,3.0,0.92529296875,-0.2255859375,0.505859375,-7.682926829268293,-23.475609756097562,21.158536585365855
11_40_19_319,11.0,1.0,-1.0,-5.0,-8.0,-16.0,-3.0,2.0,0.9189453125,-0.08447265625,0.49560546875,-17.98780487804878,-14.695121951219514,27.439024390243905
11_40_19_319,8.0,0.0,-41.0,-8.0,2.0,-2.0,-1.0,9.0,0.8916015625,-0.0341796875,0.4755859375,-5.3048780487804885,-12.74390243902439,25.731707317073173
11_40_19_319,2.0,0.0,-2.0,-7.0,-17.0,-6.0,0.0,3.0,0.89501953125,-0.0224609375,0.48486328125,7.560975609756098,-16.219512195121954,24.207317073170735
11_40_19_319,2.0,7.0,-6.0,-6.0,-2.0,-4.0,1.0,-2.0,0.91943359375,-0.0029296875,0.47412109375,14.02439024390244,-18.658536585365855,22.31707317073171
11_40_19_319,6.0,-16.0,0.0,3.0,-3.0,-1.0,0.0,11.0,0.89404296875,-0.029296875,0.46533203125,11.707317073170733,-21.707317073170735,20.426829268292686
11_40_19_319,1.0,-5.0,35.0,4.0,-2.0,-2.0,1.0,11.0,0.85546875,-0.02880859375,0.45654296875,7.317073170731708,-24.512195121951223,17.31707317073171
11_40_19_319,8.0,-1.0,10.0,-8.0,-10.0,-7.0,-3.0,1.0,0.7666015625,-0.0361328125,0.470703125,-2.804878048780488,-26.951219512195124,13.475609756097562
11_40_19_368,-7.0,57.0,0.0,-3.0,-6.0,3.0,-2.0,0.0,0.814453125,-0.2236328125,0.38623046875,-5.853658536585367,-7.987804878048781,7.560975609756098
11_40_19_368,-11.0,12.0,12.0,9.0,11.0,-6.0,-10.0,-5.0,0.88232421875,-0.1728515625,0.427734375,4.2682926829268295,-10.548780487804878,10.609756097560977
11_40_19_368,4.0,20.0,-19.0,23.0,31.0,6.0,10.0,14.0,0.90478515625,-0.2265625,0.42236328125,-6.7682926829268295,-14.329268292682928,15.975609756097562
11_40_19_368,7.0,0.0,10.0,-16.0,-9.0,15.0,9.0,5.0,0.89990234375,-0.12109375,0.41748046875,-8.353658536585366,-16.34146341463415,12.560975609756099
11_40_19_368,-2.0,-2.0,1.0,9.0,-48.0,-14.0,-20.0,-7.0,0.8798828125,-0.1435546875,0.47900390625,-2.378048780487805,-22.926829268292686,19.32926829268293
11_40_19_368,-16.0,-9.0,20.0,1.0,-17.0,7.0,7.0,9.0,0.9033203125,-0.1884765625,0.51953125,4.51219512195122,-25.121951219512198,17.012195121951223
11_40_19_368,-13.0,4.0,-4.0,-20.0,-56.0,-8.0,2.0,4.0,0.92529296875,-0.2255859375,0.505859375,-7.682926829268293,-23.475609756097562,21.158536585365855
11_40_19_368,5.0,1.0,29.0,10.0,7.0,1.0,4.0,6.0,0.9189453125,-0.08447265625,0.49560546875,-17.98780487804878,-14.695121951219514,27.439024390243905
11_40_19_368,-7.0,20.0,-11.0,33.0,63.0,16.0,2.0,-2.0,0.8916015625,-0.0341796875,0.4755859375,-5.3048780487804885,-12.74390243902439,25.731707317073173
11_40_19_368,5.0,-29.0,100.0,-18.0,2.0,5.0,0.0,-1.0,0.89501953125,-0.0224609375,0.48486328125,7.560975609756098,-16.219512195121954,24.207317073170735
11_40_19_406,-3.0,14.0,7.0,65.0,47.0,1.0,9.0,8.0,0.8388671875,-0.24169921875,0.36376953125,-1.7682926829268295,-7.317073170731708,6.951219512195123
11_40_19_406,-1.0,-5.0,-13.0,-41.0,24.0,6.0,-1.0,-10.0,0.814453125,-0.2236328125,0.38623046875,-5.853658536585367,-7.987804878048781,7.560975609756098
11_40_19_406,7.0,-35.0,18.0,-20.0,-69.0,-14.0,1.0,-8.0,0.88232421875,-0.1728515625,0.427734375,4.2682926829268295,-10.548780487804878,10.609756097560977
11_40_19_406,-12.0,-11.0,33.0,-14.0,-45.0,-16.0,-3.0,-7.0,0.90478515625,-0.2265625,0.42236328125,-6.7682926829268295,-14.329268292682928,15.975609756097562
11_40_19_406,-9.0,46.0,17.0,14.0,-1.0,3.0,2.0,10.0,0.89990234375,-0.12109375,0.41748046875,-8.353658536585366,-16.34146341463415,12.560975609756099
11_40_19_406,-15.0,12.0,-13.0,70.0,101.0,2.0,-5.0,4.0,0.8798828125,-0.1435546875,0.47900390625,-2.378048780487805,-22.926829268292686,19.32926829268293
11_40_19_406,14.0,-28.0,2.0,-44.0,-60.0,18.0,17.0,4.0,0.9033203125,-0.1884765625,0.51953125,4.51219512195122,-25.121951219512198,17.012195121951223
11_40_19_406,5.0,-33.0,7.0,-27.0,-55.0,-12.0,4.0,1.0,0.92529296875,-0.2255859375,0.505859375,-7.682926829268293,-23.475609756097562,21.158536585365855
11_40_19_406,-7.0,57.0,0.0,-3.0,-6.0,3.0,-2.0,0.0,0.9189453125,-0.08447265625,0.49560546875,-17.98780487804878,-14.695121951219514,27.439024390243905
11_40_19_406,-11.0,12.0,12.0,9.0,11.0,-6.0,-10.0,-5.0,0.8916015625,-0.0341796875,0.4755859375,-5.3048780487804885,-12.74390243902439,25.731707317073173
11_40_19_485,-9.0,7.0,12.0,-26.0,4.0,1.0,-2.0,3.0,0.91259765625,-0.19677734375,0.35205078125,2.378048780487805,-3.414634146341464,8.353658536585366
11_40_19_485,12.0,-18.0,36.0,21.0,5.0,-7.0,-12.0,-9.0,0.8388671875,-0.24169921875,0.36376953125,-1.7682926829268295,-7.317073170731708,6.951219512195123
11_40_19_485,-3.0,14.0,7.0,65.0,47.0,1.0,9.0,8.0,0.814453125,-0.2236328125,0.38623046875,-5.853658536585367,-7.987804878048781,7.560975609756098
11_40_19_485,-1.0,-5.0,-13.0,-41.0,24.0,6.0,-1.0,-10.0,0.88232421875,-0.1728515625,0.427734375,4.2682926829268295,-10.548780487804878,10.609756097560977
11_40_19_485,7.0,-35.0,18.0,-20.0,-69.0,-14.0,1.0,-8.0,0.90478515625,-0.2265625,0.42236328125,-6.7682926829268295,-14.329268292682928,15.975609756097562
11_40_19_485,-12.0,-11.0,33.0,-14.0,-45.0,-16.0,-3.0,-7.0,0.89990234375,-0.12109375,0.41748046875,-8.353658536585366,-16.34146341463415,12.560975609756099
11_40_19_485,-9.0,46.0,17.0,14.0,-1.0,3.0,2.0,10.0,0.8798828125,-0.1435546875,0.47900390625,-2.378048780487805,-22.926829268292686,19.32926829268293
11_40_19_485,-15.0,12.0,-13.0,70.0,101.0,2.0,-5.0,4.0,0.9033203125,-0.1884765625,0.51953125,4.51219512195122,-25.121951219512198,17.012195121951223
11_40_19_485,14.0,-28.0,2.0,-44.0,-60.0,18.0,17.0,4.0,0.92529296875,-0.2255859375,0.505859375,-7.682926829268293,-23.475609756097562,21.158536585365855
11_40_19_485,5.0,-33.0,7.0,-27.0,-55.0,-12.0,4.0,1.0,0.9189453125,-0.08447265625,0.49560546875,-17.98780487804878,-14.695121951219514,27.439024390243905
11_40_19_518,7.0,-10.0,-7.0,82.0,54.0,33.0,20.0,18.0,0.861328125,-0.27392578125,0.5,-8.658536585365855,4.451219512195122,4.939024390243903
11_40_19_518,5.0,-4.0,24.0,-67.0,91.0,-2.0,-7.0,-17.0,0.81884765625,-0.30224609375,0.521484375,-9.146341463414634,3.658536585365854,6.341463414634147
11_40_19_518,-24.0,-13.0,-25.0,-22.0,-95.0,-31.0,-20.0,-28.0,0.837890625,-0.25390625,0.43310546875,-1.524390243902439,5.060975609756098,10.731707317073171
11_40_19_518,8.0,-2.0,7.0,-15.0,-46.0,-9.0,9.0,10.0,0.9248046875,-0.2373046875,0.36328125,0.12195121951219513,1.707317073170732,10.792682926829269
11_40_19_518,11.0,-6.0,29.0,19.0,2.0,20.0,10.0,-2.0,0.91259765625,-0.19677734375,0.35205078125,2.378048780487805,-3.414634146341464,8.353658536585366
11_40_19_518,11.0,-2.0,10.0,-44.0,2.0,-12.0,7.0,4.0,0.8388671875,-0.24169921875,0.36376953125,-1.7682926829268295,-7.317073170731708,6.951219512195123
11_40_19_518,-33.0,-12.0,3.0,-12.0,-54.0,-17.0,-23.0,-42.0,0.814453125,-0.2236328125,0.38623046875,-5.853658536585367,-7.987804878048781,7.560975609756098
11_40_19_518,-32.0,4.0,-24.0,-17.0,-32.0,-10.0,-14.0,-23.0,0.88232421875,-0.1728515625,0.427734375,4.2682926829268295,-10.548780487804878,10.609756097560977
11_40_19_518,9.0,3.0,3.0,65.0,16.0,3.0,9.0,10.0,0.90478515625,-0.2265625,0.42236328125,-6.7682926829268295,-14.329268292682928,15.975609756097562
11_40_19_518,8.0,-26.0,16.0,-68.0,-19.0,-4.0,-3.0,-11.0,0.89990234375,-0.12109375,0.41748046875,-8.353658536585366,-16.34146341463415,12.560975609756099
11_40_19_571,-6.0,-37.0,14.0,-48.0,72.0,19.0,6.0,3.0,0.8271484375,-0.17822265625,0.47021484375,-7.621951219512196,4.390243902439025,2.5
11_40_19_571,11.0,5.0,1.0,4.0,-115.0,-30.0,1.0,-8.0,0.861328125,-0.27392578125,0.5,-8.658536585365855,4.451219512195122,4.939024390243903
11_40_19_571,7.0,-10.0,-7.0,82.0,54.0,33.0,20.0,18.0,0.81884765625,-0.30224609375,0.521484375,-9.146341463414634,3.658536585365854,6.341463414634147
11_40_19_571,5.0,-4.0,24.0,-67.0,91.0,-2.0,-7.0,-17.0,0.837890625,-0.25390625,0.43310546875,-1.524390243902439,5.060975609756098,10.731707317073171
11_40_19_571,-24.0,-13.0,-25.0,-22.0,-95.0,-31.0,-20.0,-28.0,0.9248046875,-0.2373046875,0.36328125,0.12195121951219513,1.707317073170732,10.792682926829269
11_40_19_571,8.0,-2.0,7.0,-15.0,-46.0,-9.0,9.0,10.0,0.91259765625,-0.19677734375,0.35205078125,2.378048780487805,-3.414634146341464,8.353658536585366
11_40_19_571,11.0,-6.0,29.0,19.0,2.0,20.0,10.0,-2.0,0.8388671875,-0.24169921875,0.36376953125,-1.7682926829268295,-7.317073170731708,6.951219512195123
11_40_19_571,11.0,-2.0,10.0,-44.0,2.0,-12.0,7.0,4.0,0.814453125,-0.2236328125,0.38623046875,-5.853658536585367,-7.987804878048781,7.560975609756098
11_40_19_571,-33.0,-12.0,3.0,-12.0,-54.0,-17.0,-23.0,-42.0,0.88232421875,-0.1728515625,0.427734375,4.2682926829268295,-10.548780487804878,10.609756097560977
11_40_19_571,-32.0,4.0,-24.0,-17.0,-32.0,-10.0,-14.0,-23.0,0.90478515625,-0.2265625,0.42236328125,-6.7682926829268295,-14.329268292682928,15.975609756097562
11_40_19_635,15.0,-5.0,-13.0,14.0,26.0,11.0,31.0,14.0,0.84130859375,-0.18505859375,0.5185546875,-11.707317073170733,2.8658536585365857,0.3658536585365854
11_40_19_635,-6.0,19.0,24.0,62.0,31.0,16.0,21.0,12.0,0.8271484375,-0.17822265625,0.47021484375,-7.621951219512196,4.390243902439025,2.5
11_40_19_635,-6.0,-37.0,14.0,-48.0,72.0,19.0,6.0,3.0,0.861328125,-0.27392578125,0.5,-8.658536585365855,4.451219512195122,4.939024390243903
11_40_19_635,11.0,5.0,1.0,4.0,-115.0,-30.0,1.0,-8.0,0.81884765625,-0.30224609375,0.521484375,-9.146341463414634,3.658536585365854,6.341463414634147
11_40_19_635,7.0,-10.0,-7.0,82.0,54.0,33.0,20.0,18.0,0.837890625,-0.25390625,0.43310546875,-1.524390243902439,5.060975609756098,10.731707317073171
11_40_19_635,5.0,-4.0,24.0,-67.0,91.0,-2.0,-7.0,-17.0,0.9248046875,-0.2373046875,0.36328125,0.12195121951219513,1.707317073170732,10.792682926829269
11_40_19_635,-24.0,-13.0,-25.0,-22.0,-95.0,-31.0,-20.0,-28.0,0.91259765625,-0.19677734375,0.35205078125,2.378048780487805,-3.414634146341464,8.353658536585366
11_40_19_635,8.0,-2.0,7.0,-15.0,-46.0,-9.0,9.0,10.0,0.8388671875,-0.24169921875,0.36376953125,-1.7682926829268295,-7.317073170731708,6.951219512195123
11_40_19_635,11.0,-6.0,29.0,19.0,2.0,20.0,10.0,-2.0,0.814453125,-0.2236328125,0.38623046875,-5.853658536585367,-7.987804878048781,7.560975609756098
11_40_19_635,11.0,-2.0,10.0,-44.0,2.0,-12.0,7.0,4.0,0.88232421875,-0.1728515625,0.427734375,4.2682926829268295,-10.548780487804878,10.609756097560977
11_40_19_668,1.0,18.0,36.0,-26.0,-43.0,-19.0,1.0,7.0,0.8310546875,-0.2666015625,0.474609375,-3.414634146341464,1.0365853658536586,0.9146341463414634
11_40_19_668,-3.0,64.0,-20.0,33.0,-10.0,-22.0,-28.0,9.0,0.8388671875,-0.185546875,0.466796875,5.487804878048781,0.426829268292683,2.5
11_40_19_668,1.0,49.0,16.0,113.0,127.0,29.0,7.0,13.0,0.8828125,-0.29541015625,0.41552734375,-11.76829268292683,4.024390243902439,0.30487804878048785
11_40_19_668,5.0,-16.0,5.0,-19.0,-128.0,-39.0,-11.0,-8.0,0.81005859375,-0.20166015625,0.521484375,-4.695121951219512,0.9756097560975611,-3.353658536585366
11_40_19_668,4.0,-42.0,4.0,48.0,48.0,-3.0,-1.0,-9.0,0.84130859375,-0.18505859375,0.5185546875,-11.707317073170733,2.8658536585365857,0.3658536585365854
11_40_19_668,6.0,-31.0,31.0,-72.0,-44.0,-6.0,8.0,-3.0,0.8271484375,-0.17822265625,0.47021484375,-7.621951219512196,4.390243902439025,2.5
11_40_19_668,-5.0,37.0,12.0,69.0,127.0,31.0,13.0,3.0,0.861328125,-0.27392578125,0.5,-8.658536585365855,4.451219512195122,4.939024390243903
11_40_19_668,10.0,-53.0,32.0,-25.0,-128.0,-64.0,-2.0,-7.0,0.81884765625,-0.30224609375,0.521484375,-9.146341463414634,3.658536585365854,6.341463414634147
11_40_19_668,6.0,-27.0,20.0,-98.0,102.0,-12.0,1.0,-11.0,0.837890625,-0.25390625,0.43310546875,-1.524390243902439,5.060975609756098,10.731707317073171
11_40_19_668,-1.0,-6.0,67.0,10.0,-57.0,-13.0,-1.0,-8.0,0.9248046875,-0.2373046875,0.36328125,0.12195121951219513,1.707317073170732,10.792682926829269
11_40_19_733,-14.0,47.0,-20.0,127.0,127.0,23.0,29.0,16.0,0.8310546875,-0.2666015625,0.474609375,-3.414634146341464,1.0365853658536586,0.9146341463414634
11_40_19_733,33.0,-40.0,7.0,-34.0,127.0,-128.0,16.0,-12.0,0.8388671875,-0.185546875,0.466796875,5.487804878048781,0.426829268292683,2.5
11_40_19_733,-6.0,-14.0,14.0,-24.0,-128.0,-61.0,-8.0,-11.0,0.8828125,-0.29541015625,0.41552734375,-11.76829268292683,4.024390243902439,0.30487804878048785
11_40_19_733,3.0,-12.0,-71.0,9.0,-36.0,1.0,1.0,-4.0,0.81005859375,-0.20166015625,0.521484375,-4.695121951219512,0.9756097560975611,-3.353658536585366
11_40_19_733,1.0,18.0,36.0,-26.0,-43.0,-19.0,1.0,7.0,0.84130859375,-0.18505859375,0.5185546875,-11.707317073170733,2.8658536585365857,0.3658536585365854
11_40_19_733,-3.0,64.0,-20.0,33.0,-10.0,-22.0,-28.0,9.0,0.8271484375,-0.17822265625,0.47021484375,-7.621951219512196,4.390243902439025,2.5
11_40_19_733,1.0,49.0,16.0,113.0,127.0,29.0,7.0,13.0,0.861328125,-0.27392578125,0.5,-8.658536585365855,4.451219512195122,4.939024390243903
11_40_19_733,5.0,-16.0,5.0,-19.0,-128.0,-39.0,-11.0,-8.0,0.81884765625,-0.30224609375,0.521484375,-9.146341463414634,3.658536585365854,6.341463414634147
11_40_19_733,4.0,-42.0,4.0,48.0,48.0,-3.0,-1.0,-9.0,0.837890625,-0.25390625,0.43310546875,-1.524390243902439,5.060975609756098,10.731707317073171
11_40_19_733,6.0,-31.0,31.0,-72.0,-44.0,-6.0,8.0,-3.0,0.9248046875,-0.2373046875,0.36328125,0.12195121951219513,1.707317073170732,10.792682926829269
11_40_19_771,4.0,3.0,73.0,72.0,46.0,-7.0,3.0,13.0,0.69775390625,-0.30419921875,0.5068359375,-5.426829268292684,2.987804878048781,-3.048780487804878
11_40_19_771,-16.0,53.0,13.0,61.0,113.0,-14.0,-18.0,-3.0,0.78173828125,-0.27880859375,0.50537109375,-19.146341463414636,8.536585365853659,-2.378048780487805
11_40_19_771,20.0,-43.0,-14.0,-33.0,77.0,68.0,27.0,-6.0,0.85546875,-0.23828125,0.4892578125,-14.146341463414636,6.158536585365854,0.12195121951219513
11_40_19_771,6.0,-38.0,0.0,-82.0,-128.0,-44.0,-17.0,-49.0,0.8701171875,-0.23876953125,0.43798828125,-9.085365853658537,4.51219512195122,1.2804878048780488
11_40_19_771,-9.0,-4.0,30.0,-56.0,-50.0,-9.0,50.0,14.0,0.880859375,-0.26318359375,0.48388671875,-1.4634146341463417,0.5487804878048781,2.7439024390243905
11_40_19_771,9.0,16.0,32.0,-75.0,-121.0,8.0,-128.0,-26.0,0.8310546875,-0.2666015625,0.474609375,-3.414634146341464,1.0365853658536586,0.9146341463414634
11_40_19_771,-50.0,71.0,-60.0,116.0,-46.0,-5.0,16.0,23.0,0.8388671875,-0.185546875,0.466796875,5.487804878048781,0.426829268292683,2.5
11_40_19_771,9.0,43.0,25.0,127.0,127.0,-128.0,28.0,29.0,0.8828125,-0.29541015625,0.41552734375,-11.76829268292683,4.024390243902439,0.30487804878048785
11_40_19_771,27.0,-61.0,39.0,-31.0,-128.0,20.0,8.0,-11.0,0.81005859375,-0.20166015625,0.521484375,-4.695121951219512,0.9756097560975611,-3.353658536585366
11_40_19_771,-3.0,14.0,11.0,-17.0,-128.0,-83.0,-1.0,9.0,0.84130859375,-0.18505859375,0.5185546875,-11.707317073170733,2.8658536585365857,0.3658536585365854
11_40_19_825,-20.0,51.0,14.0,30.0,-103.0,40.0,9.0,20.0,0.7646484375,-0.1796875,0.3701171875,3.048780487804878,-3.5975609756097566,-1.829268292682927
11_40_19_825,-8.0,31.0,19.0,70.0,127.0,-58.0,7.0,16.0,0.69775390625,-0.30419921875,0.5068359375,-5.426829268292684,2.987804878048781,-3.048780487804878
11_40_19_825,21.0,-128.0,21.0,-80.0,-128.0,127.0,-17.0,-40.0,0.78173828125,-0.27880859375,0.50537109375,-19.146341463414636,8.536585365853659,-2.378048780487805
11_40_19_825,-3.0,-1.0,-16.0,2.0,-23.0,-9.0,15.0,16.0,0.85546875,-0.23828125,0.4892578125,-14.146341463414636,6.158536585365854,0.12195121951219513
11_40_19_825,4.0,3.0,73.0,72.0,46.0,-7.0,3.0,13.0,0.8701171875,-0.23876953125,0.43798828125,-9.085365853658537,4.51219512195122,1.2804878048780488
11_40_19_825,-16.0,53.0,13.0,61.0,113.0,-14.0,-18.0,-3.0,0.880859375,-0.26318359375,0.48388671875,-1.4634146341463417,0.5487804878048781,2.7439024390243905
11_40_19_825,20.0,-43.0,-14.0,-33.0,77.0,68.0,27.0,-6.0,0.8310546875,-0.2666015625,0.474609375,-3.414634146341464,1.0365853658536586,0.9146341463414634
11_40_19_825,6.0,-38.0,0.0,-82.0,-128.0,-44.0,-17.0,-49.0,0.8388671875,-0.185546875,0.466796875,5.487804878048781,0.426829268292683,2.5
11_40_19_825,-9.0,-4.0,30.0,-56.0,-50.0,-9.0,50.0,14.0,0.8828125,-0.29541015625,0.41552734375,-11.76829268292683,4.024390243902439,0.30487804878048785
11_40_19_825,9.0,16.0,32.0,-75.0,-121.0,8.0,-128.0,-26.0,0.81005859375,-0.20166015625,0.521484375,-4.695121951219512,0.9756097560975611,-3.353658536585366
11_40_19_876,4.0,22.0,72.0,39.0,-21.0,127.0,-5.0,-5.0,0.93359375,-0.18798828125,0.2890625,-10.0,-3.353658536585366,-3.4756097560975614
11_40_19_876,-31.0,26.0,-128.0,-22.0,19.0,-47.0,-16.0,19.0,0.7646484375,-0.1796875,0.3701171875,3.048780487804878,-3.5975609756097566,-1.829268292682927
11_40_19_876,10.0,-11.0,65.0,29.0,39.0,13.0,-44.0,-28.0,0.69775390625,-0.30419921875,0.5068359375,-5.426829268292684,2.987804878048781,-3.048780487804878
11_40_19_876,7.0,-41.0,1.0,-94.0,-69.0,43.0,15.0,7.0,0.78173828125,-0.27880859375,0.50537109375,-19.146341463414636,8.536585365853659,-2.378048780487805
11_40_19_876,4.0,20.0,-6.0,112.0,127.0,-74.0,20.0,5.0,0.85546875,-0.23828125,0.4892578125,-14.146341463414636,6.158536585365854,0.12195121951219513
11_40_19_876,15.0,-38.0,32.0,38.0,-128.0,51.0,-15.0,-16.0,0.8701171875,-0.23876953125,0.43798828125,-9.085365853658537,4.51219512195122,1.2804878048780488
11_40_19_876,-20.0,51.0,14.0,30.0,-103.0,40.0,9.0,20.0,0.880859375,-0.26318359375,0.48388671875,-1.4634146341463417,0.5487804878048781,2.7439024390243905
11_40_19_876,-8.0,31.0,19.0,70.0,127.0,-58.0,7.0,16.0,0.8310546875,-0.2666015625,0.474609375,-3.414634146341464,1.0365853658536586,0.9146341463414634
11_40_19_876,21.0,-128.0,21.0,-80.0,-128.0,127.0,-17.0,-40.0,0.8388671875,-0.185546875,0.466796875,5.487804878048781,0.426829268292683,2.5
11_40_19_876,-3.0,-1.0,-16.0,2.0,-23.0,-9.0,15.0,16.0,0.8828125,-0.29541015625,0.41552734375,-11.76829268292683,4.024390243902439,0.30487804878048785
11_40_19_935,-13.0,28.0,-13.0,38.0,51.0,-119.0,14.0,15.0,0.896484375,-0.18994140625,0.39306640625,-14.146341463414636,2.804878048780488,-5.853658536585367
11_40_19_935,-24.0,51.0,-21.0,97.0,127.0,74.0,23.0,22.0,0.93359375,-0.18798828125,0.2890625,-10.0,-3.353658536585366,-3.4756097560975614
11_40_19_935,30.0,-31.0,4.0,-65.0,-114.0,18.0,10.0,7.0,0.7646484375,-0.1796875,0.3701171875,3.048780487804878,-3.5975609756097566,-1.829268292682927
11_40_19_935,-8.0,22.0,-45.0,-7.0,59.0,19.0,15.0,3.0,0.69775390625,-0.30419921875,0.5068359375,-5.426829268292684,2.987804878048781,-3.048780487804878
11_40_19_935,-31.0,0.0,12.0,-27.0,-105.0,-97.0,-62.0,-45.0,0.78173828125,-0.27880859375,0.50537109375,-19.146341463414636,8.536585365853659,-2.378048780487805
11_40_19_935,21.0,-26.0,-63.0,-30.0,-7.0,-55.0,10.0,19.0,0.85546875,-0.23828125,0.4892578125,-14.146341463414636,6.158536585365854,0.12195121951219513
11_40_19_935,4.0,22.0,72.0,39.0,-21.0,127.0,-5.0,-5.0,0.8701171875,-0.23876953125,0.43798828125,-9.085365853658537,4.51219512195122,1.2804878048780488
11_40_19_935,-31.0,26.0,-128.0,-22.0,19.0,-47.0,-16.0,19.0,0.880859375,-0.26318359375,0.48388671875,-1.4634146341463417,0.5487804878048781,2.7439024390243905
11_40_19_935,10.0,-11.0,65.0,29.0,39.0,13.0,-44.0,-28.0,0.8310546875,-0.2666015625,0.474609375,-3.414634146341464,1.0365853658536586,0.9146341463414634
11_40_19_935,7.0,-41.0,1.0,-94.0,-69.0,43.0,15.0,7.0,0.8388671875,-0.185546875,0.466796875,5.487804878048781,0.426829268292683,2.5
11_40_19_985,-11.0,46.0,35.0,-17.0,127.0,23.0,-3.0,6.0,0.794921875,-0.26953125,0.41455078125,-4.817073170731708,1.0365853658536586,-1.2804878048780488
11_40_19_985,0.0,2.0,-35.0,-62.0,-128.0,27.0,-8.0,15.0,0.8349609375,-0.22314453125,0.4130859375,-8.963414634146343,1.829268292682927,-2.9268292682926833
11_40_19_985,-17.0,63.0,41.0,125.0,127.0,29.0,3.0,-4.0,0.89501953125,-0.1962890625,0.4873046875,-19.26829268292683,-2.9268292682926833,-4.207317073170732
11_40_19_985,10.0,-63.0,5.0,-92.0,-95.0,16.0,-3.0,-16.0,0.896484375,-0.18994140625,0.39306640625,-14.146341463414636,2.804878048780488,-5.853658536585367
11_40_19_985,-3.0,9.0,-24.0,-41.0,-78.0,-14.0,1.0,0.0,0.93359375,-0.18798828125,0.2890625,-10.0,-3.353658536585366,-3.4756097560975614
11_40_19_985,12.0,-28.0,-9.0,-46.0,-89.0,-80.0,12.0,-2.0,0.7646484375,-0.1796875,0.3701171875,3.048780487804878,-3.5975609756097566,-1.829268292682927
11_40_19_985,-14.0,40.0,42.0,41.0,-47.0,18.0,17.0,33.0,0.69775390625,-0.30419921875,0.5068359375,-5.426829268292684,2.987804878048781,-3.048780487804878
11_40_19_985,-4.0,46.0,-33.0,127.0,127.0,27.0,25.0,17.0,0.78173828125,-0.27880859375,0.50537109375,-19.146341463414636,8.536585365853659,-2.378048780487805
11_40_19_985,30.0,-41.0,18.0,-74.0,-102.0,-82.0,-12.0,-42.0,0.85546875,-0.23828125,0.4892578125,-14.146341463414636,6.158536585365854,0.12195121951219513
11_40_19_985,-12.0,7.0,-48.0,8.0,-128.0,-79.0,-28.0,-5.0,0.8701171875,-0.23876953125,0.43798828125,-9.085365853658537,4.51219512195122,1.2804878048780488
11_40_20_031,-22.0,34.0,-52.0,127.0,127.0,6.0,-7.0,14.0,0.89111328125,-0.169921875,0.38134765625,-6.402439024390245,2.804878048780488,-4.51219512195122
11_40_20_031,5.0,31.0,117.0,-47.0,-128.0,0.0,25.0,12.0,0.89111328125,-0.24267578125,0.42333984375,-10.24390243902439,-1.5853658536585367,0.7317073170731708
11_40_20_031,-51.0,57.0,-128.0,64.0,-51.0,-3.0,-19.0,19.0,0.794921875,-0.26953125,0.41455078125,-4.817073170731708,1.0365853658536586,-1.2804878048780488
11_40_20_031,-17.0,68.0,-39.0,-38.0,127.0,3.0,39.0,-1.0,0.8349609375,-0.22314453125,0.4130859375,-8.963414634146343,1.829268292682927,-2.9268292682926833
11_40_20_031,-9.0,-1.0,-13.0,84.0,-128.0,8.0,-24.0,12.0,0.89501953125,-0.1962890625,0.4873046875,-19.26829268292683,-2.9268292682926833,-4.207317073170732
11_40_20_031,0.0,5.0,-128.0,-111.0,127.0,12.0,7.0,-13.0,0.896484375,-0.18994140625,0.39306640625,-14.146341463414636,2.804878048780488,-5.853658536585367
11_40_20_031,4.0,-12.0,17.0,-15.0,-128.0,10.0,-73.0,-1.0,0.93359375,-0.18798828125,0.2890625,-10.0,-3.353658536585366,-3.4756097560975614
11_40_20_031,0.0,8.0,22.0,86.0,127.0,11.0,45.0,-12.0,0.7646484375,-0.1796875,0.3701171875,3.048780487804878,-3.5975609756097566,-1.829268292682927
11_40_20_031,19.0,-49.0,44.0,43.0,-128.0,8.0,-8.0,-14.0,0.69775390625,-0.30419921875,0.5068359375,-5.426829268292684,2.987804878048781,-3.048780487804878
11_40_20_077,-51.0,57.0,-128.0,64.0,-51.0,-3.0,-19.0,19.0,0.8349609375,-0.22314453125,0.4130859375,-8.963414634146343,1.829268292682927,-2.9268292682926833
11_40_20_077,-17.0,68.0,-39.0,-38.0,127.0,3.0,39.0,-1.0,0.89501953125,-0.1962890625,0.4873046875,-19.26829268292683,-2.9268292682926833,-4.207317073170732
11_40_20_077,-9.0,-1.0,-13.0,84.0,-128.0,8.0,-24.0,12.0,0.896484375,-0.18994140625,0.39306640625,-14.146341463414636,2.804878048780488,-5.853658536585367
11_40_20_077,0.0,5.0,-128.0,-111.0,127.0,12.0,7.0,-13.0,0.93359375,-0.18798828125,0.2890625,-10.0,-3.353658536585366,-3.4756097560975614
11_40_20_077,4.0,-12.0,17.0,-15.0,-128.0,10.0,-73.0,-1.0,0.7646484375,-0.1796875,0.3701171875,3.048780487804878,-3.5975609756097566,-1.829268292682927
11_40_20_143,-17.0,23.0,35.0,127.0,127.0,6.0,66.0,41.0,0.89306640625,-0.1865234375,0.53076171875,6.036585365853659,8.475609756097562,5.853658536585367
11_40_20_143,9.0,-24.0,-47.0,-128.0,-84.0,-9.0,-72.0,-29.0,0.91162109375,-0.193359375,0.462890625,2.378048780487805,7.926829268292684,6.646341463414635
11_40_20_143,24.0,-66.0,33.0,-87.0,-21.0,-5.0,26.0,-7.0,0.88134765625,-0.1923828125,0.42236328125,-11.76829268292683,2.1951219512195124,0.9756097560975611
11_40_20_143,-26.0,3.0,117.0,-3.0,-128.0,1.0,9.0,-40.0,0.89111328125,-0.169921875,0.38134765625,-6.402439024390245,2.804878048780488,-4.51219512195122
11_40_20_143,-10.0,64.0,-128.0,26.0,-128.0,2.0,-37.0,19.0,0.89111328125,-0.24267578125,0.42333984375,-10.24390243902439,-1.5853658536585367,0.7317073170731708
11_40_20_143,-22.0,3.0,105.0,65.0,127.0,2.0,29.0,22.0,0.794921875,-0.26953125,0.41455078125,-4.817073170731708,1.0365853658536586,-1.2804878048780488
11_40_20_143,24.0,-61.0,22.0,-128.0,-128.0,-1.0,14.0,-7.0,0.8349609375,-0.22314453125,0.4130859375,-8.963414634146343,1.829268292682927,-2.9268292682926833
11_40_20_143,-22.0,34.0,-52.0,127.0,127.0,6.0,-7.0,14.0,0.89501953125,-0.1962890625,0.4873046875,-19.26829268292683,-2.9268292682926833,-4.207317073170732
11_40_20_143,5.0,31.0,117.0,-47.0,-128.0,0.0,25.0,12.0,0.896484375,-0.18994140625,0.39306640625,-14.146341463414636,2.804878048780488,-5.853658536585367
11_40_20_143,-51.0,57.0,-128.0,64.0,-51.0,-3.0,-19.0,19.0,0.93359375,-0.18798828125,0.2890625,-10.0,-3.353658536585366,-3.4756097560975614
11_40_20_187,-21.0,4.0,-128.0,-56.0,-128.0,-6.0,-57.0,-34.0,0.89306640625,-0.1865234375,0.53076171875,6.036585365853659,8.475609756097562,5.853658536585367
11_40_20_187,-22.0,90.0,48.0,23.0,0.0,1.0,-30.0,36.0,0.91162109375,-0.193359375,0.462890625,2.378048780487805,7.926829268292684,6.646341463414635
11_40_20_187,-17.0,23.0,35.0,127.0,127.0,6.0,66.0,41.0,0.88134765625,-0.1923828125,0.42236328125,-11.76829268292683,2.1951219512195124,0.9756097560975611
11_40_20_187,9.0,-24.0,-47.0,-128.0,-84.0,-9.0,-72.0,-29.0,0.89111328125,-0.169921875,0.38134765625,-6.402439024390245,2.804878048780488,-4.51219512195122
11_40_20_187,24.0,-66.0,33.0,-87.0,-21.0,-5.0,26.0,-7.0,0.89111328125,-0.24267578125,0.42333984375,-10.24390243902439,-1.5853658536585367,0.7317073170731708
11_40_20_187,-26.0,3.0,117.0,-3.0,-128.0,1.0,9.0,-40.0,0.794921875,-0.26953125,0.41455078125,-4.817073170731708,1.0365853658536586,-1.2804878048780488
11_40_20_187,-10.0,64.0,-128.0,26.0,-128.0,2.0,-37.0,19.0,0.8349609375,-0.22314453125,0.4130859375,-8.963414634146343,1.829268292682927,-2.9268292682926833
11_40_20_187,-22.0,3.0,105.0,65.0,127.0,2.0,29.0,22.0,0.89501953125,-0.1962890625,0.4873046875,-19.26829268292683,-2.9268292682926833,-4.207317073170732
11_40_20_187,24.0,-61.0,22.0,-128.0,-128.0,-1.0,14.0,-7.0,0.896484375,-0.18994140625,0.39306640625,-14.146341463414636,2.804878048780488,-5.853658536585367
11_40_20_187,-22.0,34.0,-52.0,127.0,127.0,6.0,-7.0,14.0,0.93359375,-0.18798828125,0.2890625,-10.0,-3.353658536585366,-3.4756097560975614
11_40_20_233,24.0,7.0,44.0,-6.0,-128.0,-1.0,16.0,33.0,0.9169921875,-0.140625,0.55712890625,18.53658536585366,27.621951219512198,18.597560975609756
11_40_20_233,-62.0,83.0,-128.0,127.0,121.0,-6.0,-1.0,28.0,0.9326171875,-0.169921875,0.54443359375,20.914634146341466,25.670731707317074,17.865853658536587
11_40_20_233,47.0,-75.0,8.0,-16.0,88.0,1.0,-21.0,-11.0,0.87255859375,-0.20849609375,0.52099609375,15.853658536585368,20.365853658536587,11.52439024390244
11_40_20_233,-63.0,9.0,-5.0,13.0,-128.0,-5.0,-10.0,-33.0,0.9658203125,-0.2568359375,0.54345703125,22.012195121951223,11.707317073170733,7.073170731707318
11_40_20_233,-9.0,36.0,4.0,-45.0,35.0,0.0,-5.0,-6.0,0.859375,-0.20849609375,0.55126953125,15.914634146341465,9.939024390243903,5.2439024390243905
11_40_20_233,23.0,-75.0,87.0,-33.0,-128.0,1.0,13.0,-12.0,0.89306640625,-0.1865234375,0.53076171875,6.036585365853659,8.475609756097562,5.853658536585367
11_40_20_233,-6.0,21.0,94.0,5.0,98.0,-7.0,14.0,20.0,0.91162109375,-0.193359375,0.462890625,2.378048780487805,7.926829268292684,6.646341463414635
11_40_20_233,16.0,-11.0,16.0,49.0,-128.0,-2.0,22.0,14.0,0.88134765625,-0.1923828125,0.42236328125,-11.76829268292683,2.1951219512195124,0.9756097560975611
11_40_20_233,-11.0,30.0,1.0,127.0,119.0,-2.0,4.0,7.0,0.89111328125,-0.169921875,0.38134765625,-6.402439024390245,2.804878048780488,-4.51219512195122
11_40_20_233,39.0,-83.0,-31.0,-128.0,-128.0,-5.0,34.0,-20.0,0.89111328125,-0.24267578125,0.42333984375,-10.24390243902439,-1.5853658536585367,0.7317073170731708
11_40_20_285,-1.0,-6.0,14.0,35.0,-101.0,-5.0,37.0,25.0,0.84765625,-0.205078125,0.591796875,21.219512195121954,28.353658536585368,20.914634146341466
11_40_20_285,-9.0,53.0,18.0,42.0,68.0,7.0,12.0,19.0,0.9169921875,-0.140625,0.55712890625,18.53658536585366,27.621951219512198,18.597560975609756
11_40_20_285,9.0,32.0,-4.0,-77.0,127.0,-1.0,18.0,-23.0,0.9326171875,-0.169921875,0.54443359375,20.914634146341466,25.670731707317074,17.865853658536587
11_40_20_285,-12.0,-12.0,-35.0,-6.0,-128.0,0.0,-6.0,-16.0,0.87255859375,-0.20849609375,0.52099609375,15.853658536585368,20.365853658536587,11.52439024390244
11_40_20_285,-37.0,14.0,-128.0,-5.0,-103.0,6.0,7.0,21.0,0.9658203125,-0.2568359375,0.54345703125,22.012195121951223,11.707317073170733,7.073170731707318
11_40_20_285,-10.0,39.0,-2.0,-11.0,113.0,-2.0,-7.0,1.0,0.859375,-0.20849609375,0.55126953125,15.914634146341465,9.939024390243903,5.2439024390243905
11_40_20_285,24.0,7.0,44.0,-6.0,-128.0,-1.0,16.0,33.0,0.89306640625,-0.1865234375,0.53076171875,6.036585365853659,8.475609756097562,5.853658536585367
11_40_20_285,-62.0,83.0,-128.0,127.0,121.0,-6.0,-1.0,28.0,0.91162109375,-0.193359375,0.462890625,2.378048780487805,7.926829268292684,6.646341463414635
11_40_20_285,47.0,-75.0,8.0,-16.0,88.0,1.0,-21.0,-11.0,0.88134765625,-0.1923828125,0.42236328125,-11.76829268292683,2.1951219512195124,0.9756097560975611
11_40_20_285,-63.0,9.0,-5.0,13.0,-128.0,-5.0,-10.0,-33.0,0.89111328125,-0.169921875,0.38134765625,-6.402439024390245,2.804878048780488,-4.51219512195122
11_40_20_340,-6.0,3.0,28.0,18.0,46.0,4.0,16.0,-31.0,0.8408203125,-0.1904296875,0.63916015625,25.975609756097562,29.573170731707318,19.573170731707318
11_40_20_340,25.0,-58.0,-6.0,-46.0,35.0,-8.0,4.0,-6.0,0.8818359375,-0.22412109375,0.61767578125,24.32926829268293,28.475609756097562,24.146341463414636
11_40_20_340,-26.0,20.0,-25.0,-2.0,-128.0,0.0,16.0,22.0,0.84765625,-0.205078125,0.591796875,21.219512195121954,28.353658536585368,20.914634146341466
11_40_20_340,33.0,-4.0,111.0,8.0,127.0,-1.0,-10.0,-27.0,0.9169921875,-0.140625,0.55712890625,18.53658536585366,27.621951219512198,18.597560975609756
11_40_20_340,-3.0,-17.0,55.0,-32.0,-105.0,-4.0,-32.0,12.0,0.9326171875,-0.169921875,0.54443359375,20.914634146341466,25.670731707317074,17.865853658536587
11_40_20_340,-33.0,41.0,-31.0,-18.0,-128.0,-2.0,63.0,56.0,0.87255859375,-0.20849609375,0.52099609375,15.853658536585368,20.365853658536587,11.52439024390244
11_40_20_340,20.0,60.0,-12.0,110.0,127.0,2.0,-3.0,0.0,0.9658203125,-0.2568359375,0.54345703125,22.012195121951223,11.707317073170733,7.073170731707318
11_40_20_340,-55.0,-64.0,-106.0,-25.0,-128.0,-2.0,-67.0,-55.0,0.859375,-0.20849609375,0.55126953125,15.914634146341465,9.939024390243903,5.2439024390243905
11_40_20_340,-1.0,-6.0,14.0,35.0,-101.0,-5.0,37.0,25.0,0.89306640625,-0.1865234375,0.53076171875,6.036585365853659,8.475609756097562,5.853658536585367
11_40_20_340,-9.0,53.0,18.0,42.0,68.0,7.0,12.0,19.0,0.91162109375,-0.193359375,0.462890625,2.378048780487805,7.926829268292684,6.646341463414635
11_40_20_391,27.0,11.0,27.0,18.0,127.0,-1.0,51.0,20.0,0.720703125,-0.22119140625,0.685546875,13.658536585365855,48.65853658536586,22.926829268292686
11_40_20_391,-49.0,107.0,-21.0,-12.0,-74.0,-4.0,-13.0,8.0,0.7626953125,-0.1689453125,0.65771484375,25.000000000000004,45.36585365853659,27.439024390243905
11_40_20_391,27.0,-61.0,-5.0,57.0,127.0,-1.0,-38.0,-41.0,0.8251953125,-0.27880859375,0.62255859375,19.32926829268293,37.37804878048781,28.84146341463415
11_40_20_391,-33.0,29.0,42.0,-12.0,-55.0,-12.0,-53.0,-1.0,0.84033203125,-0.31396484375,0.6396484375,22.98780487804878,32.37804878048781,20.243902439024392
11_40_20_391,17.0,5.0,16.0,-9.0,125.0,-1.0,25.0,8.0,0.8408203125,-0.1904296875,0.63916015625,25.975609756097562,29.573170731707318,19.573170731707318
11_40_20_391,14.0,38.0,31.0,9.0,127.0,-4.0,-9.0,6.0,0.8818359375,-0.22412109375,0.61767578125,24.32926829268293,28.475609756097562,24.146341463414636
11_40_20_391,-35.0,-18.0,-39.0,-17.0,-128.0,-4.0,-83.0,-13.0,0.84765625,-0.205078125,0.591796875,21.219512195121954,28.353658536585368,20.914634146341466
11_40_20_391,12.0,-22.0,96.0,42.0,127.0,2.0,64.0,24.0,0.9169921875,-0.140625,0.55712890625,18.53658536585366,27.621951219512198,18.597560975609756
11_40_20_391,35.0,-67.0,-48.0,-12.0,-128.0,7.0,-24.0,-15.0,0.9326171875,-0.169921875,0.54443359375,20.914634146341466,25.670731707317074,17.865853658536587
11_40_20_391,1.0,-5.0,51.0,-18.0,95.0,-4.0,-70.0,-33.0,0.87255859375,-0.20849609375,0.52099609375,15.853658536585368,20.365853658536587,11.52439024390244
11_40_20_437,-31.0,67.0,-33.0,-20.0,57.0,0.0,-3.0,27.0,0.73193359375,-0.30517578125,0.673828125,14.695121951219514,48.47560975609756,27.80487804878049
11_40_20_437,-30.0,23.0,-44.0,68.0,85.0,9.0,-11.0,28.0,0.720703125,-0.22119140625,0.685546875,13.658536585365855,48.65853658536586,22.926829268292686
11_40_20_437,36.0,-23.0,17.0,-35.0,127.0,0.0,44.0,-31.0,0.7626953125,-0.1689453125,0.65771484375,25.000000000000004,45.36585365853659,27.439024390243905
11_40_20_437,14.0,-80.0,-16.0,-13.0,-128.0,-8.0,-70.0,-21.0,0.8251953125,-0.27880859375,0.62255859375,19.32926829268293,37.37804878048781,28.84146341463415
11_40_20_437,-22.0,12.0,-13.0,-7.0,-111.0,-1.0,-5.0,18.0,0.84033203125,-0.31396484375,0.6396484375,22.98780487804878,32.37804878048781,20.243902439024392
11_40_20_437,12.0,11.0,12.0,34.0,127.0,1.0,-17.0,-2.0,0.8408203125,-0.1904296875,0.63916015625,25.975609756097562,29.573170731707318,19.573170731707318
11_40_20_437,27.0,11.0,27.0,18.0,127.0,-1.0,51.0,20.0,0.8818359375,-0.22412109375,0.61767578125,24.32926829268293,28.475609756097562,24.146341463414636
11_40_20_437,-49.0,107.0,-21.0,-12.0,-74.0,-4.0,-13.0,8.0,0.84765625,-0.205078125,0.591796875,21.219512195121954,28.353658536585368,20.914634146341466
11_40_20_437,27.0,-61.0,-5.0,57.0,127.0,-1.0,-38.0,-41.0,0.9169921875,-0.140625,0.55712890625,18.53658536585366,27.621951219512198,18.597560975609756
11_40_20_437,-33.0,29.0,42.0,-12.0,-55.0,-12.0,-53.0,-1.0,0.9326171875,-0.169921875,0.54443359375,20.914634146341466,25.670731707317074,17.865853658536587
11_40_20_484,-33.0,19.0,29.0,49.0,127.0,2.0,54.0,-1.0,0.6171875,-0.2412109375,0.650390625,24.146341463414636,60.365853658536594,23.414634146341466
11_40_20_484,16.0,13.0,3.0,22.0,-128.0,12.0,-107.0,-41.0,0.68896484375,-0.2421875,0.6728515625,12.317073170731708,57.743902439024396,23.84146341463415
11_40_20_484,49.0,-88.0,3.0,73.0,127.0,-5.0,54.0,-4.0,0.74462890625,-0.21240234375,0.69189453125,19.26829268292683,60.060975609756106,23.231707317073173
11_40_20_484,-71.0,109.0,-61.0,-19.0,-128.0,11.0,-25.0,18.0,0.75439453125,-0.2626953125,0.689453125,17.25609756097561,52.6219512195122,28.414634146341466
11_40_20_484,-6.0,-12.0,25.0,44.0,127.0,-6.0,38.0,0.0,0.73193359375,-0.30517578125,0.673828125,14.695121951219514,48.47560975609756,27.80487804878049
11_40_20_484,66.0,-128.0,35.0,-81.0,-128.0,-4.0,-3.0,-53.0,0.720703125,-0.22119140625,0.685546875,13.658536585365855,48.65853658536586,22.926829268292686
11_40_20_484,-12.0,-27.0,-24.0,-29.0,-128.0,-4.0,-128.0,9.0,0.7626953125,-0.1689453125,0.65771484375,25.000000000000004,45.36585365853659,27.439024390243905
11_40_20_484,-40.0,71.0,26.0,30.0,127.0,3.0,45.0,44.0,0.8251953125,-0.27880859375,0.62255859375,19.32926829268293,37.37804878048781,28.84146341463415
11_40_20_484,41.0,-128.0,58.0,93.0,127.0,-6.0,2.0,-33.0,0.84033203125,-0.31396484375,0.6396484375,22.98780487804878,32.37804878048781,20.243902439024392
11_40_20_484,-10.0,76.0,-16.0,-18.0,-128.0,7.0,-5.0,-17.0,0.8408203125,-0.1904296875,0.63916015625,25.975609756097562,29.573170731707318,19.573170731707318
11_40_20_534,-35.0,113.0,-128.0,-28.0,-63.0,9.0,44.0,43.0,0.65087890625,-0.23779296875,0.6142578125,21.219512195121954,61.28048780487806,16.890243902439025
11_40_20_534,5.0,8.0,106.0,127.0,127.0,8.0,23.0,-25.0,0.6796875,-0.37744140625,0.69140625,17.378048780487806,60.91463414634147,21.52439024390244
11_40_20_534,29.0,-52.0,-11.0,-31.0,-128.0,1.0,-65.0,-18.0,0.60107421875,-0.31201171875,0.67919921875,18.04878048780488,57.6219512195122,22.80487804878049
11_40_20_534,-3.0,-13.0,-24.0,-54.0,-128.0,1.0,32.0,7.0,0.6171875,-0.2412109375,0.650390625,24.146341463414636,60.365853658536594,23.414634146341466
11_40_20_534,-18.0,29.0,-63.0,-33.0,-128.0,-9.0,-39.0,24.0,0.68896484375,-0.2421875,0.6728515625,12.317073170731708,57.743902439024396,23.84146341463415
11_40_20_534,26.0,-8.0,60.0,127.0,127.0,3.0,-6.0,6.0,0.74462890625,-0.21240234375,0.69189453125,19.26829268292683,60.060975609756106,23.231707317073173
11_40_20_534,-13.0,37.0,13.0,73.0,127.0,-3.0,49.0,6.0,0.75439453125,-0.2626953125,0.689453125,17.25609756097561,52.6219512195122,28.414634146341466
11_40_20_534,-31.0,40.0,47.0,5.0,-128.0,3.0,-33.0,-4.0,0.73193359375,-0.30517578125,0.673828125,14.695121951219514,48.47560975609756,27.80487804878049
11_40_20_534,2.0,-68.0,87.0,-5.0,127.0,-7.0,33.0,-24.0,0.720703125,-0.22119140625,0.685546875,13.658536585365855,48.65853658536586,22.926829268292686
11_40_20_534,35.0,6.0,29.0,-91.0,-128.0,3.0,43.0,38.0,0.7626953125,-0.1689453125,0.65771484375,25.000000000000004,45.36585365853659,27.439024390243905
11_40_20_584,21.0,-24.0,110.0,61.0,86.0,-12.0,-44.0,-31.0,0.41552734375,-0.2626953125,0.7138671875,11.951219512195124,72.92682926829269,17.865853658536587
11_40_20_584,30.0,-68.0,17.0,-23.0,-128.0,5.0,3.0,-74.0,0.5205078125,-0.15576171875,0.61083984375,23.29268292682927,68.17073170731707,14.26829268292683
11_40_20_584,-23.0,22.0,-4.0,17.0,-106.0,1.0,5.0,-23.0,0.65087890625,-0.23779296875,0.6142578125,21.219512195121954,61.28048780487806,16.890243902439025
11_40_20_584,-17.0,44.0,-5.0,-1.0,127.0,7.0,21.0,50.0,0.6796875,-0.37744140625,0.69140625,17.378048780487806,60.91463414634147,21.52439024390244
11_40_20_584,23.0,-128.0,29.0,-53.0,10.0,-6.0,10.0,74.0,0.60107421875,-0.31201171875,0.67919921875,18.04878048780488,57.6219512195122,22.80487804878049
11_40_20_584,-18.0,42.0,-23.0,32.0,-17.0,-4.0,12.0,45.0,0.6171875,-0.2412109375,0.650390625,24.146341463414636,60.365853658536594,23.414634146341466
11_40_20_584,-4.0,42.0,61.0,68.0,127.0,1.0,-22.0,-29.0,0.68896484375,-0.2421875,0.6728515625,12.317073170731708,57.743902439024396,23.84146341463415
11_40_20_584,33.0,-65.0,-1.0,-53.0,-128.0,0.0,-12.0,-23.0,0.74462890625,-0.21240234375,0.69189453125,19.26829268292683,60.060975609756106,23.231707317073173
11_40_20_584,-35.0,113.0,-128.0,-28.0,-63.0,9.0,44.0,43.0,0.75439453125,-0.2626953125,0.689453125,17.25609756097561,52.6219512195122,28.414634146341466
11_40_20_584,5.0,8.0,106.0,127.0,127.0,8.0,23.0,-25.0,0.73193359375,-0.30517578125,0.673828125,14.695121951219514,48.47560975609756,27.80487804878049
11_40_20_638,-31.0,-2.0,-24.0,-121.0,-84.0,-1.0,27.0,81.0,0.37939453125,-0.2607421875,0.6484375,17.25609756097561,69.02439024390245,11.52439024390244
11_40_20_638,23.0,-109.0,-15.0,127.0,29.0,-5.0,9.0,17.0,0.41650390625,-0.337890625,0.72216796875,17.439024390243905,76.52439024390245,21.03658536585366
11_40_20_638,-16.0,-6.0,52.0,-13.0,53.0,-8.0,-19.0,-14.0,0.41552734375,-0.2626953125,0.7138671875,11.951219512195124,72.92682926829269,17.865853658536587
11_40_20_638,-2.0,-15.0,15.0,-48.0,-18.0,-3.0,58.0,-60.0,0.5205078125,-0.15576171875,0.61083984375,23.29268292682927,68.17073170731707,14.26829268292683
11_40_20_638,11.0,-17.0,1.0,11.0,-128.0,-2.0,-67.0,-114.0,0.65087890625,-0.23779296875,0.6142578125,21.219512195121954,61.28048780487806,16.890243902439025
11_40_20_638,-44.0,65.0,-19.0,-10.0,127.0,0.0,-8.0,123.0,0.6796875,-0.37744140625,0.69140625,17.378048780487806,60.91463414634147,21.52439024390244
11_40_20_638,21.0,-24.0,110.0,61.0,86.0,-12.0,-44.0,-31.0,0.60107421875,-0.31201171875,0.67919921875,18.04878048780488,57.6219512195122,22.80487804878049
11_40_20_638,30.0,-68.0,17.0,-23.0,-128.0,5.0,3.0,-74.0,0.6171875,-0.2412109375,0.650390625,24.146341463414636,60.365853658536594,23.414634146341466
11_40_20_638,-23.0,22.0,-4.0,17.0,-106.0,1.0,5.0,-23.0,0.68896484375,-0.2421875,0.6728515625,12.317073170731708,57.743902439024396,23.84146341463415
11_40_20_638,-17.0,44.0,-5.0,-1.0,127.0,7.0,21.0,50.0,0.74462890625,-0.21240234375,0.69189453125,19.26829268292683,60.060975609756106,23.231707317073173
11_40_20_698,2.0,2.0,13.0,-14.0,-96.0,-26.0,0.0,-62.0,0.37939453125,-0.2607421875,0.6484375,17.25609756097561,69.02439024390245,11.52439024390244
11_40_20_698,-4.0,4.0,20.0,70.0,127.0,-24.0,-2.0,-51.0,0.41650390625,-0.337890625,0.72216796875,17.439024390243905,76.52439024390245,21.03658536585366
11_40_20_698,-31.0,-2.0,-24.0,-121.0,-84.0,-1.0,27.0,81.0,0.41552734375,-0.2626953125,0.7138671875,11.951219512195124,72.92682926829269,17.865853658536587
11_40_20_698,23.0,-109.0,-15.0,127.0,29.0,-5.0,9.0,17.0,0.5205078125,-0.15576171875,0.61083984375,23.29268292682927,68.17073170731707,14.26829268292683
11_40_20_698,-16.0,-6.0,52.0,-13.0,53.0,-8.0,-19.0,-14.0,0.65087890625,-0.23779296875,0.6142578125,21.219512195121954,61.28048780487806,16.890243902439025
11_40_20_698,-2.0,-15.0,15.0,-48.0,-18.0,-3.0,58.0,-60.0,0.6796875,-0.37744140625,0.69140625,17.378048780487806,60.91463414634147,21.52439024390244
11_40_20_698,11.0,-17.0,1.0,11.0,-128.0,-2.0,-67.0,-114.0,0.60107421875,-0.31201171875,0.67919921875,18.04878048780488,57.6219512195122,22.80487804878049
11_40_20_698,-44.0,65.0,-19.0,-10.0,127.0,0.0,-8.0,123.0,0.6171875,-0.2412109375,0.650390625,24.146341463414636,60.365853658536594,23.414634146341466
11_40_20_698,21.0,-24.0,110.0,61.0,86.0,-12.0,-44.0,-31.0,0.68896484375,-0.2421875,0.6728515625,12.317073170731708,57.743902439024396,23.84146341463415
11_40_20_698,30.0,-68.0,17.0,-23.0,-128.0,5.0,3.0,-74.0,0.74462890625,-0.21240234375,0.69189453125,19.26829268292683,60.060975609756106,23.231707317073173
11_40_20_743,-4.0,-7.0,23.0,105.0,114.0,12.0,1.0,-39.0,0.314453125,-0.32421875,0.7060546875,11.890243902439025,66.03658536585367,12.134146341463415
11_40_20_743,-14.0,-23.0,-20.0,-42.0,-128.0,-27.0,-5.0,127.0,0.296875,-0.3115234375,0.70556640625,19.878048780487806,71.28048780487805,11.951219512195124
11_40_20_743,-10.0,30.0,25.0,44.0,127.0,30.0,-32.0,-17.0,0.37939453125,-0.2607421875,0.6484375,17.25609756097561,69.02439024390245,11.52439024390244
11_40_20_743,8.0,-33.0,-10.0,-128.0,-128.0,13.0,-17.0,15.0,0.41650390625,-0.337890625,0.72216796875,17.439024390243905,76.52439024390245,21.03658536585366
11_40_20_743,16.0,-22.0,20.0,85.0,27.0,19.0,27.0,-48.0,0.41552734375,-0.2626953125,0.7138671875,11.951219512195124,72.92682926829269,17.865853658536587
11_40_20_743,1.0,-7.0,30.0,-5.0,-100.0,22.0,-26.0,-45.0,0.5205078125,-0.15576171875,0.61083984375,23.29268292682927,68.17073170731707,14.26829268292683
11_40_20_743,-26.0,5.0,-8.0,-33.0,5.0,-10.0,-20.0,51.0,0.65087890625,-0.23779296875,0.6142578125,21.219512195121954,61.28048780487806,16.890243902439025
11_40_20_743,34.0,-33.0,53.0,29.0,-35.0,13.0,1.0,121.0,0.6796875,-0.37744140625,0.69140625,17.378048780487806,60.91463414634147,21.52439024390244
11_40_20_743,6.0,2.0,14.0,-59.0,-29.0,-24.0,1.0,6.0,0.60107421875,-0.31201171875,0.67919921875,18.04878048780488,57.6219512195122,22.80487804878049
11_40_20_743,7.0,-21.0,-55.0,104.0,20.0,-29.0,-19.0,-31.0,0.6171875,-0.2412109375,0.650390625,24.146341463414636,60.365853658536594,23.414634146341466
11_40_20_794,1.0,32.0,33.0,52.0,92.0,-10.0,-75.0,5.0,0.28271484375,-0.20556640625,0.69677734375,-3.536585365853659,15.79268292682927,7.987804878048781
11_40_20_794,-1.0,-19.0,-3.0,-127.0,-56.0,52.0,45.0,-12.0,0.18505859375,-0.18115234375,0.76904296875,-6.585365853658537,25.54878048780488,-2.378048780487805
11_40_20_794,15.0,6.0,-30.0,-31.0,-7.0,-27.0,-18.0,35.0,0.314453125,-0.32421875,0.7060546875,11.890243902439025,66.03658536585367,12.134146341463415
11_40_20_794,10.0,-11.0,36.0,127.0,53.0,66.0,54.0,-5.0,0.296875,-0.3115234375,0.70556640625,19.878048780487806,71.28048780487805,11.951219512195124
11_40_20_794,14.0,-12.0,-10.0,-65.0,-73.0,16.0,-26.0,-18.0,0.37939453125,-0.2607421875,0.6484375,17.25609756097561,69.02439024390245,11.52439024390244
11_40_20_794,-26.0,-17.0,-31.0,-114.0,-120.0,2.0,-20.0,3.0,0.41650390625,-0.337890625,0.72216796875,17.439024390243905,76.52439024390245,21.03658536585366
11_40_20_794,-83.0,17.0,31.0,79.0,127.0,-74.0,31.0,41.0,0.41552734375,-0.2626953125,0.7138671875,11.951219512195124,72.92682926829269,17.865853658536587
11_40_20_794,10.0,-9.0,-20.0,127.0,107.0,85.0,12.0,-30.0,0.5205078125,-0.15576171875,0.61083984375,23.29268292682927,68.17073170731707,14.26829268292683
11_40_20_794,71.0,12.0,1.0,-88.0,-128.0,-128.0,-108.0,6.0,0.65087890625,-0.23779296875,0.6142578125,21.219512195121954,61.28048780487806,16.890243902439025
11_40_20_794,-12.0,41.0,-7.0,-3.0,87.0,-13.0,127.0,79.0,0.6796875,-0.37744140625,0.69140625,17.378048780487806,60.91463414634147,21.52439024390244
11_40_20_854,13.0,-12.0,-36.0,57.0,127.0,18.0,11.0,4.0,0.25439453125,-0.2421875,0.7509765625,-1.2804878048780488,0.9756097560975611,4.634146341463415
11_40_20_854,-20.0,19.0,24.0,28.0,102.0,65.0,-21.0,12.0,0.33203125,-0.18017578125,0.68603515625,5.182926829268293,12.926829268292684,7.134146341463415
11_40_20_854,27.0,-9.0,29.0,127.0,102.0,30.0,34.0,-24.0,0.28271484375,-0.20556640625,0.69677734375,-3.536585365853659,15.79268292682927,7.987804878048781
11_40_20_854,1.0,-5.0,-66.0,-49.0,-68.0,-30.0,-5.0,2.0,0.18505859375,-0.18115234375,0.76904296875,-6.585365853658537,25.54878048780488,-2.378048780487805
11_40_20_854,1.0,32.0,33.0,52.0,92.0,-10.0,-75.0,5.0,0.314453125,-0.32421875,0.7060546875,11.890243902439025,66.03658536585367,12.134146341463415
11_40_20_854,-1.0,-19.0,-3.0,-127.0,-56.0,52.0,45.0,-12.0,0.296875,-0.3115234375,0.70556640625,19.878048780487806,71.28048780487805,11.951219512195124
11_40_20_854,15.0,6.0,-30.0,-31.0,-7.0,-27.0,-18.0,35.0,0.37939453125,-0.2607421875,0.6484375,17.25609756097561,69.02439024390245,11.52439024390244
11_40_20_854,10.0,-11.0,36.0,127.0,53.0,66.0,54.0,-5.0,0.41650390625,-0.337890625,0.72216796875,17.439024390243905,76.52439024390245,21.03658536585366
11_40_20_854,14.0,-12.0,-10.0,-65.0,-73.0,16.0,-26.0,-18.0,0.41552734375,-0.2626953125,0.7138671875,11.951219512195124,72.92682926829269,17.865853658536587
11_40_20_854,-26.0,-17.0,-31.0,-114.0,-120.0,2.0,-20.0,3.0,0.5205078125,-0.15576171875,0.61083984375,23.29268292682927,68.17073170731707,14.26829268292683
11_40_20_893,14.0,24.0,66.0,-10.0,-32.0,-22.0,9.0,13.0,0.30419921875,-0.29248046875,0.736328125,-15.060975609756099,-22.25609756097561,-3.780487804878049
11_40_20_893,7.0,-12.0,23.0,93.0,127.0,35.0,24.0,-13.0,0.30126953125,-0.18505859375,0.708984375,-8.353658536585366,-18.658536585365855,-1.0365853658536586
11_40_20_893,14.0,-22.0,-67.0,127.0,78.0,-72.0,-67.0,-7.0,0.36328125,-0.22265625,0.71484375,-11.158536585365855,-9.695121951219512,0.06097560975609757
11_40_20_893,-51.0,53.0,-3.0,-47.0,23.0,65.0,83.0,3.0,0.25439453125,-0.2421875,0.7509765625,-1.2804878048780488,0.9756097560975611,4.634146341463415
11_40_20_893,21.0,-18.0,34.0,127.0,12.0,-102.0,-49.0,-18.0,0.33203125,-0.18017578125,0.68603515625,5.182926829268293,12.926829268292684,7.134146341463415
11_40_20_893,9.0,-23.0,-21.0,-110.0,-86.0,-18.0,39.0,2.0,0.28271484375,-0.20556640625,0.69677734375,-3.536585365853659,15.79268292682927,7.987804878048781
11_40_20_893,-38.0,26.0,-41.0,51.0,73.0,24.0,-9.0,25.0,0.18505859375,-0.18115234375,0.76904296875,-6.585365853658537,25.54878048780488,-2.378048780487805
11_40_20_893,26.0,-7.0,33.0,127.0,-103.0,16.0,-7.0,-27.0,0.314453125,-0.32421875,0.7060546875,11.890243902439025,66.03658536585367,12.134146341463415
11_40_20_893,13.0,-10.0,-95.0,-56.0,-80.0,-45.0,7.0,9.0,0.296875,-0.3115234375,0.70556640625,19.878048780487806,71.28048780487805,11.951219512195124
11_40_20_893,-29.0,16.0,94.0,92.0,127.0,27.0,-44.0,35.0,0.37939453125,-0.2607421875,0.6484375,17.25609756097561,69.02439024390245,11.52439024390244
11_40_20_955,8.0,-6.0,-16.0,-22.0,-128.0,-44.0,41.0,11.0,0.30859375,-0.1826171875,0.7578125,-14.573170731707318,-33.71951219512196,-13.109756097560977
11_40_20_955,-13.0,17.0,41.0,-128.0,127.0,-113.0,-19.0,16.0,0.298828125,-0.31005859375,0.71923828125,-25.182926829268293,-30.853658536585368,-14.939024390243905
