Application:, Trigno Discover (2.0.1.2)
Date/Time:, 5/14/2025 11:24:02 AM
Collection Length (seconds):, 21.9105
Forearm 2 (83169), , , , , , , , Forearm 1 (82633), , , , , , , , Biceps (83254), , , , , , , , Triceps (83087)
sensor mode: 45, , , , , , , , sensor mode: 45, , , , , , , , sensor mode: 45, , , , , , , , sensor mode: 45
EMG 1 Time Series (s), EMG 1 (mV), ACC X Time Series (s), ACC X (G), ACC Y Time Series (s), ACC Y (G), ACC Z Time Series (s), ACC Z (G), EMG 1 Time Series (s), EMG 1 (mV), ACC X Time Series (s), ACC X (G), ACC Y Time Series (s), ACC Y (G), ACC Z Time Series (s), ACC Z (G), EMG 1 Time Series (s), EMG 1 (mV), ACC X Time Series (s), ACC X (G), ACC Y Time Series (s), ACC Y (G), ACC Z Time Series (s), ACC Z (G), EMG 1 Time Series (s), EMG 1 (mV), ACC X Time Series (s), ACC X (G), ACC Y Time Series (s), ACC Y (G), ACC Z Time Series (s), ACC Z (G)
, 1925.9259 Hz, , 74.0741 Hz, , 74.0741 Hz, , 74.0741 Hz, , 1925.9259 Hz, , 74.0741 Hz, , 74.0741 Hz, , 74.0741 Hz, , 1925.9259 Hz, , 74.0741 Hz, , 74.0741 Hz, , 74.0741 Hz, , 1925.9259 Hz, , 74.0741 Hz, , 74.0741 Hz, , 74.0741 Hz
, 0.0005192307692307692 s, , 0.0135 s, , 0.0135 s, , 0.0135 s, , 0.0005192307692307692 s, , 0.0135 s, , 0.0135 s, , 0.0135 s, , 0.0005192307692307692 s, , 0.0135 s, , 0.0135 s, , 0.0135 s, , 0.0005192307692307692 s, , 0.0135 s, , 0.0135 s, , 0.0135 s, , Type, Name, Label, Time (s), , Pair, E1, E2, T1, T2, V1, V2, Sensor, Channel, Units, Delta T, RMS, PKPK, Peak Value, TPK, Integral
0, 0.0318914, 0, -0.5219727, 0, -0.8730469, 0, 0.0732422, 0, -0.0109102, 0, 0.5170898, 0, -0.828125, 0, 0.2192383, 0, -0.0075532, 0, 0.0366211, 0, -0.9599609, 0, 0.2954102, 0, 0.0171206, 0, -0.3823242, 0, -0.9272461, 0, -0.1723633, , , , , , , , , , , , , , , , , , , , , , 
0.0005192, 0.0307164, 0.0135, -0.5302734, 0.0135, -0.8681641, 0.0135, 0.0664062, 0.0005192, -0.0102388, 0.0135, 0.5205078, 0.0135, -0.8349609, 0.0135, 0.2124023, 0.0005192, -0.0065461, 0.0135, 0.0336914, 0.0135, -0.9536133, 0.0135, 0.300293, 0.0005192, 0.0152743, 0.0135, -0.3857422, 0.0135, -0.9238281, 0.0135, -0.1713867, , , , , , , , , , , , , , , , , , , , , , 
0.0010385, 0.0280308, 0.027, -0.5322266, 0.027, -0.8706055, 0.027, 0.0703125, 0.0010385, -0.008896, 0.027, 0.4956055, 0.027, -0.8320312, 0.027, 0.2094727, 0.0010385, -0.0062104, 0.027, 0.0229492, 0.027, -0.9570312, 0.027, 0.2993164, 0.0010385, 0.0139315, 0.027, -0.3901367, 0.027, -0.9238281, 0.027, -0.1723633, , , , , , , , , , , , , , , , , , , , , , 
0.0015577, 0.026688, 0.0405, -0.5366211, 0.0405, -0.8686523, 0.0405, 0.0664062, 0.0015577, -0.0075532, 0.0405, 0.487793, 0.0405, -0.8305664, 0.0405, 0.2104492, 0.0015577, -0.0041962, 0.0405, 0.0117188, 0.0405, -0.9570312, 0.0405, 0.2895508, 0.0015577, 0.0119173, 0.0405, -0.390625, 0.0405, -0.9257812, 0.0405, -0.1704102, , , , , , , , , , , , , , , , , , , , , , 
0.0020769, 0.0253452, 0.054, -0.5341797, 0.054, -0.8706055, 0.054, 0.0644531, 0.0020769, -0.0075532, 0.054, 0.4902344, 0.054, -0.8339844, 0.054, 0.2036133, 0.0020769, -0.0041962, 0.054, 0.0083008, 0.054, -0.9545898, 0.054, 0.2841797, 0.0020769, 0.0099031, 0.054, -0.3886719, 0.054, -0.9223633, 0.054, -0.1748047, , , , , , , , , , , , , , , , , , , , , , 
0.0025962, 0.0219883, 0.0675, -0.5249023, 0.0675, -0.8725586, 0.0675, 0.0654297, 0.0025962, -0.0085603, 0.0675, 0.4921875, 0.0675, -0.8349609, 0.0675, 0.2128906, 0.0025962, -0.0048676, 0.0675, 0.0214844, 0.0675, -0.9521484, 0.0675, 0.2836914, 0.0025962, 0.0090639, 0.0675, -0.3842773, 0.0675, -0.9199219, 0.0675, -0.1738281, , , , , , , , , , , , , , , , , , , , , , 
0.0031154, 0.0223239, 0.081, -0.5356445, 0.081, -0.8657227, 0.081, 0.0605469, 0.0031154, -0.0109102, 0.081, 0.496582, 0.081, -0.8378906, 0.081, 0.2143555, 0.0031154, -0.0041962, 0.081, 0.0263672, 0.081, -0.9492188, 0.081, 0.277832, 0.0031154, 0.0078889, 0.081, -0.3789062, 0.081, -0.9213867, 0.081, -0.1699219, , , , , , , , , , , , , , , , , , , , , , 
0.0036346, 0.0238346, 0.0945, -0.53125, 0.0945, -0.8662109, 0.0945, 0.0600586, 0.0036346, -0.0125887, 0.0945, 0.4926758, 0.0945, -0.8364258, 0.0945, 0.2099609, 0.0036346, -0.0041962, 0.0945, 0.0239258, 0.0945, -0.949707, 0.0945, 0.2783203, 0.0036346, 0.0075532, 0.0945, -0.3701172, 0.0945, -0.925293, 0.0945, -0.1728516, , , , , , , , , , , , , , , , , , , , , , 
0.0041538, 0.0213169, 0.108, -0.5283203, 0.108, -0.8691406, 0.108, 0.0639648, 0.0041538, -0.0115816, 0.108, 0.4887695, 0.108, -0.8291016, 0.108, 0.2094727, 0.0041538, -0.005539, 0.108, 0.0273438, 0.108, -0.9526367, 0.108, 0.2841797, 0.0041538, 0.0090639, 0.108, -0.3793945, 0.108, -0.9233398, 0.108, -0.1689453, , , , , , , , , , , , , , , , , , , , , , 
0.0046731, 0.0169528, 0.1215, -0.5234375, 0.1215, -0.8686523, 0.1215, 0.0678711, 0.0046731, -0.0090639, 0.1215, 0.5009766, 0.1215, -0.8344727, 0.1215, 0.2109375, 0.0046731, -0.0065461, 0.1215, 0.0292969, 0.1215, -0.9545898, 0.1215, 0.2919922, 0.0046731, 0.0092317, 0.1215, -0.3886719, 0.1215, -0.9199219, 0.1215, -0.1689453, , , , , , , , , , , , , , , , , , , , , , 
0.0051923, 0.0162814, 0.135, -0.5263672, 0.135, -0.8652344, 0.135, 0.0683594, 0.0051923, -0.0075532, 0.135, 0.5053711, 0.135, -0.8286133, 0.135, 0.2104492, 0.0051923, -0.0072175, 0.135, 0.0219727, 0.135, -0.9492188, 0.135, 0.2910156, 0.0051923, 0.0092317, 0.135, -0.3911133, 0.135, -0.9179688, 0.135, -0.1699219, , , , , , , , , , , , , , , , , , , , , , 
0.0057115, 0.0176242, 0.1485, -0.5292969, 0.1485, -0.8647461, 0.1485, 0.0649414, 0.0057115, -0.0062104, 0.1485, 0.4907227, 0.1485, -0.8237305, 0.1485, 0.2109375, 0.0057115, -0.0068818, 0.1485, 0.0166016, 0.1485, -0.9482422, 0.1485, 0.2885742, 0.0057115, 0.008896, 0.1485, -0.3847656, 0.1485, -0.9174805, 0.1485, -0.1743164, , , , , , , , , , , , , , , , , , , , , , 
0.0062308, 0.0219883, 0.162, -0.5336914, 0.162, -0.8671875, 0.162, 0.0673828, 0.0062308, -0.0052033, 0.162, 0.4916992, 0.162, -0.8266602, 0.162, 0.2060547, 0.0062308, -0.0062104, 0.162, 0.0253906, 0.162, -0.9521484, 0.162, 0.2919922, 0.0062308, 0.0095674, 0.162, -0.3847656, 0.162, -0.9223633, 0.162, -0.1762695, , , , , , , , , , , , , , , , , , , , , , 
0.00675, 0.0276951, 0.1755, -0.5341797, 0.1755, -0.8740234, 0.1755, 0.0703125, 0.00675, -0.0041962, 0.1755, 0.4960938, 0.1755, -0.8349609, 0.1755, 0.2041016, 0.00675, -0.0062104, 0.1755, 0.0263672, 0.1755, -0.9570312, 0.1755, 0.2900391, 0.00675, 0.0092317, 0.1755, -0.3842773, 0.1755, -0.925293, 0.1755, -0.1713867, , , , , , , , , , , , , , , , , , , , , , 
0.0072692, 0.026688, 0.189, -0.5336914, 0.189, -0.8735352, 0.189, 0.0688477, 0.0072692, -0.0035248, 0.189, 0.496582, 0.189, -0.8364258, 0.189, 0.2104492, 0.0072692, -0.0045319, 0.189, 0.0195312, 0.189, -0.9575195, 0.189, 0.2910156, 0.0072692, 0.0105745, 0.189, -0.3867188, 0.189, -0.9326172, 0.189, -0.1655273, , , , , , , , , , , , , , , , , , , , , , 
0.0077885, 0.0216526, 0.2025, -0.5366211, 0.2025, -0.8774414, 0.2025, 0.0712891, 0.0077885, -0.0045319, 0.2025, 0.4980469, 0.2025, -0.8393555, 0.2025, 0.2133789, 0.0077885, -0.0031891, 0.2025, 0.0307617, 0.2025, -0.9594727, 0.2025, 0.293457, 0.0077885, 0.0119173, 0.2025, -0.3920898, 0.2025, -0.9326172, 0.2025, -0.1665039, , , , , , , , , , , , , , , , , , , , , , 
0.0083077, 0.0152743, 0.216, -0.5405273, 0.216, -0.8754883, 0.216, 0.0712891, 0.0083077, -0.0031891, 0.216, 0.4990234, 0.216, -0.8393555, 0.216, 0.2080078, 0.0083077, -0.0031891, 0.216, 0.0317383, 0.216, -0.9604492, 0.216, 0.2895508, 0.0083077, 0.0119173, 0.216, -0.3920898, 0.216, -0.9287109, 0.216, -0.1650391, , , , , , , , , , , , , , , , , , , , , , 
0.0088269, 0.0105745, 0.2295, -0.5390625, 0.2295, -0.8740234, 0.2295, 0.0742188, 0.0088269, -0.0015106, 0.2295, 0.5024414, 0.2295, -0.8330078, 0.2295, 0.2089844, 0.0088269, -0.002182, 0.2295, 0.0249023, 0.2295, -0.9580078, 0.2295, 0.2875977, 0.0088269, 0.0109102, 0.2295, -0.3920898, 0.2295, -0.9267578, 0.2295, -0.1669922, , , , , , , , , , , , , , , , , , , , , , 
0.0093462, 0.0083925, 0.243, -0.5375977, 0.243, -0.8754883, 0.243, 0.078125, 0.0093462, -0.0008392, 0.243, 0.5078125, 0.243, -0.8305664, 0.243, 0.2080078, 0.0093462, -0.0005035, 0.243, 0.0107422, 0.243, -0.9584961, 0.243, 0.2900391, 0.0093462, 0.0083925, 0.243, -0.3935547, 0.243, -0.9291992, 0.243, -0.1708984, , , , , , , , , , , , , , , , , , , , , , 
0.0098654, 0.0085603, 0.2565, -0.5356445, 0.2565, -0.8735352, 0.2565, 0.0737305, 0.0098654, -0.0008392, 0.2565, 0.5092773, 0.2565, -0.8330078, 0.2565, 0.2114258, 0.0098654, -0.0020142, 0.2565, 0.0092773, 0.2565, -0.9584961, 0.2565, 0.2905273, 0.0098654, 0.0043641, 0.2565, -0.3896484, 0.2565, -0.925293, 0.2565, -0.1738281, , , , , , , , , , , , , , , , , , , , , , 
0.0103846, 0.0119173, 0.27, -0.534668, 0.27, -0.8730469, 0.27, 0.0742188, 0.0103846, -0.0015106, 0.27, 0.5117188, 0.27, -0.8349609, 0.27, 0.2089844, 0.0103846, -0.0068818, 0.27, 0.0253906, 0.27, -0.9594727, 0.27, 0.2924805, 0.0103846, 0.0031891, 0.27, -0.3876953, 0.27, -0.9248047, 0.27, -0.1738281, , , , , , , , , , , , , , , , , , , , , , 
0.0109038, 0.0125887, 0.2835, -0.5375977, 0.2835, -0.8735352, 0.2835, 0.0751953, 0.0109038, -0.0008392, 0.2835, 0.5058594, 0.2835, -0.8354492, 0.2835, 0.2084961, 0.0109038, -0.0095674, 0.2835, 0.0400391, 0.2835, -0.9604492, 0.2835, 0.2905273, 0.0109038, 0.0035248, 0.2835, -0.3803711, 0.2835, -0.9257812, 0.2835, -0.1694336, , , , , , , , , , , , , , , , , , , , , , 
0.0114231, 0.008896, 0.297, -0.5463867, 0.297, -0.8701172, 0.297, 0.078125, 0.0114231, -0.0003357, 0.297, 0.5024414, 0.297, -0.8295898, 0.297, 0.2055664, 0.0114231, -0.0099031, 0.297, 0.0473633, 0.297, -0.9604492, 0.297, 0.2885742, 0.0114231, 0.0041962, 0.297, -0.371582, 0.297, -0.9291992, 0.297, -0.1669922, , , , , , , , , , , , , , , , , , , , , , 
0.0119423, 0.0031891, 0.3105, -0.5454102, 0.3105, -0.8637695, 0.3105, 0.0756836, 0.0119423, -0.0008392, 0.3105, 0.5073242, 0.3105, -0.831543, 0.3105, 0.2055664, 0.0119423, -0.0095674, 0.3105, 0.0380859, 0.3105, -0.9536133, 0.3105, 0.2905273, 0.0119423, 0.0072175, 0.3105, -0.3779297, 0.3105, -0.9306641, 0.3105, -0.1665039, , , , , , , , , , , , , , , , , , , , , , 
0.0124615, -0.0016785, 0.324, -0.5356445, 0.324, -0.8666992, 0.324, 0.0776367, 0.0124615, -0.0028534, 0.324, 0.5029297, 0.324, -0.8320312, 0.324, 0.1972656, 0.0124615, -0.0105745, 0.324, 0.0253906, 0.324, -0.9516602, 0.324, 0.2890625, 0.0124615, 0.0090639, 0.324, -0.387207, 0.324, -0.9287109, 0.324, -0.1625977, , , , , , , , , , , , , , , , , , , , , , 
0.0129808, -0.0045319, 0.3375, -0.5307617, 0.3375, -0.8720703, 0.3375, 0.0771484, 0.0129808, -0.0041962, 0.3375, 0.4990234, 0.3375, -0.8305664, 0.3375, 0.1948242, 0.0129808, -0.0112459, 0.3375, 0.0141602, 0.3375, -0.953125, 0.3375, 0.2895508, 0.0129808, 0.008896, 0.3375, -0.402832, 0.3375, -0.9238281, 0.3375, -0.1669922, , , , , , , , , , , , , , , , , , , , , , 
0.0135, -0.002182, 0.351, -0.5258789, 0.351, -0.878418, 0.351, 0.078125, 0.0135, -0.0038605, 0.351, 0.5043945, 0.351, -0.8320312, 0.351, 0.1987305, 0.0135, -0.0085603, 0.351, 0.0083008, 0.351, -0.9550781, 0.351, 0.2895508, 0.0135, 0.0109102, 0.351, -0.4042969, 0.351, -0.9199219, 0.351, -0.1704102, , , , , , , , , , , , , , , , , , , , , , 
0.0140192, -0.0001678, 0.3645, -0.5390625, 0.3645, -0.8691406, 0.3645, 0.0771484, 0.0140192, -0.0050355, 0.3645, 0.5170898, 0.3645, -0.8320312, 0.3645, 0.2075195, 0.0140192, -0.0058747, 0.3645, 0.0068359, 0.3645, -0.9545898, 0.3645, 0.2924805, 0.0140192, 0.0132601, 0.3645, -0.394043, 0.3645, -0.9238281, 0.3645, -0.1757812, , , , , , , , , , , , , , , , , , , , , , 
0.0145385, -0.0015106, 0.378, -0.534668, 0.378, -0.8681641, 0.378, 0.0698242, 0.0145385, -0.0075532, 0.378, 0.5024414, 0.378, -0.8334961, 0.378, 0.2011719, 0.0145385, -0.0052033, 0.378, 0.0136719, 0.378, -0.956543, 0.378, 0.2963867, 0.0145385, 0.0142672, 0.378, -0.3911133, 0.378, -0.9282227, 0.378, -0.1757812, , , , , , , , , , , , , , , , , , , , , , 
0.0150577, -0.0008392, 0.3915, -0.5283203, 0.3915, -0.8774414, 0.3915, 0.0742188, 0.0150577, -0.008896, 0.3915, 0.4946289, 0.3915, -0.8344727, 0.3915, 0.203125, 0.0150577, -0.0062104, 0.3915, 0.0283203, 0.3915, -0.9570312, 0.3915, 0.2910156, 0.0150577, 0.0152743, 0.3915, -0.3779297, 0.3915, -0.9321289, 0.3915, -0.1723633, , , , , , , , , , , , , , , , , , , , , , 
0.0155769, -0.0028534, 0.405, -0.5322266, 0.405, -0.8701172, 0.405, 0.0771484, 0.0155769, -0.0104067, 0.405, 0.5024414, 0.405, -0.8339844, 0.405, 0.1928711, 0.0155769, -0.005539, 0.405, 0.0444336, 0.405, -0.9541016, 0.405, 0.2885742, 0.0155769, 0.017792, 0.405, -0.3720703, 0.405, -0.9311523, 0.405, -0.1694336, , , , , , , , , , , , , , , , , , , , , , 
0.0160962, -0.0057069, 0.4185, -0.534668, 0.4185, -0.8671875, 0.4185, 0.0761719, 0.0160962, -0.014435, 0.4185, 0.5058594, 0.4185, -0.8339844, 0.4185, 0.1987305, 0.0160962, -0.0038605, 0.4185, 0.0400391, 0.4185, -0.9570312, 0.4185, 0.2885742, 0.0160962, 0.0216526, 0.4185, -0.3818359, 0.4185, -0.9287109, 0.4185, -0.1723633, , , , , , , , , , , , , , , , , , , , , , 
0.0166154, -0.0045319, 0.432, -0.5307617, 0.432, -0.871582, 0.432, 0.0771484, 0.0166154, -0.0166171, 0.432, 0.5068359, 0.432, -0.831543, 0.432, 0.1982422, 0.0166154, -0.002182, 0.432, 0.0209961, 0.432, -0.9604492, 0.432, 0.2944336, 0.0166154, 0.0246738, 0.432, -0.387207, 0.432, -0.9277344, 0.432, -0.1689453, , , , , , , , , , , , , , , , , , , , , , 
0.0171346, 0.0018463, 0.4455, -0.5317383, 0.4455, -0.8710938, 0.4455, 0.0742188, 0.0171346, -0.0164492, 0.4455, 0.4975586, 0.4455, -0.8388672, 0.4455, 0.1972656, 0.0171346, -0.0001678, 0.4455, 0.0131836, 0.4455, -0.9580078, 0.4455, 0.2954102, 0.0171346, 0.0261845, 0.4455, -0.3950195, 0.4455, -0.9257812, 0.4455, -0.1669922, , , , , , , , , , , , , , , , , , , , , , 
0.0176538, 0.0132601, 0.459, -0.5307617, 0.459, -0.8701172, 0.459, 0.0717773, 0.0176538, -0.0169528, 0.459, 0.4916992, 0.459, -0.8378906, 0.459, 0.1923828, 0.0176538, -0.0005035, 0.459, 0.0112305, 0.459, -0.9575195, 0.459, 0.2919922, 0.0176538, 0.026688, 0.459, -0.4038086, 0.459, -0.9248047, 0.459, -0.1733398, , , , , , , , , , , , , , , , , , , , , , 
0.0181731, 0.0226596, 0.4725, -0.5317383, 0.4725, -0.8735352, 0.4725, 0.0761719, 0.0181731, -0.0166171, 0.4725, 0.4975586, 0.4725, -0.8330078, 0.4725, 0.1982422, 0.0181731, -0.0025177, 0.4725, 0.0151367, 0.4725, -0.9541016, 0.4725, 0.2856445, 0.0181731, 0.0263523, 0.4725, -0.3920898, 0.4725, -0.9228516, 0.4725, -0.1743164, , , , , , , , , , , , , , , , , , , , , , 
0.0186923, 0.0265202, 0.486, -0.5283203, 0.486, -0.8652344, 0.486, 0.0756836, 0.0186923, -0.0146029, 0.486, 0.5048828, 0.486, -0.8310547, 0.486, 0.1889648, 0.0186923, -0.0035248, 0.486, 0.0161133, 0.486, -0.9545898, 0.486, 0.2841797, 0.0186923, 0.023331, 0.486, -0.3833008, 0.486, -0.9238281, 0.486, -0.168457, , , , , , , , , , , , , , , , , , , , , , 
0.0192115, 0.0327306, 0.4995, -0.527832, 0.4995, -0.8647461, 0.4995, 0.0751953, 0.0192115, -0.0139315, 0.4995, 0.5097656, 0.4995, -0.8325195, 0.4995, 0.1987305, 0.0192115, -0.0048676, 0.4995, 0.0224609, 0.4995, -0.9501953, 0.4995, 0.2880859, 0.0192115, 0.0199741, 0.4995, -0.3769531, 0.4995, -0.9223633, 0.4995, -0.1689453, , , , , , , , , , , , , , , , , , , , , , 
0.0197308, 0.0391089, 0.513, -0.5258789, 0.513, -0.8632812, 0.513, 0.0742188, 0.0197308, -0.0142672, 0.513, 0.4985352, 0.513, -0.828125, 0.513, 0.1879883, 0.0197308, -0.0048676, 0.513, 0.0332031, 0.513, -0.9472656, 0.513, 0.2910156, 0.0197308, 0.0193027, 0.513, -0.3789062, 0.513, -0.9204102, 0.513, -0.168457, , , , , , , , , , , , , , , , , , , , , , 
0.02025, 0.0381018, 0.5265, -0.5219727, 0.5265, -0.8652344, 0.5265, 0.0751953, 0.02025, -0.0139315, 0.5265, 0.4985352, 0.5265, -0.828125, 0.5265, 0.1899414, 0.02025, -0.005539, 0.5265, 0.0327148, 0.5265, -0.9501953, 0.5265, 0.2910156, 0.02025, 0.0199741, 0.5265, -0.3842773, 0.5265, -0.9204102, 0.5265, -0.168457, , , , , , , , , , , , , , , , , , , , , , 
0.0207692, 0.0354162, 0.54, -0.5317383, 0.54, -0.8701172, 0.54, 0.0766602, 0.0207692, -0.0125887, 0.54, 0.5043945, 0.54, -0.8378906, 0.54, 0.1933594, 0.0207692, -0.0068818, 0.54, 0.0224609, 0.54, -0.953125, 0.54, 0.2851562, 0.0207692, 0.0199741, 0.54, -0.3896484, 0.54, -0.921875, 0.54, -0.171875, , , , , , , , , , , , , , , , , , , , , , 
0.0212885, 0.0354162, 0.5535, -0.5283203, 0.5535, -0.8701172, 0.5535, 0.0751953, 0.0212885, -0.0119173, 0.5535, 0.5009766, 0.5535, -0.8334961, 0.5535, 0.1904297, 0.0212885, -0.0095674, 0.5535, 0.012207, 0.5535, -0.9555664, 0.5535, 0.2817383, 0.0212885, 0.0179599, 0.5535, -0.3867188, 0.5535, -0.9257812, 0.5535, -0.1699219, , , , , , , , , , , , , , , , , , , , , , 
0.0218077, 0.0310521, 0.567, -0.5224609, 0.567, -0.8710938, 0.567, 0.074707, 0.0218077, -0.0109102, 0.567, 0.5004883, 0.567, -0.8320312, 0.567, 0.1987305, 0.0218077, -0.0105745, 0.567, 0.0205078, 0.567, -0.953125, 0.567, 0.2885742, 0.0218077, 0.0159457, 0.567, -0.3798828, 0.567, -0.9228516, 0.567, -0.1699219, , , , , , , , , , , , , , , , , , , , , , 
0.0223269, 0.0260166, 0.5805, -0.5268555, 0.5805, -0.8686523, 0.5805, 0.0712891, 0.0223269, -0.0085603, 0.5805, 0.5029297, 0.5805, -0.831543, 0.5805, 0.1987305, 0.0223269, -0.0102388, 0.5805, 0.0253906, 0.5805, -0.9501953, 0.5805, 0.2880859, 0.0223269, 0.0169528, 0.5805, -0.3852539, 0.5805, -0.9189453, 0.5805, -0.1738281, , , , , , , , , , , , , , , , , , , , , , 
0.0228462, 0.0280308, 0.594, -0.534668, 0.594, -0.8676758, 0.594, 0.0751953, 0.0228462, -0.0072175, 0.594, 0.4975586, 0.594, -0.8334961, 0.594, 0.1948242, 0.0228462, -0.0102388, 0.594, 0.0205078, 0.594, -0.9536133, 0.594, 0.2880859, 0.0228462, 0.0172885, 0.594, -0.3852539, 0.594, -0.9179688, 0.594, -0.1757812, , , , , , , , , , , , , , , , , , , , , , 
0.0233654, 0.0287022, 0.6075, -0.534668, 0.6075, -0.8671875, 0.6075, 0.0717773, 0.0233654, -0.0062104, 0.6075, 0.4956055, 0.6075, -0.8300781, 0.6075, 0.1962891, 0.0233654, -0.0102388, 0.6075, 0.0107422, 0.6075, -0.9526367, 0.6075, 0.2885742, 0.0233654, 0.0159457, 0.6075, -0.3847656, 0.6075, -0.9238281, 0.6075, -0.1713867, , , , , , , , , , , , , , , , , , , , , , 
0.0238846, 0.023331, 0.621, -0.5307617, 0.621, -0.8666992, 0.621, 0.0766602, 0.0238846, -0.0063783, 0.621, 0.5024414, 0.621, -0.8369141, 0.621, 0.1894531, 0.0238846, -0.0095674, 0.621, 0.012207, 0.621, -0.9555664, 0.621, 0.2924805, 0.0238846, 0.0135958, 0.621, -0.3891602, 0.621, -0.9282227, 0.621, -0.168457, , , , , , , , , , , , , , , , , , , , , , 
0.0244038, 0.0193027, 0.6345, -0.5224609, 0.6345, -0.8706055, 0.6345, 0.0776367, 0.0244038, -0.0058747, 0.6345, 0.5043945, 0.6345, -0.8339844, 0.6345, 0.190918, 0.0244038, -0.0092317, 0.6345, 0.0273438, 0.6345, -0.953125, 0.6345, 0.2973633, 0.0244038, 0.0139315, 0.6345, -0.3925781, 0.6345, -0.925293, 0.6345, -0.1660156, , , , , , , , , , , , , , , , , , , , , , 
0.0249231, 0.0186313, 0.648, -0.527832, 0.648, -0.8686523, 0.648, 0.0717773, 0.0249231, -0.0057069, 0.648, 0.4985352, 0.648, -0.8325195, 0.648, 0.1923828, 0.0249231, -0.0090639, 0.648, 0.034668, 0.648, -0.9521484, 0.648, 0.2919922, 0.0249231, 0.014435, 0.648, -0.3959961, 0.648, -0.9233398, 0.648, -0.1723633, , , , , , , , , , , , , , , , , , , , , , 
0.0254423, 0.0213169, 0.6615, -0.5341797, 0.6615, -0.8735352, 0.6615, 0.0717773, 0.0254423, -0.0068818, 0.6615, 0.4921875, 0.6615, -0.8374023, 0.6615, 0.1938477, 0.0254423, -0.0095674, 0.6615, 0.0224609, 0.6615, -0.9555664, 0.6615, 0.2890625, 0.0254423, 0.012253, 0.6615, -0.3896484, 0.6615, -0.925293, 0.6615, -0.1733398, , , , , , , , , , , , , , , , , , , , , , 
0.0259615, 0.0199741, 0.675, -0.5332031, 0.675, -0.8706055, 0.675, 0.0751953, 0.0259615, -0.0075532, 0.675, 0.4990234, 0.675, -0.8330078, 0.675, 0.1928711, 0.0259615, -0.0102388, 0.675, 0.0063477, 0.675, -0.9536133, 0.675, 0.284668, 0.0259615, 0.0105745, 0.675, -0.3867188, 0.675, -0.9243164, 0.675, -0.1708984, , , , , , , , , , , , , , , , , , , , , , 
0.0264808, 0.0172885, 0.6885, -0.5336914, 0.6885, -0.8642578, 0.6885, 0.0683594, 0.0264808, -0.0075532, 0.6885, 0.5024414, 0.6885, -0.8344727, 0.6885, 0.1943359, 0.0264808, -0.011078, 0.6885, 0.0029297, 0.6885, -0.9492188, 0.6885, 0.2807617, 0.0264808, 0.0115816, 0.6885, -0.3828125, 0.6885, -0.9204102, 0.6885, -0.171875, , , , , , , , , , , , , , , , , , , , , , 
0.027, 0.0169528, 0.702, -0.5209961, 0.702, -0.8681641, 0.702, 0.0756836, 0.027, -0.0082246, 0.702, 0.5019531, 0.702, -0.8334961, 0.702, 0.1923828, 0.027, -0.0112459, 0.702, 0.0214844, 0.702, -0.9526367, 0.702, 0.2851562, 0.027, 0.0132601, 0.702, -0.3823242, 0.702, -0.9204102, 0.702, -0.1704102, , , , , , , , , , , , , , , , , , , , , , 
0.0275192, 0.018967, 0.7155, -0.5234375, 0.7155, -0.8691406, 0.7155, 0.0776367, 0.0275192, -0.0075532, 0.7155, 0.5073242, 0.7155, -0.8291016, 0.7155, 0.1928711, 0.0275192, -0.0112459, 0.7155, 0.0375977, 0.7155, -0.953125, 0.7155, 0.2885742, 0.0275192, 0.0132601, 0.7155, -0.3833008, 0.7155, -0.9194336, 0.7155, -0.1713867, , , , , , , , , , , , , , , , , , , , , , 
0.0280385, 0.0169528, 0.729, -0.5361328, 0.729, -0.8662109, 0.729, 0.0737305, 0.0280385, -0.0068818, 0.729, 0.5058594, 0.729, -0.831543, 0.729, 0.190918, 0.0280385, -0.0139315, 0.729, 0.0419922, 0.729, -0.9545898, 0.729, 0.293457, 0.0280385, 0.0112459, 0.729, -0.3754883, 0.729, -0.9267578, 0.729, -0.1689453, , , , , , , , , , , , , , , , , , , , , , 
0.0285577, 0.0119173, 0.7425, -0.5297852, 0.7425, -0.8696289, 0.7425, 0.0761719, 0.0285577, -0.005539, 0.7425, 0.4980469, 0.7425, -0.8374023, 0.7425, 0.1918945, 0.0285577, -0.0166171, 0.7425, 0.0332031, 0.7425, -0.953125, 0.7425, 0.2915039, 0.0285577, 0.0092317, 0.7425, -0.3769531, 0.7425, -0.9296875, 0.7425, -0.1694336, , , , , , , , , , , , , , , , , , , , , , 
0.0290769, 0.0085603, 0.756, -0.5268555, 0.756, -0.8701172, 0.756, 0.0795898, 0.0290769, -0.0035248, 0.756, 0.5004883, 0.756, -0.8354492, 0.756, 0.1899414, 0.0290769, -0.0169528, 0.756, 0.0249023, 0.756, -0.9501953, 0.756, 0.2866211, 0.0290769, 0.0058747, 0.756, -0.3828125, 0.756, -0.925293, 0.756, -0.1699219, , , , , , , , , , , , , , , , , , , , , , 
0.0295962, 0.005539, 0.7695, -0.527832, 0.7695, -0.8735352, 0.7695, 0.078125, 0.0295962, -0.0028534, 0.7695, 0.5043945, 0.7695, -0.8364258, 0.7695, 0.1865234, 0.0295962, -0.0157778, 0.7695, 0.0117188, 0.7695, -0.9526367, 0.7695, 0.2802734, 0.0295962, 0.005539, 0.7695, -0.3920898, 0.7695, -0.9243164, 0.7695, -0.1689453, , , , , , , , , , , , , , , , , , , , , , 
0.0301154, 0.0038605, 0.783, -0.5273438, 0.783, -0.8759766, 0.783, 0.0805664, 0.0301154, -0.0023499, 0.783, 0.5063477, 0.783, -0.8374023, 0.783, 0.1928711, 0.0301154, -0.0162814, 0.783, 0.0097656, 0.783, -0.9570312, 0.783, 0.2792969, 0.0301154, 0.0072175, 0.783, -0.394043, 0.783, -0.9248047, 0.783, -0.1674805, , , , , , , , , , , , , , , , , , , , , , 
0.0306346, 0.0048676, 0.7965, -0.5351562, 0.7965, -0.8710938, 0.7965, 0.0791016, 0.0306346, -0.0025177, 0.7965, 0.5053711, 0.7965, -0.8364258, 0.7965, 0.1899414, 0.0306346, -0.0176242, 0.7965, 0.0112305, 0.7965, -0.9575195, 0.7965, 0.2856445, 0.0306346, 0.0068818, 0.7965, -0.3955078, 0.7965, -0.9223633, 0.7965, -0.1674805, , , , , , , , , , , , , , , , , , , , , , 
0.0311538, 0.0045319, 0.81, -0.5322266, 0.81, -0.8701172, 0.81, 0.0776367, 0.0311538, -0.0025177, 0.81, 0.5058594, 0.81, -0.8330078, 0.81, 0.1953125, 0.0311538, -0.0179599, 0.81, 0.015625, 0.81, -0.956543, 0.81, 0.2900391, 0.0311538, 0.0038605, 0.81, -0.3911133, 0.81, -0.9243164, 0.81, -0.1694336, , , , , , , , , , , , , , , , , , , , , , 
0.0316731, 0.0035248, 0.8235, -0.5351562, 0.8235, -0.8681641, 0.8235, 0.0800781, 0.0316731, -0.0043641, 0.8235, 0.5092773, 0.8235, -0.8349609, 0.8235, 0.1982422, 0.0316731, -0.0179599, 0.8235, 0.0307617, 0.8235, -0.9570312, 0.8235, 0.2929688, 0.0316731, 0.0020142, 0.8235, -0.3837891, 0.8235, -0.9272461, 0.8235, -0.1699219, , , , , , , , , , , , , , , , , , , , , , 
0.0321923, 0.0005035, 0.837, -0.5410156, 0.837, -0.8652344, 0.837, 0.0776367, 0.0321923, -0.0052033, 0.837, 0.5092773, 0.837, -0.8334961, 0.837, 0.1953125, 0.0321923, -0.0193027, 0.837, 0.0444336, 0.837, -0.9584961, 0.837, 0.2958984, 0.0321923, 0.0035248, 0.837, -0.3774414, 0.837, -0.9282227, 0.837, -0.168457, , , , , , , , , , , , , , , , , , , , , , 
0.0327115, -0.0025177, 0.8505, -0.5439453, 0.8505, -0.8686523, 0.8505, 0.0786133, 0.0327115, -0.005539, 0.8505, 0.5068359, 0.8505, -0.8334961, 0.8505, 0.1967773, 0.0327115, -0.0218204, 0.8505, 0.0419922, 0.8505, -0.9594727, 0.8505, 0.2958984, 0.0327115, 0.0050355, 0.8505, -0.3764648, 0.8505, -0.9316406, 0.8505, -0.1704102, , , , , , , , , , , , , , , , , , , , , , 
0.0332308, -0.0031891, 0.864, -0.5439453, 0.864, -0.8696289, 0.864, 0.078125, 0.0332308, -0.0048676, 0.864, 0.5092773, 0.864, -0.8339844, 0.864, 0.1953125, 0.0332308, -0.0196384, 0.864, 0.0292969, 0.864, -0.9604492, 0.864, 0.2963867, 0.0332308, 0.0068818, 0.864, -0.3813477, 0.864, -0.9311523, 0.864, -0.1679688, , , , , , , , , , , , , , , , , , , , , , 
0.03375, -0.0048676, 0.8775, -0.5327148, 0.8775, -0.8696289, 0.8775, 0.0805664, 0.03375, -0.0052033, 0.8775, 0.5097656, 0.8775, -0.8330078, 0.8775, 0.1918945, 0.03375, -0.01561, 0.8775, 0.0219727, 0.8775, -0.9575195, 0.8775, 0.2954102, 0.03375, 0.0078889, 0.8775, -0.3969727, 0.8775, -0.9291992, 0.8775, -0.1679688, , , , , , , , , , , , , , , , , , , , , , 
0.0342692, -0.0041962, 0.891, -0.527832, 0.891, -0.8730469, 0.891, 0.0854492, 0.0342692, -0.005539, 0.891, 0.519043, 0.891, -0.8305664, 0.891, 0.1953125, 0.0342692, -0.012253, 0.891, 0.0151367, 0.891, -0.9555664, 0.891, 0.2919922, 0.0342692, 0.0092317, 0.891, -0.3999023, 0.891, -0.9213867, 0.891, -0.1689453, , , , , , , , , , , , , , , , , , , , , , 
0.0347885, -0.0001678, 0.9045, -0.5424805, 0.9045, -0.8618164, 0.9045, 0.0805664, 0.0347885, -0.0073854, 0.9045, 0.5102539, 0.9045, -0.831543, 0.9045, 0.1889648, 0.0347885, -0.0095674, 0.9045, 0.0112305, 0.9045, -0.9541016, 0.9045, 0.2866211, 0.0347885, 0.0109102, 0.9045, -0.3945312, 0.9045, -0.9223633, 0.9045, -0.1689453, , , , , , , , , , , , , , , , , , , , , , 
0.0353077, -0.0011749, 0.918, -0.5424805, 0.918, -0.8696289, 0.918, 0.0795898, 0.0353077, -0.0099031, 0.918, 0.4951172, 0.918, -0.8305664, 0.918, 0.1899414, 0.0353077, -0.0068818, 0.918, 0.0141602, 0.918, -0.956543, 0.918, 0.2861328, 0.0353077, 0.0139315, 0.918, -0.3886719, 0.918, -0.925293, 0.918, -0.1660156, , , , , , , , , , , , , , , , , , , , , , 
0.0358269, -0.0011749, 0.9315, -0.5371094, 0.9315, -0.8632812, 0.9315, 0.0874023, 0.0358269, -0.0109102, 0.9315, 0.503418, 0.9315, -0.8261719, 0.9315, 0.1889648, 0.0358269, -0.0031891, 0.9315, 0.0297852, 0.9315, -0.9550781, 0.9315, 0.2900391, 0.0358269, 0.0172885, 0.9315, -0.3833008, 0.9315, -0.9238281, 0.9315, -0.1655273, , , , , , , , , , , , , , , , , , , , , , 
0.0363462, 0.0016785, 0.945, -0.5322266, 0.945, -0.8579102, 0.945, 0.0766602, 0.0363462, -0.0130922, 0.945, 0.512207, 0.945, -0.824707, 0.945, 0.1918945, 0.0363462, -0.0008392, 0.945, 0.0390625, 0.945, -0.9516602, 0.945, 0.2885742, 0.0363462, 0.0182956, 0.945, -0.3833008, 0.945, -0.9223633, 0.945, -0.1665039, , , , , , , , , , , , , , , , , , , , , , 
0.0368654, 0.0065461, 0.9585, -0.5317383, 0.9585, -0.8676758, 0.9585, 0.0800781, 0.0368654, -0.0142672, 0.9585, 0.5229492, 0.9585, -0.8359375, 0.9585, 0.2011719, 0.0368654, 0.0010071, 0.9585, 0.0366211, 0.9585, -0.9545898, 0.9585, 0.2885742, 0.0368654, 0.0198062, 0.9585, -0.3847656, 0.9585, -0.9272461, 0.9585, -0.1665039, , , , , , , , , , , , , , , , , , , , , , 
0.0373846, 0.0149386, 0.972, -0.5273438, 0.972, -0.8730469, 0.972, 0.0883789, 0.0373846, -0.0139315, 0.972, 0.515625, 0.972, -0.8300781, 0.972, 0.1918945, 0.0373846, 0.0028534, 0.972, 0.0273438, 0.972, -0.9614258, 0.972, 0.2915039, 0.0373846, 0.023331, 0.972, -0.3847656, 0.972, -0.9267578, 0.972, -0.1645508, , , , , , , , , , , , , , , , , , , , , , 
0.0379038, 0.0236667, 0.9855, -0.5429688, 0.9855, -0.8569336, 0.9855, 0.0825195, 0.0379038, -0.0149386, 0.9855, 0.5200195, 0.9855, -0.8286133, 0.9855, 0.1943359, 0.0379038, 0.0025177, 0.9855, 0.0205078, 0.9855, -0.953125, 0.9855, 0.2915039, 0.0379038, 0.0246738, 0.9855, -0.3842773, 0.9855, -0.9243164, 0.9855, -0.1674805, , , , , , , , , , , , , , , , , , , , , , 
0.0384231, 0.0236667, 0.999, -0.5371094, 0.999, -0.8598633, 0.999, 0.0776367, 0.0384231, -0.014435, 0.999, 0.4990234, 0.999, -0.8305664, 0.999, 0.190918, 0.0384231, 0.0010071, 0.999, 0.0205078, 0.999, -0.9511719, 0.999, 0.2939453, 0.0384231, 0.023331, 0.999, -0.390625, 0.999, -0.9223633, 0.999, -0.1713867, , , , , , , , , , , , , , , , , , , , , , 
0.0389423, 0.0219883, 1.0125, -0.5219727, 1.0125, -0.8691406, 1.0125, 0.0898438, 0.0389423, -0.0137636, 1.0125, 0.5, 1.0125, -0.8227539, 1.0125, 0.1889648, 0.0389423, 0.0008392, 1.0125, 0.0224609, 1.0125, -0.9487305, 1.0125, 0.2910156, 0.0389423, 0.0193027, 1.0125, -0.3930664, 1.0125, -0.9165039, 1.0125, -0.1660156, , , , , , , , , , , , , , , , , , , , , , 
0.0394615, 0.0243381, 1.026, -0.5371094, 1.026, -0.859375, 1.026, 0.0708008, 0.0394615, -0.0119173, 1.026, 0.5092773, 1.026, -0.8256836, 1.026, 0.1918945, 0.0394615, 0.0011749, 1.026, 0.0292969, 1.026, -0.949707, 1.026, 0.2827148, 0.0394615, 0.0164492, 1.026, -0.3862305, 1.026, -0.9233398, 1.026, -0.1713867, , , , , , , , , , , , , , , , , , , , , , 
0.0399808, 0.0270237, 1.0395, -0.5317383, 1.0395, -0.8759766, 1.0395, 0.0786133, 0.0399808, -0.0097353, 1.0395, 0.5092773, 1.0395, -0.8408203, 1.0395, 0.2006836, 0.0399808, -0.0005035, 1.0395, 0.0166016, 1.0395, -0.9609375, 1.0395, 0.2875977, 0.0399808, 0.0179599, 1.0395, -0.3857422, 1.0395, -0.9296875, 1.0395, -0.1694336, , , , , , , , , , , , , , , , , , , , , , 
0.0405, 0.0280308, 1.053, -0.5317383, 1.053, -0.8696289, 1.053, 0.0820312, 0.0405, -0.0082246, 1.053, 0.5102539, 1.053, -0.8344727, 1.053, 0.1899414, 0.0405, -0.0045319, 1.053, 0.0102539, 1.053, -0.9624023, 1.053, 0.2924805, 0.0405, 0.0166171, 1.053, -0.3862305, 1.053, -0.9248047, 1.053, -0.1689453, , , , , , , , , , , , , , , , , , , , , , 
0.0410192, 0.0253452, 1.0665, -0.5556641, 1.0665, -0.8608398, 1.0665, 0.0766602, 0.0410192, -0.008896, 1.0665, 0.4990234, 1.0665, -0.8271484, 1.0665, 0.1943359, 0.0410192, -0.0068818, 1.0665, 0.0258789, 1.0665, -0.9536133, 1.0665, 0.2905273, 0.0410192, 0.0124208, 1.0665, -0.3886719, 1.0665, -0.9267578, 1.0665, -0.1708984, , , , , , , , , , , , , , , , , , , , , , 
0.0415385, 0.0240024, 1.08, -0.5395508, 1.08, -0.8652344, 1.08, 0.0800781, 0.0415385, -0.0099031, 1.08, 0.4985352, 1.08, -0.8237305, 1.08, 0.1958008, 0.0415385, -0.0070497, 1.08, 0.0288086, 1.08, -0.9570312, 1.08, 0.2905273, 0.0415385, 0.0102388, 1.08, -0.3925781, 1.08, -0.9262695, 1.08, -0.1616211, , , , , , , , , , , , , , , , , , , , , , 
0.0420577, 0.0209812, 1.0935, -0.5224609, 1.0935, -0.8657227, 1.0935, 0.0830078, 0.0420577, -0.0092317, 1.0935, 0.512207, 1.0935, -0.8286133, 1.0935, 0.1958008, 0.0420577, -0.0083925, 1.0935, 0.0263672, 1.0935, -0.953125, 1.0935, 0.2910156, 0.0420577, 0.0099031, 1.0935, -0.3950195, 1.0935, -0.9223633, 1.0935, -0.1606445, , , , , , , , , , , , , , , , , , , , , , 
0.0425769, 0.0169528, 1.107, -0.5268555, 1.107, -0.8642578, 1.107, 0.0849609, 0.0425769, -0.0078889, 1.107, 0.5161133, 1.107, -0.8237305, 1.107, 0.1928711, 0.0425769, -0.0085603, 1.107, 0.0229492, 1.107, -0.9472656, 1.107, 0.2890625, 0.0425769, 0.0095674, 1.107, -0.3881836, 1.107, -0.9169922, 1.107, -0.1669922, , , , , , , , , , , , , , , , , , , , , , 
0.0430962, 0.0139315, 1.1205, -0.5390625, 1.1205, -0.859375, 1.1205, 0.0839844, 0.0430962, -0.0052033, 1.1205, 0.5146484, 1.1205, -0.8237305, 1.1205, 0.1943359, 0.0430962, -0.008896, 1.1205, 0.0214844, 1.1205, -0.9472656, 1.1205, 0.2885742, 0.0430962, 0.0109102, 1.1205, -0.3793945, 1.1205, -0.9199219, 1.1205, -0.1669922, , , , , , , , , , , , , , , , , , , , , , 
0.0436154, 0.0157778, 1.134, -0.5488281, 1.134, -0.8520508, 1.134, 0.0805664, 0.0436154, -0.0041962, 1.134, 0.5009766, 1.134, -0.8222656, 1.134, 0.1865234, 0.0436154, -0.0078889, 1.134, 0.0302734, 1.134, -0.9506836, 1.134, 0.2866211, 0.0436154, 0.0109102, 1.134, -0.378418, 1.134, -0.9199219, 1.134, -0.1674805, , , , , , , , , , , , , , , , , , , , , , 
0.0441346, 0.0206455, 1.1475, -0.5224609, 1.1475, -0.8652344, 1.1475, 0.0830078, 0.0441346, -0.0036927, 1.1475, 0.5029297, 1.1475, -0.8266602, 1.1475, 0.1928711, 0.0441346, -0.0072175, 1.1475, 0.0322266, 1.1475, -0.9521484, 1.1475, 0.2851562, 0.0441346, 0.0090639, 1.1475, -0.3808594, 1.1475, -0.9208984, 1.1475, -0.1655273, , , , , , , , , , , , , , , , , , , , , , 
0.0446538, 0.0203098, 1.161, -0.5249023, 1.161, -0.871582, 1.161, 0.0859375, 0.0446538, -0.0043641, 1.161, 0.5200195, 1.161, -0.8300781, 1.161, 0.1918945, 0.0446538, -0.0068818, 1.161, 0.0336914, 1.161, -0.9501953, 1.161, 0.2836914, 0.0446538, 0.0085603, 1.161, -0.3813477, 1.161, -0.9194336, 1.161, -0.1645508, , , , , , , , , , , , , , , , , , , , , , 
0.0451731, 0.0172885, 1.1745, -0.5327148, 1.1745, -0.8554688, 1.1745, 0.0786133, 0.0451731, -0.005539, 1.1745, 0.5263672, 1.1745, -0.8354492, 1.1745, 0.1987305, 0.0451731, -0.0062104, 1.1745, 0.0253906, 1.1745, -0.9453125, 1.1745, 0.2802734, 0.0451731, 0.0095674, 1.1745, -0.3769531, 1.1745, -0.9238281, 1.1745, -0.1650391, , , , , , , , , , , , , , , , , , , , , , 
0.0456923, 0.0146029, 1.188, -0.5341797, 1.188, -0.8666992, 1.188, 0.0800781, 0.0456923, -0.0068818, 1.188, 0.5161133, 1.188, -0.8349609, 1.188, 0.1962891, 0.0456923, -0.0068818, 1.188, 0.0185547, 1.188, -0.9501953, 1.188, 0.2763672, 0.0456923, 0.0078889, 1.188, -0.371582, 1.188, -0.9296875, 1.188, -0.1674805, , , , , , , , , , , , , , , , , , , , , , 
0.0462115, 0.0139315, 1.2015, -0.5419922, 1.2015, -0.8652344, 1.2015, 0.0795898, 0.0462115, -0.0082246, 1.2015, 0.5112305, 1.2015, -0.8320312, 1.2015, 0.1967773, 0.0462115, -0.0068818, 1.2015, 0.0317383, 1.2015, -0.9545898, 1.2015, 0.2788086, 0.0462115, 0.0058747, 1.2015, -0.3813477, 1.2015, -0.9291992, 1.2015, -0.1640625, , , , , , , , , , , , , , , , , , , , , , 
0.0467308, 0.014435, 1.215, -0.5522461, 1.215, -0.8642578, 1.215, 0.0756836, 0.0467308, -0.0095674, 1.215, 0.5200195, 1.215, -0.8300781, 1.215, 0.1958008, 0.0467308, -0.0073854, 1.215, 0.0405273, 1.215, -0.9619141, 1.215, 0.2885742, 0.0467308, 0.005539, 1.215, -0.3842773, 1.215, -0.9291992, 1.215, -0.1660156, , , , , , , , , , , , , , , , , , , , , , 
0.04725, 0.0127565, 1.2285, -0.5463867, 1.2285, -0.862793, 1.2285, 0.0756836, 0.04725, -0.008896, 1.2285, 0.5180664, 1.2285, -0.8295898, 1.2285, 0.2060547, 0.04725, -0.008896, 1.2285, 0.0336914, 1.2285, -0.9589844, 1.2285, 0.2954102, 0.04725, 0.0057069, 1.2285, -0.3886719, 1.2285, -0.9272461, 1.2285, -0.1611328, , , , , , , , , , , , , , , , , , , , , , 
0.0477692, 0.0115816, 1.242, -0.5483398, 1.242, -0.8613281, 1.242, 0.0717773, 0.0477692, -0.0072175, 1.242, 0.5239258, 1.242, -0.8305664, 1.242, 0.2080078, 0.0477692, -0.008896, 1.242, 0.0239258, 1.242, -0.953125, 1.242, 0.2861328, 0.0477692, 0.0070497, 1.242, -0.3867188, 1.242, -0.9257812, 1.242, -0.1591797, , , , , , , , , , , , , , , , , , , , , , 
0.0482885, 0.0139315, 1.2555, -0.5463867, 1.2555, -0.8564453, 1.2555, 0.0722656, 0.0482885, -0.0068818, 1.2555, 0.5185547, 1.2555, -0.8198242, 1.2555, 0.2041016, 0.0482885, -0.0082246, 1.2555, 0.0273438, 1.2555, -0.9536133, 1.2555, 0.2827148, 0.0482885, 0.0065461, 1.2555, -0.3793945, 1.2555, -0.9262695, 1.2555, -0.1669922, , , , , , , , , , , , , , , , , , , , , , 
0.0488077, 0.0132601, 1.269, -0.5478516, 1.269, -0.8574219, 1.269, 0.0698242, 0.0488077, -0.0048676, 1.269, 0.5117188, 1.269, -0.8232422, 1.269, 0.2075195, 0.0488077, -0.0068818, 1.269, 0.0292969, 1.269, -0.9599609, 1.269, 0.2871094, 0.0488077, 0.002182, 1.269, -0.3789062, 1.269, -0.925293, 1.269, -0.1708984, , , , , , , , , , , , , , , , , , , , , , 
0.0493269, 0.0083925, 1.2825, -0.5546875, 1.2825, -0.8520508, 1.2825, 0.0639648, 0.0493269, -0.0031891, 1.2825, 0.5097656, 1.2825, -0.815918, 1.2825, 0.2128906, 0.0493269, -0.0075532, 1.2825, 0.0283203, 1.2825, -0.9589844, 1.2825, 0.2924805, 0.0493269, -0.0003357, 1.2825, -0.3828125, 1.2825, -0.9262695, 1.2825, -0.1699219, , , , , , , , , , , , , , , , , , , , , , 
0.0498462, 0.0058747, 1.296, -0.5600586, 1.296, -0.8583984, 1.296, 0.0698242, 0.0498462, -0.0015106, 1.296, 0.5253906, 1.296, -0.8154297, 1.296, 0.2163086, 0.0498462, -0.0104067, 1.296, 0.0258789, 1.296, -0.9575195, 1.296, 0.3022461, 0.0498462, 0.0001678, 1.296, -0.3935547, 1.296, -0.9316406, 1.296, -0.1665039, , , , , , , , , , , , , , , , , , , , , , 
0.0503654, 0.0045319, 1.3095, -0.5488281, 1.3095, -0.8525391, 1.3095, 0.0654297, 0.0503654, -0.002182, 1.3095, 0.5283203, 1.3095, -0.8071289, 1.3095, 0.2124023, 0.0503654, -0.0130922, 1.3095, 0.0200195, 1.3095, -0.9619141, 1.3095, 0.3076172, 0.0503654, 0.0011749, 1.3095, -0.4008789, 1.3095, -0.925293, 1.3095, -0.1635742, , , , , , , , , , , , , , , , , , , , , , 
0.0508846, 0.0005035, 1.323, -0.5532227, 1.323, -0.8603516, 1.323, 0.0673828, 0.0508846, -0.0041962, 1.323, 0.5288086, 1.323, -0.8149414, 1.323, 0.2211914, 0.0508846, -0.0135958, 1.323, 0.0161133, 1.323, -0.9589844, 1.323, 0.3022461, 0.0508846, 0.0025177, 1.323, -0.40625, 1.323, -0.9145508, 1.323, -0.1723633, , , , , , , , , , , , , , , , , , , , , , 
0.0514038, -0.0065461, 1.3365, -0.5527344, 1.3365, -0.8530273, 1.3365, 0.0678711, 0.0514038, -0.0041962, 1.3365, 0.5292969, 1.3365, -0.8222656, 1.3365, 0.2124023, 0.0514038, -0.0115816, 1.3365, 0.0166016, 1.3365, -0.9462891, 1.3365, 0.2851562, 0.0514038, 0.0031891, 1.3365, -0.3999023, 1.3365, -0.9169922, 1.3365, -0.1674805, , , , , , , , , , , , , , , , , , , , , , 
0.0519231, -0.0092317, 1.35, -0.5537109, 1.35, -0.8554688, 1.35, 0.0566406, 0.0519231, -0.0041962, 1.35, 0.5151367, 1.35, -0.8256836, 1.35, 0.2143555, 0.0519231, -0.0104067, 1.35, 0.0307617, 1.35, -0.9477539, 1.35, 0.277832, 0.0519231, 0.0048676, 1.35, -0.3793945, 1.35, -0.9287109, 1.35, -0.1547852, , , , , , , , , , , , , , , , , , , , , , 
0.0524423, -0.0090639, 1.3635, -0.5488281, 1.3635, -0.8554688, 1.3635, 0.0629883, 0.0524423, -0.0057069, 1.3635, 0.4912109, 1.3635, -0.8129883, 1.3635, 0.199707, 0.0524423, -0.0095674, 1.3635, 0.0458984, 1.3635, -0.9541016, 1.3635, 0.2836914, 0.0524423, 0.0072175, 1.3635, -0.3710938, 1.3635, -0.9331055, 1.3635, -0.1533203, , , , , , , , , , , , , , , , , , , , , , 
0.0529615, -0.0099031, 1.377, -0.5302734, 1.377, -0.8535156, 1.377, 0.0649414, 0.0529615, -0.0075532, 1.377, 0.5141602, 1.377, -0.8198242, 1.377, 0.206543, 0.0529615, -0.0083925, 1.377, 0.0390625, 1.377, -0.949707, 1.377, 0.2958984, 0.0529615, 0.0078889, 1.377, -0.3798828, 1.377, -0.9194336, 1.377, -0.1621094, , , , , , , , , , , , , , , , , , , , , , 
0.0534808, -0.0082246, 1.3905, -0.5102539, 1.3905, -0.8662109, 1.3905, 0.0742188, 0.0534808, -0.0075532, 1.3905, 0.5307617, 1.3905, -0.8188477, 1.3905, 0.1943359, 0.0534808, -0.0078889, 1.3905, 0.0380859, 1.3905, -0.9370117, 1.3905, 0.2900391, 0.0534808, 0.0082246, 1.3905, -0.3852539, 1.3905, -0.9160156, 1.3905, -0.1665039, , , , , , , , , , , , , , , , , , , , , , 
0.054, 0.0035248, 1.404, -0.5356445, 1.404, -0.8574219, 1.404, 0.0737305, 0.054, -0.0068818, 1.404, 0.5351562, 1.404, -0.8173828, 1.404, 0.206543, 0.054, -0.0082246, 1.404, 0.0454102, 1.404, -0.9399414, 1.404, 0.284668, 0.054, 0.0095674, 1.404, -0.3637695, 1.404, -0.9311523, 1.404, -0.168457, , , , , , , , , , , , , , , , , , , , , , 
0.0545192, 0.0130922, 1.4175, -0.5595703, 1.4175, -0.8457031, 1.4175, 0.0756836, 0.0545192, -0.0068818, 1.4175, 0.5366211, 1.4175, -0.8085938, 1.4175, 0.2026367, 0.0545192, -0.0085603, 1.4175, 0.0571289, 1.4175, -0.956543, 1.4175, 0.2807617, 0.0545192, 0.0112459, 1.4175, -0.3476562, 1.4175, -0.9365234, 1.4175, -0.1577148, , , , , , , , , , , , , , , , , , , , , , 
0.0550385, 0.0105745, 1.431, -0.543457, 1.431, -0.8544922, 1.431, 0.074707, 0.0550385, -0.0068818, 1.431, 0.5214844, 1.431, -0.8032227, 1.431, 0.1948242, 0.0550385, -0.0075532, 1.431, 0.0595703, 1.431, -0.9609375, 1.431, 0.2885742, 0.0550385, 0.0132601, 1.431, -0.3540039, 1.431, -0.9345703, 1.431, -0.1494141, , , , , , , , , , , , , , , , , , , , , , 
0.0555577, 0.0062104, 1.4445, -0.5532227, 1.4445, -0.8588867, 1.4445, 0.0634766, 0.0555577, -0.0062104, 1.4445, 0.5185547, 1.4445, -0.8046875, 1.4445, 0.2050781, 0.0555577, -0.0070497, 1.4445, 0.0576172, 1.4445, -0.9506836, 1.4445, 0.2993164, 0.0555577, 0.0166171, 1.4445, -0.3730469, 1.4445, -0.9296875, 1.4445, -0.1479492, , , , , , , , , , , , , , , , , , , , , , 
0.0560769, 0.0058747, 1.458, -0.5756836, 1.458, -0.8535156, 1.458, 0.0585938, 0.0560769, -0.0092317, 1.458, 0.5483398, 1.458, -0.8178711, 1.458, 0.2387695, 0.0560769, -0.0075532, 1.458, 0.0546875, 1.458, -0.9526367, 1.458, 0.2954102, 0.0560769, 0.0206455, 1.458, -0.3891602, 1.458, -0.9321289, 1.458, -0.1547852, , , , , , , , , , , , , , , , , , , , , , 
0.0565962, 0.0058747, 1.4715, -0.5751953, 1.4715, -0.8481445, 1.4715, 0.0449219, 0.0565962, -0.0152743, 1.4715, 0.5581055, 1.4715, -0.8310547, 1.4715, 0.2094727, 0.0565962, -0.0068818, 1.4715, 0.0405273, 1.4715, -0.9560547, 1.4715, 0.2763672, 0.0565962, 0.0234989, 1.4715, -0.3818359, 1.4715, -0.9370117, 1.4715, -0.1557617, , , , , , , , , , , , , , , , , , , , , , 
0.0571154, 0.0035248, 1.485, -0.5400391, 1.485, -0.8662109, 1.485, 0.0620117, 0.0571154, -0.0193027, 1.485, 0.5258789, 1.485, -0.8212891, 1.485, 0.2133789, 0.0571154, -0.0052033, 1.485, 0.0205078, 1.485, -0.9536133, 1.485, 0.269043, 0.0571154, 0.0238346, 1.485, -0.3706055, 1.485, -0.9335938, 1.485, -0.1455078, , , , , , , , , , , , , , , , , , , , , , 
0.0576346, 0.0038605, 1.4985, -0.5229492, 1.4985, -0.8618164, 1.4985, 0.0517578, 0.0576346, -0.0191348, 1.4985, 0.5224609, 1.4985, -0.8227539, 1.4985, 0.1958008, 0.0576346, -0.005539, 1.4985, 0.0117188, 1.4985, -0.9462891, 1.4985, 0.2548828, 0.0576346, 0.0243381, 1.4985, -0.3535156, 1.4985, -0.934082, 1.4985, -0.1533203, , , , , , , , , , , , , , , , , , , , , , 
0.0581538, 0.0102388, 1.512, -0.5541992, 1.512, -0.8666992, 1.512, 0.0498047, 0.0581538, -0.018967, 1.512, 0.5332031, 1.512, -0.8320312, 1.512, 0.2421875, 0.0581538, -0.0035248, 1.512, 0.0239258, 1.512, -0.9487305, 1.512, 0.2539062, 0.0581538, 0.0273594, 1.512, -0.340332, 1.512, -0.9477539, 1.512, -0.1591797, , , , , , , , , , , , , , , , , , , , , , 
0.0586731, 0.0186313, 1.5255, -0.6137695, 1.5255, -0.8510742, 1.5255, 0.0351562, 0.0586731, -0.017792, 1.5255, 0.5883789, 1.5255, -0.8295898, 1.5255, 0.2294922, 0.0586731, 0.0008392, 1.5255, 0.0478516, 1.5255, -0.9604492, 1.5255, 0.2714844, 0.0586731, 0.0270237, 1.5255, -0.3452148, 1.5255, -0.9438477, 1.5255, -0.1484375, , , , , , , , , , , , , , , , , , , , , , 
0.0591923, 0.0240024, 1.539, -0.6245117, 1.539, -0.862793, 1.539, 0.0463867, 0.0591923, -0.0149386, 1.539, 0.5551758, 1.539, -0.8212891, 1.539, 0.265625, 0.0591923, 0.0031891, 1.539, 0.0537109, 1.539, -0.965332, 1.539, 0.2807617, 0.0591923, 0.0229953, 1.539, -0.3754883, 1.539, -0.9404297, 1.539, -0.1425781, , , , , , , , , , , , , , , , , , , , , , 
0.0597115, 0.0246738, 1.5525, -0.6611328, 1.5525, -0.8579102, 1.5525, 0.0488281, 0.0597115, -0.0129244, 1.5525, 0.550293, 1.5525, -0.8071289, 1.5525, 0.2592773, 0.0597115, 0.0041962, 1.5525, 0.0239258, 1.5525, -0.9833984, 1.5525, 0.2880859, 0.0597115, 0.0209812, 1.5525, -0.3852539, 1.5525, -0.9350586, 1.5525, -0.1459961, , , , , , , , , , , , , , , , , , , , , , 
0.0602308, 0.0271916, 1.566, -0.6943359, 1.566, -0.831543, 1.566, 0.0117188, 0.0602308, -0.0132601, 1.566, 0.5488281, 1.566, -0.8237305, 1.566, 0.2827148, 0.0602308, 0.0041962, 1.566, -0.0097656, 1.566, -0.9848633, 1.566, 0.2832031, 0.0602308, 0.0206455, 1.566, -0.3974609, 1.566, -0.9433594, 1.566, -0.1367188, , , , , , , , , , , , , , , , , , , , , , 
0.06075, 0.0290379, 1.5795, -0.715332, 1.5795, -0.8173828, 1.5795, -0.0073242, 0.06075, -0.0115816, 1.5795, 0.5263672, 1.5795, -0.8364258, 1.5795, 0.2954102, 0.06075, 0.0045319, 1.5795, 0.0039062, 1.5795, -0.9682617, 1.5795, 0.2851562, 0.06075, 0.0172885, 1.5795, -0.4116211, 1.5795, -0.953125, 1.5795, -0.1176758, , , , , , , , , , , , , , , , , , , , , , 
0.0612692, 0.0276951, 1.593, -0.6582031, 1.593, -0.8149414, 1.593, -0.0024414, 0.0612692, -0.0115816, 1.593, 0.519043, 1.593, -0.7861328, 1.593, 0.2724609, 0.0612692, 0.0038605, 1.593, 0.0078125, 1.593, -0.9741211, 1.593, 0.3027344, 0.0612692, 0.0135958, 1.593, -0.4135742, 1.593, -0.9516602, 1.593, -0.1201172, , , , , , , , , , , , , , , , , , , , , , 
0.0617885, 0.0240024, 1.6065, -0.5922852, 1.6065, -0.8378906, 1.6065, 0.0092773, 0.0617885, -0.0129244, 1.6065, 0.5473633, 1.6065, -0.7675781, 1.6065, 0.2426758, 0.0617885, -0.0001678, 1.6065, -0.0161133, 1.6065, -0.9750977, 1.6065, 0.2993164, 0.0617885, 0.0112459, 1.6065, -0.4272461, 1.6065, -0.9213867, 1.6065, -0.1489258, , , , , , , , , , , , , , , , , , , , , , 
0.0623077, 0.0199741, 1.62, -0.5810547, 1.62, -0.8442383, 1.62, 0.0043945, 0.0623077, -0.0129244, 1.62, 0.5322266, 1.62, -0.7866211, 1.62, 0.2524414, 0.0623077, -0.0035248, 1.62, -0.0473633, 1.62, -0.9541016, 1.62, 0.2646484, 0.0623077, 0.0090639, 1.62, -0.4233398, 1.62, -0.890625, 1.62, -0.1875, , , , , , , , , , , , , , , , , , , , , , 
0.0628269, 0.0229953, 1.6335, -0.5859375, 1.6335, -0.8398438, 1.6335, -0.0009766, 0.0628269, -0.0115816, 1.6335, 0.5444336, 1.6335, -0.8295898, 1.6335, 0.2612305, 0.0628269, -0.0068818, 1.6335, -0.0473633, 1.6335, -0.9208984, 1.6335, 0.2138672, 0.0628269, 0.0078889, 1.6335, -0.3833008, 1.6335, -0.9023438, 1.6335, -0.1816406, , , , , , , , , , , , , , , , , , , , , , 
0.0633462, 0.0260166, 1.647, -0.5649414, 1.647, -0.8583984, 1.647, 0.0126953, 0.0633462, -0.0095674, 1.647, 0.5561523, 1.647, -0.8535156, 1.647, 0.2661133, 0.0633462, -0.0099031, 1.647, 0.0014648, 1.647, -0.9233398, 1.647, 0.1762695, 0.0633462, 0.0065461, 1.647, -0.3208008, 1.647, -0.9365234, 1.647, -0.1450195, , , , , , , , , , , , , , , , , , , , , , 
0.0638654, 0.0226596, 1.6605, -0.6020508, 1.6605, -0.8598633, 1.6605, 0.0297852, 0.0638654, -0.0090639, 1.6605, 0.5449219, 1.6605, -0.8374023, 1.6605, 0.2758789, 0.0638654, -0.0109102, 1.6605, 0.0341797, 1.6605, -0.9658203, 1.6605, 0.2089844, 0.0638654, 0.0078889, 1.6605, -0.2885742, 1.6605, -0.9648438, 1.6605, -0.1074219, , , , , , , , , , , , , , , , , , , , , , 
0.0643846, 0.017792, 1.674, -0.6801758, 1.674, -0.7963867, 1.674, -0.0146484, 0.0643846, -0.0068818, 1.674, 0.5522461, 1.674, -0.78125, 1.674, 0.2675781, 0.0643846, -0.0099031, 1.674, 0.0419922, 1.674, -0.9819336, 1.674, 0.253418, 0.0643846, 0.0112459, 1.674, -0.3232422, 1.674, -0.9658203, 1.674, -0.1088867, , , , , , , , , , , , , , , , , , , , , , 
0.0649038, 0.0149386, 1.6875, -0.6777344, 1.6875, -0.7836914, 1.6875, -0.0097656, 0.0649038, -0.0035248, 1.6875, 0.5244141, 1.6875, -0.765625, 1.6875, 0.2651367, 0.0649038, -0.0102388, 1.6875, 0.0444336, 1.6875, -0.984375, 1.6875, 0.2998047, 0.0649038, 0.0115816, 1.6875, -0.394043, 1.6875, -0.9204102, 1.6875, -0.137207, , , , , , , , , , , , , , , , , , , , , , 
0.0654231, 0.0129244, 1.701, -0.6171875, 1.701, -0.8085938, 1.701, -0.0039062, 0.0654231, -0.005539, 1.701, 0.5053711, 1.701, -0.765625, 1.701, 0.2871094, 0.0654231, -0.0117494, 1.701, 0.0253906, 1.701, -0.9570312, 1.701, 0.2553711, 0.0654231, 0.0072175, 1.701, -0.4082031, 1.701, -0.8911133, 1.701, -0.184082, , , , , , , , , , , , , , , , , , , , , , 
0.0659423, 0.0129244, 1.7145, -0.6171875, 1.7145, -0.8178711, 1.7145, -0.0039062, 0.0659423, -0.0085603, 1.7145, 0.5737305, 1.7145, -0.7753906, 1.7145, 0.2915039, 0.0659423, -0.012253, 1.7145, -0.0136719, 1.7145, -0.9394531, 1.7145, 0.2124023, 0.0659423, 0.0052033, 1.7145, -0.3295898, 1.7145, -0.9316406, 1.7145, -0.1831055, , , , , , , , , , , , , , , , , , , , , , 
0.0664615, 0.0142672, 1.728, -0.6508789, 1.728, -0.7958984, 1.728, 0.0004883, 0.0664615, -0.0092317, 1.728, 0.6181641, 1.728, -0.7700195, 1.728, 0.3120117, 0.0664615, -0.0115816, 1.728, -0.0209961, 1.728, -0.9677734, 1.728, 0.2568359, 0.0664615, 0.0065461, 1.728, -0.2963867, 1.728, -0.9780273, 1.728, -0.1318359, , , , , , , , , , , , , , , , , , , , , , 
0.0669808, 0.0119173, 1.7415, -0.6875, 1.7415, -0.7529297, 1.7415, -0.0024414, 0.0669808, -0.0092317, 1.7415, 0.6020508, 1.7415, -0.7314453, 1.7415, 0.3095703, 0.0669808, -0.012253, 1.7415, 0.0229492, 1.7415, -0.9946289, 1.7415, 0.3129883, 0.0669808, 0.0090639, 1.7415, -0.3212891, 1.7415, -0.9697266, 1.7415, -0.1191406, , , , , , , , , , , , , , , , , , , , , , 
0.0675, 0.0092317, 1.755, -0.7329102, 1.755, -0.7250977, 1.755, 0, 0.0675, -0.0078889, 1.755, 0.5625, 1.755, -0.6796875, 1.755, 0.3022461, 0.0675, -0.0137636, 1.755, 0.0576172, 1.755, -0.9931641, 1.755, 0.3237305, 0.0675, 0.0109102, 1.755, -0.4174805, 1.755, -0.9291992, 1.755, -0.1323242, , , , , , , , , , , , , , , , , , , , , , 
0.0680192, 0.0102388, 1.7685, -0.7426758, 1.7685, -0.7329102, 1.7685, 0.0102539, 0.0680192, -0.0045319, 1.7685, 0.5600586, 1.7685, -0.6884766, 1.7685, 0.2885742, 0.0680192, -0.0137636, 1.7685, 0.0444336, 1.7685, -0.9760742, 1.7685, 0.2919922, 0.0680192, 0.0104067, 1.7685, -0.4589844, 1.7685, -0.9077148, 1.7685, -0.1298828, , , , , , , , , , , , , , , , , , , , , , 
0.0685385, 0.0152743, 1.782, -0.7011719, 1.782, -0.7460938, 1.782, 0.0019531, 0.0685385, -0.0001678, 1.782, 0.5512695, 1.782, -0.7250977, 1.782, 0.2949219, 0.0685385, -0.0135958, 1.782, 0.0131836, 1.782, -0.956543, 1.782, 0.2573242, 0.0685385, 0.0087282, 1.782, -0.4038086, 1.782, -0.9306641, 1.782, -0.1176758, , , , , , , , , , , , , , , , , , , , , , 
0.0690577, 0.0223239, 1.7955, -0.6713867, 1.7955, -0.765625, 1.7955, 0.0195312, 0.0690577, 0.0030213, 1.7955, 0.5649414, 1.7955, -0.7592773, 1.7955, 0.2998047, 0.0690577, -0.0149386, 1.7955, 0.0029297, 1.7955, -0.956543, 1.7955, 0.215332, 0.0690577, 0.0077211, 1.7955, -0.3251953, 1.7955, -0.9462891, 1.7955, -0.1318359, , , , , , , , , , , , , , , , , , , , , , 
0.0695769, 0.021149, 1.809, -0.6518555, 1.809, -0.7905273, 1.809, 0.0102539, 0.0695769, 0.0018463, 1.809, 0.6044922, 1.809, -0.7617188, 1.809, 0.3120117, 0.0695769, -0.0193027, 1.809, 0.0136719, 1.809, -0.9624023, 1.809, 0.2104492, 0.0695769, 0.0058747, 1.809, -0.2915039, 1.809, -0.9643555, 1.809, -0.1342773, , , , , , , , , , , , , , , , , , , , , , 
0.0700962, 0.0112459, 1.8225, -0.6899414, 1.8225, -0.7573242, 1.8225, 0.0107422, 0.0700962, -0.0016785, 1.8225, 0.6196289, 1.8225, -0.7368164, 1.8225, 0.3237305, 0.0700962, -0.0226596, 1.8225, 0.0361328, 1.8225, -0.9736328, 1.8225, 0.234375, 0.0700962, 0.0045319, 1.8225, -0.3168945, 1.8225, -0.9760742, 1.8225, -0.1191406, , , , , , , , , , , , , , , , , , , , , , 
0.0706154, 0.0045319, 1.836, -0.7280273, 1.836, -0.7207031, 1.836, -0.0087891, 0.0706154, -0.0041962, 1.836, 0.6157227, 1.836, -0.7021484, 1.836, 0.3188477, 0.0706154, -0.0209812, 1.836, 0.0371094, 1.836, -0.9887695, 1.836, 0.2817383, 0.0706154, 0.0011749, 1.836, -0.3969727, 1.836, -0.9448242, 1.836, -0.1191406, , , , , , , , , , , , , , , , , , , , , , 
0.0711346, 0.0031891, 1.8495, -0.7094727, 1.8495, -0.7114258, 1.8495, -0.0102539, 0.0711346, -0.0048676, 1.8495, 0.5507812, 1.8495, -0.684082, 1.8495, 0.3291016, 0.0711346, -0.018967, 1.8495, 0.0253906, 1.8495, -0.9770508, 1.8495, 0.2553711, 0.0711346, 0.0003357, 1.8495, -0.4233398, 1.8495, -0.9033203, 1.8495, -0.1464844, , , , , , , , , , , , , , , , , , , , , , 
0.0716538, 0.0057069, 1.863, -0.7036133, 1.863, -0.7358398, 1.863, -0.0053711, 0.0716538, -0.0048676, 1.863, 0.5751953, 1.863, -0.6831055, 1.863, 0.3398438, 0.0716538, -0.0176242, 1.863, 0.0053711, 1.863, -0.9599609, 1.863, 0.2319336, 0.0716538, 0.0031891, 1.863, -0.3662109, 1.863, -0.9072266, 1.863, -0.15625, , , , , , , , , , , , , , , , , , , , , , 
0.0721731, 0.0075532, 1.8765, -0.7109375, 1.8765, -0.7260742, 1.8765, -0.0239258, 0.0721731, -0.0038605, 1.8765, 0.6025391, 1.8765, -0.7104492, 1.8765, 0.3427734, 0.0721731, -0.0157778, 1.8765, -0.0029297, 1.8765, -0.9628906, 1.8765, 0.2451172, 0.0721731, 0.0062104, 1.8765, -0.2949219, 1.8765, -0.9584961, 1.8765, -0.1381836, , , , , , , , , , , , , , , , , , , , , , 
0.0726923, 0.0045319, 1.89, -0.6987305, 1.89, -0.7260742, 1.89, -0.0092773, 0.0726923, -0.0038605, 1.89, 0.5981445, 1.89, -0.7119141, 1.89, 0.3393555, 0.0726923, -0.0157778, 1.89, 0.0380859, 1.89, -0.9824219, 1.89, 0.2451172, 0.0726923, 0.0062104, 1.89, -0.2880859, 1.89, -0.9785156, 1.89, -0.1289062, , , , , , , , , , , , , , , , , , , , , , 
0.0732115, 0.0011749, 1.9035, -0.7094727, 1.9035, -0.7319336, 1.9035, 0.0043945, 0.0732115, -0.0035248, 1.9035, 0.5991211, 1.9035, -0.6914062, 1.9035, 0.3330078, 0.0732115, -0.0169528, 1.9035, 0.059082, 1.9035, -0.9858398, 1.9035, 0.2373047, 0.0732115, 0.0075532, 1.9035, -0.3378906, 1.9035, -0.9604492, 1.9035, -0.1230469, , , , , , , , , , , , , , , , , , , , , , 
0.0737308, -0.0005035, 1.917, -0.7387695, 1.917, -0.7055664, 1.917, -0.0014648, 0.0737308, -0.005539, 1.917, 0.5917969, 1.917, -0.6791992, 1.917, 0.3339844, 0.0737308, -0.0152743, 1.917, 0.0268555, 1.917, -0.9707031, 1.917, 0.2368164, 0.0737308, 0.0119173, 1.917, -0.3793945, 1.917, -0.9160156, 1.917, -0.1401367, , , , , , , , , , , , , , , , , , , , , , 
0.07425, -0.0025177, 1.9305, -0.7446289, 1.9305, -0.6904297, 1.9305, 0.0058594, 0.07425, -0.0072175, 1.9305, 0.578125, 1.9305, -0.6821289, 1.9305, 0.3388672, 0.07425, -0.0127565, 1.9305, 0.0131836, 1.9305, -0.9599609, 1.9305, 0.2314453, 0.07425, 0.0149386, 1.9305, -0.3686523, 1.9305, -0.9365234, 1.9305, -0.1191406, , , , , , , , , , , , , , , , , , , , , , 
0.0747692, 0.0015106, 1.944, -0.7397461, 1.944, -0.7070312, 1.944, 0.0068359, 0.0747692, -0.008896, 1.944, 0.5864258, 1.944, -0.6791992, 1.944, 0.3408203, 0.0747692, -0.0095674, 1.944, 0.0019531, 1.944, -0.9614258, 1.944, 0.2441406, 0.0747692, 0.0159457, 1.944, -0.3515625, 1.944, -0.9541016, 1.944, -0.1035156, , , , , , , , , , , , , , , , , , , , , , 
0.0752885, 0.0072175, 1.9575, -0.7338867, 1.9575, -0.706543, 1.9575, 0.0161133, 0.0752885, -0.011078, 1.9575, 0.6064453, 1.9575, -0.675293, 1.9575, 0.3520508, 0.0752885, -0.0052033, 1.9575, 0.0146484, 1.9575, -0.9770508, 1.9575, 0.2373047, 0.0752885, 0.0152743, 1.9575, -0.3618164, 1.9575, -0.9394531, 1.9575, -0.1416016, , , , , , , , , , , , , , , , , , , , , , 
0.0758077, 0.0062104, 1.971, -0.7324219, 1.971, -0.6879883, 1.971, -0.0170898, 0.0758077, -0.0142672, 1.971, 0.6259766, 1.971, -0.6547852, 1.971, 0.3486328, 0.0758077, -0.0041962, 1.971, 0.0253906, 1.971, -0.9833984, 1.971, 0.2446289, 0.0758077, 0.01561, 1.971, -0.3671875, 1.971, -0.9277344, 1.971, -0.1474609, , , , , , , , , , , , , , , , , , , , , , 
0.0763269, 0.0052033, 1.9845, -0.7177734, 1.9845, -0.7026367, 1.9845, -0.0019531, 0.0763269, -0.0172885, 1.9845, 0.5986328, 1.9845, -0.6665039, 1.9845, 0.3500977, 0.0763269, -0.0045319, 1.9845, 0.0249023, 1.9845, -0.9638672, 1.9845, 0.2250977, 0.0763269, 0.0186313, 1.9845, -0.3413086, 1.9845, -0.9257812, 1.9845, -0.1435547, , , , , , , , , , , , , , , , , , , , , , 
0.0768462, 0.0097353, 1.998, -0.7089844, 1.998, -0.7045898, 1.998, 0.0043945, 0.0768462, -0.0194705, 1.998, 0.6098633, 1.998, -0.6748047, 1.998, 0.3461914, 0.0768462, -0.0028534, 1.998, 0.0273438, 1.998, -0.9462891, 1.998, 0.2172852, 0.0768462, 0.0199741, 1.998, -0.3129883, 1.998, -0.9370117, 1.998, -0.1230469, , , , , , , , , , , , , , , , , , , , , , 
0.0773654, 0.0166171, 2.0115, -0.7265625, 2.0115, -0.699707, 2.0115, 0.0151367, 0.0773654, -0.021149, 2.0115, 0.6289062, 2.0115, -0.6855469, 2.0115, 0.3447266, 0.0773654, -0.0041962, 2.0115, 0.0546875, 2.0115, -0.9604492, 2.0115, 0.2402344, 0.0773654, 0.023331, 2.0115, -0.3178711, 2.0115, -0.9541016, 2.0115, -0.112793, , , , , , , , , , , , , , , , , , , , , , 
0.0778846, 0.0251774, 2.025, -0.7490234, 2.025, -0.6796875, 2.025, 0.0200195, 0.0778846, -0.0203098, 2.025, 0.6420898, 2.025, -0.6552734, 2.025, 0.3442383, 0.0778846, -0.0075532, 2.025, 0.0864258, 2.025, -0.984375, 2.025, 0.2548828, 0.0778846, 0.0287022, 2.025, -0.3447266, 2.025, -0.9448242, 2.025, -0.1186523, , , , , , , , , , , , , , , , , , , , , , 
0.0784038, 0.0270237, 2.0385, -0.7783203, 2.0385, -0.6762695, 2.0385, 0.0166016, 0.0784038, -0.0182956, 2.0385, 0.6191406, 2.0385, -0.6445312, 2.0385, 0.3530273, 0.0784038, -0.0078889, 2.0385, 0.0634766, 2.0385, -0.9902344, 2.0385, 0.2548828, 0.0784038, 0.0303807, 2.0385, -0.3530273, 2.0385, -0.9404297, 2.0385, -0.1191406, , , , , , , , , , , , , , , , , , , , , , 
0.0789231, 0.0253452, 2.052, -0.7729492, 2.052, -0.6640625, 2.052, -0.0117188, 0.0789231, -0.0169528, 2.052, 0.6137695, 2.052, -0.6474609, 2.052, 0.3598633, 0.0789231, -0.0031891, 2.052, 0.0229492, 2.052, -0.9858398, 2.052, 0.2583008, 0.0789231, 0.0256809, 2.052, -0.3530273, 2.052, -0.9589844, 2.052, -0.1206055, , , , , , , , , , , , , , , , , , , , , , 
0.0794423, 0.0293736, 2.0655, -0.7392578, 2.0655, -0.6948242, 2.0655, 0.0166016, 0.0794423, -0.0149386, 2.0655, 0.6152344, 2.0655, -0.6591797, 2.0655, 0.355957, 0.0794423, -0.0015106, 2.0655, 0.0161133, 2.0655, -0.9829102, 2.0655, 0.246582, 0.0794423, 0.0196384, 2.0655, -0.3642578, 2.0655, -0.9511719, 2.0655, -0.1396484, , , , , , , , , , , , , , , , , , , , , , 
0.0799615, 0.0339055, 2.079, -0.7280273, 2.079, -0.6918945, 2.079, 0.0083008, 0.0799615, -0.0115816, 2.079, 0.6391602, 2.079, -0.65625, 2.079, 0.3525391, 0.0799615, -0.0038605, 2.079, 0.0170898, 2.079, -0.9750977, 2.079, 0.2338867, 0.0799615, 0.0182956, 2.079, -0.359375, 2.079, -0.9375, 2.079, -0.1420898, , , , , , , , , , , , , , , , , , , , , , 
0.0804808, 0.0313878, 2.0925, -0.7441406, 2.0925, -0.6826172, 2.0925, 0.0053711, 0.0804808, -0.0095674, 2.0925, 0.6333008, 2.0925, -0.6645508, 2.0925, 0.347168, 0.0804808, -0.0052033, 2.0925, 0.019043, 2.0925, -0.9648438, 2.0925, 0.230957, 0.0804808, 0.0193027, 2.0925, -0.3510742, 2.0925, -0.949707, 2.0925, -0.1162109, , , , , , , , , , , , , , , , , , , , , , 
0.081, 0.0271916, 2.106, -0.7548828, 2.106, -0.6953125, 2.106, 0.0151367, 0.081, -0.0087282, 2.106, 0.6152344, 2.106, -0.6723633, 2.106, 0.3447266, 0.081, -0.0052033, 2.106, 0.0322266, 2.106, -0.9628906, 2.106, 0.21875, 0.081, 0.0203098, 2.106, -0.3569336, 2.106, -0.9462891, 2.106, -0.1162109, , , , , , , , , , , , , , , , , , , , , , 
0.0815192, 0.0293736, 2.1195, -0.7504883, 2.1195, -0.6923828, 2.1195, 0.0112305, 0.0815192, -0.0070497, 2.1195, 0.6157227, 2.1195, -0.6723633, 2.1195, 0.3505859, 0.0815192, -0.0045319, 2.1195, 0.0522461, 2.1195, -0.9760742, 2.1195, 0.2231445, 0.0815192, 0.0186313, 2.1195, -0.3393555, 2.1195, -0.953125, 2.1195, -0.1201172, , , , , , , , , , , , , , , , , , , , , , 
0.0820385, 0.0307164, 2.133, -0.7480469, 2.133, -0.6889648, 2.133, 0.0107422, 0.0820385, -0.0078889, 2.133, 0.6313477, 2.133, -0.6713867, 2.133, 0.3540039, 0.0820385, -0.0036927, 2.133, 0.0439453, 2.133, -0.9819336, 2.133, 0.2392578, 0.0820385, 0.0166171, 2.133, -0.3227539, 2.133, -0.9555664, 2.133, -0.1245117, , , , , , , , , , , , , , , , , , , , , , 
0.0825577, 0.0298772, 2.1465, -0.7583008, 2.1465, -0.6777344, 2.1465, -0.0029297, 0.0825577, -0.0078889, 2.1465, 0.6201172, 2.1465, -0.6679688, 2.1465, 0.3569336, 0.0825577, -0.0035248, 2.1465, 0.0512695, 2.1465, -0.9741211, 2.1465, 0.234375, 0.0825577, 0.0152743, 2.1465, -0.3334961, 2.1465, -0.9541016, 2.1465, -0.1264648, , , , , , , , , , , , , , , , , , , , , , 
0.0830769, 0.0293736, 2.16, -0.753418, 2.16, -0.6894531, 2.16, -0.0048828, 0.0830769, -0.0072175, 2.16, 0.6074219, 2.16, -0.6757812, 2.16, 0.3603516, 0.0830769, -0.0028534, 2.16, 0.0717773, 2.16, -0.9648438, 2.16, 0.2285156, 0.0830769, 0.0146029, 2.16, -0.3378906, 2.16, -0.9384766, 2.16, -0.1245117, , , , , , , , , , , , , , , , , , , , , , 
0.0835962, 0.0273594, 2.1735, -0.7368164, 2.1735, -0.6948242, 2.1735, 0, 0.0835962, -0.0083925, 2.1735, 0.6235352, 2.1735, -0.6801758, 2.1735, 0.3657227, 0.0835962, -0.002182, 2.1735, 0.0410156, 2.1735, -0.9624023, 2.1735, 0.2089844, 0.0835962, 0.0159457, 2.1735, -0.3203125, 2.1735, -0.9394531, 2.1735, -0.1235352, , , , , , , , , , , , , , , , , , , , , , 
0.0841154, 0.026688, 2.187, -0.7451172, 2.187, -0.6743164, 2.187, -0.0043945, 0.0841154, -0.0072175, 2.187, 0.6391602, 2.187, -0.6665039, 2.187, 0.3735352, 0.0841154, -0.0031891, 2.187, 0.0297852, 2.187, -0.972168, 2.187, 0.2138672, 0.0841154, 0.0162814, 2.187, -0.3178711, 2.187, -0.9638672, 2.187, -0.1206055, , , , , , , , , , , , , , , , , , , , , , 
0.0846346, 0.0224918, 2.2005, -0.7890625, 2.2005, -0.6738281, 2.2005, -0.0117188, 0.0846346, -0.0036927, 2.2005, 0.6494141, 2.2005, -0.65625, 2.2005, 0.3740234, 0.0846346, -0.0041962, 2.2005, 0.0336914, 2.2005, -0.9819336, 2.2005, 0.2250977, 0.0846346, 0.0176242, 2.2005, -0.3393555, 2.2005, -0.9594727, 2.2005, -0.1274414, , , , , , , , , , , , , , , , , , , , , , 
0.0851538, 0.0152743, 2.214, -0.7871094, 2.214, -0.6762695, 2.214, -0.0151367, 0.0851538, -0.002182, 2.214, 0.6088867, 2.214, -0.6689453, 2.214, 0.3706055, 0.0851538, -0.0038605, 2.214, 0.0288086, 2.214, -0.9882812, 2.214, 0.2416992, 0.0851538, 0.017792, 2.214, -0.3701172, 2.214, -0.9375, 2.214, -0.1352539, , , , , , , , , , , , , , , , , , , , , , 
0.0856731, 0.0139315, 2.2275, -0.7426758, 2.2275, -0.6865234, 2.2275, 0.0024414, 0.0856731, -0.0016785, 2.2275, 0.5991211, 2.2275, -0.6669922, 2.2275, 0.3706055, 0.0856731, -0.0041962, 2.2275, 0.0400391, 2.2275, -0.9619141, 2.2275, 0.2255859, 0.0856731, 0.0172885, 2.2275, -0.340332, 2.2275, -0.9257812, 2.2275, -0.1308594, , , , , , , , , , , , , , , , , , , , , , 
0.0861923, 0.0166171, 2.241, -0.7504883, 2.241, -0.6625977, 2.241, -0.0083008, 0.0861923, -0.002182, 2.241, 0.6445312, 2.241, -0.6420898, 2.241, 0.3803711, 0.0861923, -0.0052033, 2.241, 0.046875, 2.241, -0.9570312, 2.241, 0.2265625, 0.0861923, 0.017792, 2.241, -0.3125, 2.241, -0.9599609, 2.241, -0.1152344, , , , , , , , , , , , , , , , , , , , , , 
0.0867115, 0.0164492, 2.2545, -0.800293, 2.2545, -0.6430664, 2.2545, -0.0268555, 0.0867115, -0.0045319, 2.2545, 0.6499023, 2.2545, -0.6430664, 2.2545, 0.3818359, 0.0867115, -0.0050355, 2.2545, 0.0292969, 2.2545, -0.9921875, 2.2545, 0.253418, 0.0867115, 0.0182956, 2.2545, -0.3500977, 2.2545, -0.9633789, 2.2545, -0.1259766, , , , , , , , , , , , , , , , , , , , , , 
0.0872308, 0.0142672, 2.268, -0.7832031, 2.268, -0.6547852, 2.268, -0.0249023, 0.0872308, -0.005539, 2.268, 0.597168, 2.268, -0.6416016, 2.268, 0.3808594, 0.0872308, -0.0031891, 2.268, 0.0170898, 2.268, -0.9960938, 2.268, 0.253418, 0.0872308, 0.01561, 2.268, -0.3959961, 2.268, -0.9233398, 2.268, -0.1503906, , , , , , , , , , , , , , , , , , , , , , 
0.08775, 0.0139315, 2.2815, -0.7392578, 2.2815, -0.6860352, 2.2815, -0.0126953, 0.08775, -0.0030213, 2.2815, 0.5986328, 2.2815, -0.6464844, 2.2815, 0.3730469, 0.08775, -0.0025177, 2.2815, -0.0180664, 2.2815, -0.9555664, 2.2815, 0.230957, 0.08775, 0.0119173, 2.2815, -0.3813477, 2.2815, -0.9160156, 2.2815, -0.1396484, , , , , , , , , , , , , , , , , , , , , , 
0.0882692, 0.0119173, 2.295, -0.7177734, 2.295, -0.6772461, 2.295, -0.0024414, 0.0882692, -0.0011749, 2.295, 0.6420898, 2.295, -0.6469727, 2.295, 0.3774414, 0.0882692, -0.0062104, 2.295, 0.0175781, 2.295, -0.9384766, 2.295, 0.2290039, 0.0882692, 0.0109102, 2.295, -0.3232422, 2.295, -0.9379883, 2.295, -0.1225586, , , , , , , , , , , , , , , , , , , , , , 
0.0887885, 0.0119173, 2.3085, -0.7407227, 2.3085, -0.6586914, 2.3085, -0.0097656, 0.0887885, -0.0001678, 2.3085, 0.6621094, 2.3085, -0.6455078, 2.3085, 0.3745117, 0.0887885, -0.0115816, 2.3085, 0.0649414, 2.3085, -0.9643555, 2.3085, 0.2338867, 0.0887885, 0.0092317, 2.3085, -0.3144531, 2.3085, -0.9492188, 2.3085, -0.1274414, , , , , , , , , , , , , , , , , , , , , , 
0.0893077, 0.0105745, 2.322, -0.7895508, 2.322, -0.6547852, 2.322, -0.0175781, 0.0893077, 0.0011749, 2.322, 0.6391602, 2.322, -0.644043, 2.322, 0.3730469, 0.0893077, -0.0135958, 2.322, 0.0717773, 2.322, -0.9799805, 2.322, 0.2431641, 0.0893077, 0.0070497, 2.322, -0.3461914, 2.322, -0.9453125, 2.322, -0.1230469, , , , , , , , , , , , , , , , , , , , , , 
0.0898269, 0.0075532, 2.3355, -0.7949219, 2.3355, -0.6645508, 2.3355, -0.0209961, 0.0898269, 0.0011749, 2.3355, 0.5854492, 2.3355, -0.6611328, 2.3355, 0.3725586, 0.0898269, -0.0139315, 2.3355, 0.0449219, 2.3355, -0.9853516, 2.3355, 0.2231445, 0.0898269, 0.0052033, 2.3355, -0.347168, 2.3355, -0.940918, 2.3355, -0.121582, , , , , , , , , , , , , , , , , , , , , , 
0.0903462, 0.0038605, 2.349, -0.7490234, 2.349, -0.6918945, 2.349, -0.0136719, 0.0903462, 0.0026856, 2.349, 0.6118164, 2.349, -0.6748047, 2.349, 0.375, 0.0903462, -0.0149386, 2.349, 0.0258789, 2.349, -0.9594727, 2.349, 0.2231445, 0.0903462, 0.0043641, 2.349, -0.3330078, 2.349, -0.9472656, 2.349, -0.1210938, , , , , , , , , , , , , , , , , , , , , , 
0.0908654, 0.0008392, 2.3625, -0.7397461, 2.3625, -0.6992188, 2.3625, -0.0004883, 0.0908654, 0.0041962, 2.3625, 0.6606445, 2.3625, -0.6806641, 2.3625, 0.3857422, 0.0908654, -0.0140993, 2.3625, 0.0390625, 2.3625, -0.9614258, 2.3625, 0.215332, 0.0908654, 0.0038605, 2.3625, -0.3144531, 2.3625, -0.9516602, 2.3625, -0.1303711, , , , , , , , , , , , , , , , , , , , , , 
0.0913846, -0.0018463, 2.376, -0.7871094, 2.376, -0.6499023, 2.376, -0.0180664, 0.0913846, 0.0030213, 2.376, 0.6523438, 2.376, -0.6489258, 2.376, 0.3833008, 0.0913846, -0.012253, 2.376, 0.0463867, 2.376, -0.980957, 2.376, 0.2514648, 0.0913846, 0.0038605, 2.376, -0.3325195, 2.376, -0.9550781, 2.376, -0.1298828, , , , , , , , , , , , , , , , , , , , , , 
0.0919038, -0.0048676, 2.3895, -0.7993164, 2.3895, -0.6494141, 2.3895, -0.0185547, 0.0919038, 0.0018463, 2.3895, 0.609375, 2.3895, -0.6347656, 2.3895, 0.3798828, 0.0919038, -0.0115816, 2.3895, 0.0527344, 2.3895, -0.9833984, 2.3895, 0.2368164, 0.0919038, 0.0058747, 2.3895, -0.3608398, 2.3895, -0.9472656, 2.3895, -0.1245117, , , , , , , , , , , , , , , , , , , , , , 
0.0924231, -0.0058747, 2.403, -0.7807617, 2.403, -0.6713867, 2.403, -0.003418, 0.0924231, 0.0018463, 2.403, 0.6137695, 2.403, -0.6391602, 2.403, 0.3774414, 0.0924231, -0.0105745, 2.403, 0.0112305, 2.403, -0.96875, 2.403, 0.222168, 0.0924231, 0.0085603, 2.403, -0.3618164, 2.403, -0.934082, 2.403, -0.1254883, , , , , , , , , , , , , , , , , , , , , , 
0.0929423, -0.0085603, 2.4165, -0.7861328, 2.4165, -0.6616211, 2.4165, -0.0146484, 0.0929423, -0.0005035, 2.4165, 0.65625, 2.4165, -0.6455078, 2.4165, 0.3833008, 0.0929423, -0.0082246, 2.4165, 0.0014648, 2.4165, -0.9692383, 2.4165, 0.2392578, 0.0929423, 0.0095674, 2.4165, -0.3486328, 2.4165, -0.9443359, 2.4165, -0.1235352, , , , , , , , , , , , , , , , , , , , , , 
0.0934615, -0.012253, 2.43, -0.7631836, 2.43, -0.6621094, 2.43, -0.0063477, 0.0934615, -0.005539, 2.43, 0.6547852, 2.43, -0.659668, 2.43, 0.3793945, 0.0934615, -0.005539, 2.43, 0.0429688, 2.43, -0.9794922, 2.43, 0.2382812, 0.0934615, 0.0099031, 2.43, -0.3564453, 2.43, -0.9453125, 2.43, -0.1274414, , , , , , , , , , , , , , , , , , , , , , 
0.0939808, -0.0077211, 2.4435, -0.7680664, 2.4435, -0.6640625, 2.4435, -0.0078125, 0.0939808, -0.0075532, 2.4435, 0.644043, 2.4435, -0.6435547, 2.4435, 0.3852539, 0.0939808, -0.0018463, 2.4435, 0.0722656, 2.4435, -0.9726562, 2.4435, 0.237793, 0.0939808, 0.012253, 2.4435, -0.3369141, 2.4435, -0.956543, 2.4435, -0.1245117, , , , , , , , , , , , , , , , , , , , , , 
0.0945, 0.0045319, 2.457, -0.7832031, 2.457, -0.6508789, 2.457, -0.0063477, 0.0945, -0.0065461, 2.457, 0.6430664, 2.457, -0.6279297, 2.457, 0.3764648, 0.0945, 0.0005035, 2.457, 0.0625, 2.457, -0.9746094, 2.457, 0.2314453, 0.0945, 0.0139315, 2.457, -0.3330078, 2.457, -0.9467773, 2.457, -0.1264648, , , , , , , , , , , , , , , , , , , , , , 
0.0950192, 0.0109102, 2.4705, -0.7875977, 2.4705, -0.644043, 2.4705, -0.0097656, 0.0950192, -0.0062104, 2.4705, 0.6416016, 2.4705, -0.6245117, 2.4705, 0.3803711, 0.0950192, 0.0001678, 2.4705, 0.0288086, 2.4705, -0.9741211, 2.4705, 0.2412109, 0.0950192, 0.0152743, 2.4705, -0.3486328, 2.4705, -0.9423828, 2.4705, -0.1274414, , , , , , , , , , , , , , , , , , , , , , 
0.0955385, 0.0109102, 2.484, -0.7875977, 2.484, -0.6577148, 2.484, -0.0058594, 0.0955385, -0.0082246, 2.484, 0.6425781, 2.484, -0.6342773, 2.484, 0.378418, 0.0955385, 0.0011749, 2.484, 0.0244141, 2.484, -0.9707031, 2.484, 0.2407227, 0.0955385, 0.0182956, 2.484, -0.3666992, 2.484, -0.9389648, 2.484, -0.1274414, , , , , , , , , , , , , , , , , , , , , , 
0.0960577, 0.008896, 2.4975, -0.7822266, 2.4975, -0.6567383, 2.4975, -0.0112305, 0.0960577, -0.0105745, 2.4975, 0.6499023, 2.4975, -0.6323242, 2.4975, 0.3725586, 0.0960577, 0.0005035, 2.4975, 0.0302734, 2.4975, -0.9731445, 2.4975, 0.2416992, 0.0960577, 0.0196384, 2.4975, -0.3676758, 2.4975, -0.9443359, 2.4975, -0.1254883, , , , , , , , , , , , , , , , , , , , , , 
0.0965769, 0.011078, 2.511, -0.7788086, 2.511, -0.65625, 2.511, -0.003418, 0.0965769, -0.0135958, 2.511, 0.6396484, 2.511, -0.6396484, 2.511, 0.3769531, 0.0965769, -0.0036927, 2.511, 0.0576172, 2.511, -0.9702148, 2.511, 0.2353516, 0.0965769, 0.0203098, 2.511, -0.3413086, 2.511, -0.9501953, 2.511, -0.1230469, , , , , , , , , , , , , , , , , , , , , , 
0.0970962, 0.0119173, 2.5245, -0.7724609, 2.5245, -0.6635742, 2.5245, -0.0136719, 0.0970962, -0.0169528, 2.5245, 0.6503906, 2.5245, -0.6367188, 2.5245, 0.3769531, 0.0970962, -0.0090639, 2.5245, 0.0551758, 2.5245, -0.9736328, 2.5245, 0.237793, 0.0970962, 0.0223239, 2.5245, -0.3227539, 2.5245, -0.9541016, 2.5245, -0.1254883, , , , , , , , , , , , , , , , , , , , , , 
0.0976154, 0.0112459, 2.538, -0.7768555, 2.538, -0.6674805, 2.538, -0.0087891, 0.0976154, -0.018967, 2.538, 0.6333008, 2.538, -0.6508789, 2.538, 0.3833008, 0.0976154, -0.0102388, 2.538, 0.0439453, 2.538, -0.9770508, 2.538, 0.2319336, 0.0976154, 0.0250095, 2.538, -0.3442383, 2.538, -0.9492188, 2.538, -0.1298828, , , , , , , , , , , , , , , , , , , , , , 
0.0981346, 0.0139315, 2.5515, -0.7836914, 2.5515, -0.6616211, 2.5515, -0.0209961, 0.0981346, -0.018967, 2.5515, 0.6430664, 2.5515, -0.6430664, 2.5515, 0.3847656, 0.0981346, -0.0090639, 2.5515, 0.0454102, 2.5515, -0.9746094, 2.5515, 0.2241211, 0.0981346, 0.0263523, 2.5515, -0.3334961, 2.5515, -0.9541016, 2.5515, -0.1254883, , , , , , , , , , , , , , , , , , , , , , 
0.0986538, 0.0203098, 2.565, -0.7861328, 2.565, -0.6694336, 2.565, -0.0131836, 0.0986538, -0.01561, 2.565, 0.6367188, 2.565, -0.6435547, 2.565, 0.3862305, 0.0986538, -0.0109102, 2.565, 0.0224609, 2.565, -0.9765625, 2.565, 0.2368164, 0.0986538, 0.0248417, 2.565, -0.3320312, 2.565, -0.9516602, 2.565, -0.1323242, , , , , , , , , , , , , , , , , , , , , , 
0.0991731, 0.0236667, 2.5785, -0.7734375, 2.5785, -0.6572266, 2.5785, -0.0136719, 0.0991731, -0.0132601, 2.5785, 0.6333008, 2.5785, -0.6494141, 2.5785, 0.3764648, 0.0991731, -0.0154421, 2.5785, 0.015625, 2.5785, -0.96875, 2.5785, 0.215332, 0.0991731, 0.0196384, 2.5785, -0.3442383, 2.5785, -0.9384766, 2.5785, -0.1274414, , , , , , , , , , , , , , , , , , , , , , 
0.0996923, 0.0240024, 2.592, -0.7714844, 2.592, -0.6616211, 2.592, -0.0092773, 0.0996923, -0.0142672, 2.592, 0.6230469, 2.592, -0.6445312, 2.592, 0.3828125, 0.0996923, -0.018967, 2.592, 0.0229492, 2.592, -0.9648438, 2.592, 0.2133789, 0.0996923, 0.01561, 2.592, -0.3544922, 2.592, -0.9433594, 2.592, -0.1201172, , , , , , , , , , , , , , , , , , , , , , 
0.1002115, 0.0260166, 2.6055, -0.7954102, 2.6055, -0.6396484, 2.6055, -0.0107422, 0.1002115, -0.0146029, 2.6055, 0.6567383, 2.6055, -0.6186523, 2.6055, 0.3779297, 0.1002115, -0.017792, 2.6055, 0.0449219, 2.6055, -0.9741211, 2.6055, 0.2392578, 0.1002115, 0.0152743, 2.6055, -0.3505859, 2.6055, -0.9575195, 2.6055, -0.1152344, , , , , , , , , , , , , , , , , , , , , , 
0.1007308, 0.0320592, 2.619, -0.8051758, 2.619, -0.6337891, 2.619, -0.0307617, 0.1007308, -0.0142672, 2.619, 0.6381836, 2.619, -0.6098633, 2.619, 0.3842773, 0.1007308, -0.0164492, 2.619, 0.0366211, 2.619, -0.9931641, 2.619, 0.2646484, 0.1007308, 0.0157778, 2.619, -0.3618164, 2.619, -0.9438477, 2.619, -0.1352539, , , , , , , , , , , , , , , , , , , , , , 
0.10125, 0.033402, 2.6325, -0.7895508, 2.6325, -0.65625, 2.6325, -0.0219727, 0.10125, -0.0112459, 2.6325, 0.6137695, 2.6325, -0.6420898, 2.6325, 0.378418, 0.10125, -0.0162814, 2.6325, 0.0546875, 2.6325, -0.9770508, 2.6325, 0.2436523, 0.10125, 0.0132601, 2.6325, -0.3574219, 2.6325, -0.9350586, 2.6325, -0.1489258, , , , , , , , , , , , , , , , , , , , , , 
0.1017692, 0.0280308, 2.646, -0.734375, 2.646, -0.6728516, 2.646, -0.0166016, 0.1017692, -0.0082246, 2.646, 0.6391602, 2.646, -0.637207, 2.646, 0.3725586, 0.1017692, -0.01561, 2.646, 0.0615234, 2.646, -0.9511719, 2.646, 0.2099609, 0.1017692, 0.0082246, 2.646, -0.3330078, 2.646, -0.9423828, 2.646, -0.1420898, , , , , , , , , , , , , , , , , , , , , , 
0.1022885, 0.024506, 2.6595, -0.7514648, 2.6595, -0.6791992, 2.6595, -0.003418, 0.1022885, -0.0057069, 2.6595, 0.6513672, 2.6595, -0.6640625, 2.6595, 0.3657227, 0.1022885, -0.0132601, 2.6595, 0.0258789, 2.6595, -0.9604492, 2.6595, 0.2172852, 0.1022885, 0.005539, 2.6595, -0.2929688, 2.6595, -0.9501953, 2.6595, -0.1166992, , , , , , , , , , , , , , , , , , , , , , 
0.1028077, 0.0226596, 2.673, -0.7729492, 2.673, -0.6552734, 2.673, -0.0073242, 0.1028077, -0.0028534, 2.673, 0.6347656, 2.673, -0.6547852, 2.673, 0.3632812, 0.1028077, -0.0146029, 2.673, 0.0258789, 2.673, -0.9663086, 2.673, 0.2060547, 0.1028077, 0.0057069, 2.673, -0.3305664, 2.673, -0.9448242, 2.673, -0.1054688, , , , , , , , , , , , , , , , , , , , , , 
0.1033269, 0.0223239, 2.6865, -0.793457, 2.6865, -0.6630859, 2.6865, -0.0009766, 0.1033269, -0.002182, 2.6865, 0.6293945, 2.6865, -0.65625, 2.6865, 0.3652344, 0.1033269, -0.0157778, 2.6865, 0.0595703, 2.6865, -0.9697266, 2.6865, 0.2202148, 0.1033269, 0.0065461, 2.6865, -0.3681641, 2.6865, -0.9375, 2.6865, -0.1123047, , , , , , , , , , , , , , , , , , , , , , 
0.1038462, 0.0226596, 2.7, -0.7890625, 2.7, -0.6611328, 2.7, -0.015625, 0.1038462, -0.0041962, 2.7, 0.625, 2.7, -0.6416016, 2.7, 0.375, 0.1038462, -0.01561, 2.7, 0.046875, 2.7, -0.9838867, 2.7, 0.2290039, 0.1038462, 0.0072175, 2.7, -0.3354492, 2.7, -0.9604492, 2.7, -0.1196289, , , , , , , , , , , , , , , , , , , , , , 
0.1043654, 0.0219883, 2.7135, -0.7719727, 2.7135, -0.659668, 2.7135, -0.0063477, 0.1043654, -0.0075532, 2.7135, 0.6455078, 2.7135, -0.6362305, 2.7135, 0.3774414, 0.1043654, -0.0151064, 2.7135, 0.027832, 2.7135, -0.984375, 2.7135, 0.2431641, 0.1043654, 0.0072175, 2.7135, -0.3168945, 2.7135, -0.9536133, 2.7135, -0.1328125, , , , , , , , , , , , , , , , , , , , , , 
0.1048846, 0.0240024, 2.727, -0.7680664, 2.727, -0.6469727, 2.727, -0.0195312, 0.1048846, -0.0102388, 2.727, 0.6523438, 2.727, -0.6176758, 2.727, 0.3789062, 0.1048846, -0.0135958, 2.727, 0.0273438, 2.727, -0.9750977, 2.727, 0.2529297, 0.1048846, 0.0063783, 2.727, -0.34375, 2.727, -0.9389648, 2.727, -0.137207, , , , , , , , , , , , , , , , , , , , , , 
0.1054038, 0.0240024, 2.7405, -0.7543945, 2.7405, -0.6538086, 2.7405, -0.0097656, 0.1054038, -0.0112459, 2.7405, 0.6318359, 2.7405, -0.6196289, 2.7405, 0.3803711, 0.1054038, -0.0119173, 2.7405, 0.0546875, 2.7405, -0.9584961, 2.7405, 0.230957, 0.1054038, 0.0045319, 2.7405, -0.3671875, 2.7405, -0.9262695, 2.7405, -0.1352539, , , , , , , , , , , , , , , , , , , , , , 
0.1059231, 0.0199741, 2.754, -0.7714844, 2.754, -0.6679688, 2.754, -0.0112305, 0.1059231, -0.0112459, 2.754, 0.6469727, 2.754, -0.6313477, 2.754, 0.3735352, 0.1059231, -0.0109102, 2.754, 0.0473633, 2.754, -0.9580078, 2.754, 0.2333984, 0.1059231, 0.0030213, 2.754, -0.3447266, 2.754, -0.9379883, 2.754, -0.1313477, , , , , , , , , , , , , , , , , , , , , , 
0.1064423, 0.0169528, 2.7675, -0.7685547, 2.7675, -0.6582031, 2.7675, -0.0019531, 0.1064423, -0.0102388, 2.7675, 0.6396484, 2.7675, -0.6474609, 2.7675, 0.3720703, 0.1064423, -0.0095674, 2.7675, 0.0244141, 2.7675, -0.9770508, 2.7675, 0.2285156, 0.1064423, 0.0041962, 2.7675, -0.3208008, 2.7675, -0.9560547, 2.7675, -0.1240234, , , , , , , , , , , , , , , , , , , , , , 
0.1069615, 0.0159457, 2.781, -0.7768555, 2.781, -0.6704102, 2.781, 0.0024414, 0.1069615, -0.0090639, 2.781, 0.65625, 2.781, -0.6464844, 2.781, 0.3642578, 0.1069615, -0.0085603, 2.781, 0.0532227, 2.781, -0.9790039, 2.781, 0.2275391, 0.1069615, 0.0065461, 2.781, -0.3237305, 2.781, -0.9541016, 2.781, -0.1083984, , , , , , , , , , , , , , , , , , , , , , 
0.1074808, 0.0137636, 2.7945, -0.7915039, 2.7945, -0.6577148, 2.7945, -0.0063477, 0.1074808, -0.0072175, 2.7945, 0.6333008, 2.7945, -0.6494141, 2.7945, 0.3623047, 0.1074808, -0.008896, 2.7945, 0.0644531, 2.7945, -0.96875, 2.7945, 0.2167969, 0.1074808, 0.0072175, 2.7945, -0.3300781, 2.7945, -0.9492188, 2.7945, -0.1083984, , , , , , , , , , , , , , , , , , , , , , 
0.108, 0.0078889, 2.808, -0.7875977, 2.808, -0.6606445, 2.808, -0.0092773, 0.108, -0.0062104, 2.808, 0.6303711, 2.808, -0.6474609, 2.808, 0.3666992, 0.108, -0.0072175, 2.808, 0.0546875, 2.808, -0.9682617, 2.808, 0.2158203, 0.108, 0.0068818, 2.808, -0.340332, 2.808, -0.9487305, 2.808, -0.1196289, , , , , , , , , , , , , , , , , , , , , , 
0.1085192, 0.0045319, 2.8215, -0.7700195, 2.8215, -0.6787109, 2.8215, -0.0063477, 0.1085192, -0.0041962, 2.8215, 0.6367188, 2.8215, -0.659668, 2.8215, 0.3803711, 0.1085192, -0.0077211, 2.8215, 0.0439453, 2.8215, -0.9702148, 2.8215, 0.2060547, 0.1085192, 0.0045319, 2.8215, -0.3208008, 2.8215, -0.9501953, 2.8215, -0.1391602, , , , , , , , , , , , , , , , , , , , , , 
0.1090385, 0.0048676, 2.835, -0.7617188, 2.835, -0.6801758, 2.835, -0.0097656, 0.1090385, -0.0015106, 2.835, 0.6572266, 2.835, -0.6640625, 2.835, 0.3891602, 0.1090385, -0.0099031, 2.835, 0.019043, 2.835, -0.9814453, 2.835, 0.2246094, 0.1090385, 0.0018463, 2.835, -0.3149414, 2.835, -0.9584961, 2.835, -0.1269531, , , , , , , , , , , , , , , , , , , , , , 
0.1095577, 0.0045319, 2.8485, -0.7807617, 2.8485, -0.6425781, 2.8485, -0.015625, 0.1095577, -0.0005035, 2.8485, 0.6591797, 2.8485, -0.6293945, 2.8485, 0.3935547, 0.1095577, -0.0109102, 2.8485, 0.0117188, 2.8485, -0.9829102, 2.8485, 0.2319336, 0.1095577, -0.0001678, 2.8485, -0.34375, 2.8485, -0.9526367, 2.8485, -0.1220703, , , , , , , , , , , , , , , , , , , , , , 
0.1100769, 0.0062104, 2.862, -0.8051758, 2.862, -0.6333008, 2.862, -0.0214844, 0.1100769, -0.0028534, 2.862, 0.6435547, 2.862, -0.6030273, 2.862, 0.3891602, 0.1100769, -0.0112459, 2.862, 0.0458984, 2.862, -0.9921875, 2.862, 0.2519531, 0.1100769, 0.0018463, 2.862, -0.3681641, 2.862, -0.9370117, 2.862, -0.1376953, , , , , , , , , , , , , , , , , , , , , , 
0.1105962, 0.0075532, 2.8755, -0.8046875, 2.8755, -0.6352539, 2.8755, -0.0268555, 0.1105962, -0.0048676, 2.8755, 0.6220703, 2.8755, -0.6113281, 2.8755, 0.3798828, 0.1105962, -0.0092317, 2.8755, 0.0610352, 2.8755, -0.9833984, 2.8755, 0.2592773, 0.1105962, 0.0038605, 2.8755, -0.3598633, 2.8755, -0.9301758, 2.8755, -0.1333008, , , , , , , , , , , , , , , , , , , , , , 
0.1111154, 0.0025177, 2.889, -0.7646484, 2.889, -0.6611328, 2.889, -0.0151367, 0.1111154, -0.0052033, 2.889, 0.6225586, 2.889, -0.6420898, 2.889, 0.3842773, 0.1111154, -0.0085603, 2.889, 0.0410156, 2.889, -0.9545898, 2.889, 0.215332, 0.1111154, 0.0041962, 2.889, -0.3212891, 2.889, -0.9360352, 2.889, -0.1254883, , , , , , , , , , , , , , , , , , , , , , 
0.1116346, -0.0025177, 2.9025, -0.7485352, 2.9025, -0.6821289, 2.9025, -0.0097656, 0.1116346, -0.0041962, 2.9025, 0.6694336, 2.9025, -0.659668, 2.9025, 0.3842773, 0.1116346, -0.0102388, 2.9025, 0.0341797, 2.9025, -0.9545898, 2.9025, 0.2089844, 0.1116346, 0.0031891, 2.9025, -0.3139648, 2.9025, -0.9589844, 2.9025, -0.1289062, , , , , , , , , , , , , , , , , , , , , , 
0.1121538, -0.0028534, 2.916, -0.7822266, 2.916, -0.6577148, 2.916, -0.0068359, 0.1121538, -0.0031891, 2.916, 0.6787109, 2.916, -0.6391602, 2.916, 0.3925781, 0.1121538, -0.0095674, 2.916, 0.015625, 2.916, -0.9858398, 2.916, 0.2504883, 0.1121538, 0.0052033, 2.916, -0.3574219, 2.916, -0.9536133, 2.916, -0.1352539, , , , , , , , , , , , , , , , , , , , , , 
0.1126731, -0.0028534, 2.9295, -0.8291016, 2.9295, -0.6289062, 2.9295, -0.0161133, 0.1126731, -0.0028534, 2.9295, 0.6606445, 2.9295, -0.6318359, 2.9295, 0.3891602, 0.1126731, -0.0083925, 2.9295, 0.0219727, 2.9295, -0.9990234, 2.9295, 0.2436523, 0.1126731, 0.0095674, 2.9295, -0.3842773, 2.9295, -0.9462891, 2.9295, -0.1230469, , , , , , , , , , , , , , , , , , , , , , 
0.1131923, -0.0045319, 2.943, -0.8222656, 2.943, -0.6386719, 2.943, -0.0170898, 0.1131923, -0.0028534, 2.943, 0.6118164, 2.943, -0.6157227, 2.943, 0.3759766, 0.1131923, -0.0093996, 2.943, 0.0273438, 2.943, -0.9741211, 2.943, 0.2270508, 0.1131923, 0.0104067, 2.943, -0.3686523, 2.943, -0.9433594, 2.943, -0.125, , , , , , , , , , , , , , , , , , , , , , 
0.1137115, -0.0048676, 2.9565, -0.7841797, 2.9565, -0.6606445, 2.9565, 0.0063477, 0.1137115, -0.0041962, 2.9565, 0.6235352, 2.9565, -0.6245117, 2.9565, 0.3764648, 0.1137115, -0.0099031, 2.9565, 0.0175781, 2.9565, -0.9628906, 2.9565, 0.2280273, 0.1137115, 0.0109102, 2.9565, -0.3505859, 2.9565, -0.9384766, 2.9565, -0.1308594, , , , , , , , , , , , , , , , , , , , , , 
0.1142308, -0.0041962, 2.97, -0.7705078, 2.97, -0.6474609, 2.97, 0.0029297, 0.1142308, -0.0046998, 2.97, 0.6723633, 2.97, -0.6191406, 2.97, 0.378418, 0.1142308, -0.0072175, 2.97, 0.0449219, 2.97, -0.9643555, 2.97, 0.2548828, 0.1142308, 0.0119173, 2.97, -0.3256836, 2.97, -0.9414062, 2.97, -0.1259766, , , , , , , , , , , , , , , , , , , , , , 
0.11475, -0.0001678, 2.9835, -0.7856445, 2.9835, -0.640625, 2.9835, -0.0102539, 0.11475, -0.0072175, 2.9835, 0.6660156, 2.9835, -0.6308594, 2.9835, 0.378418, 0.11475, -0.0063783, 2.9835, 0.0751953, 2.9835, -0.9672852, 2.9835, 0.2416992, 0.11475, 0.0142672, 2.9835, -0.340332, 2.9835, -0.956543, 2.9835, -0.1206055, , , , , , , , , , , , , , , , , , , , , , 
0.1152692, 0.0078889, 2.997, -0.7885742, 2.997, -0.6640625, 2.997, -0.0063477, 0.1152692, -0.0119173, 2.997, 0.6289062, 2.997, -0.652832, 2.997, 0.3774414, 0.1152692, -0.0062104, 2.997, 0.0859375, 2.997, -0.9760742, 2.997, 0.2270508, 0.1152692, 0.0186313, 2.997, -0.3657227, 2.997, -0.9560547, 2.997, -0.128418, , , , , , , , , , , , , , , , , , , , , , 
0.1157885, 0.0119173, 3.0105, -0.7875977, 3.0105, -0.6855469, 3.0105, -0.0053711, 0.1157885, -0.0162814, 3.0105, 0.6445312, 3.0105, -0.6582031, 3.0105, 0.3725586, 0.1157885, -0.0036927, 3.0105, 0.0097656, 3.0105, -0.9799805, 3.0105, 0.2338867, 0.1157885, 0.0196384, 3.0105, -0.3510742, 3.0105, -0.953125, 3.0105, -0.1313477, , , , , , , , , , , , , , , , , , , , , , 
0.1163077, 0.0068818, 3.024, -0.7832031, 3.024, -0.6811523, 3.024, 0, 0.1163077, -0.018967, 3.024, 0.6630859, 3.024, -0.668457, 3.024, 0.3793945, 0.1163077, -0.0015106, 3.024, -0.0092773, 3.024, -0.9926758, 3.024, 0.2265625, 0.1163077, 0.0182956, 3.024, -0.3476562, 3.024, -0.9682617, 3.024, -0.1210938, , , , , , , , , , , , , , , , , , , , , , 
0.1168269, 0.0038605, 3.0375, -0.7861328, 3.0375, -0.6640625, 3.0375, -0.0053711, 0.1168269, -0.0196384, 3.0375, 0.671875, 3.0375, -0.6494141, 3.0375, 0.3774414, 0.1168269, -0.0015106, 3.0375, 0.0546875, 3.0375, -0.9892578, 3.0375, 0.2392578, 0.1168269, 0.0199741, 3.0375, -0.3447266, 3.0375, -0.9638672, 3.0375, -0.1118164, , , , , , , , , , , , , , , , , , , , , , 
0.1173462, 0.0072175, 3.051, -0.7880859, 3.051, -0.6621094, 3.051, -0.0043945, 0.1173462, -0.0184634, 3.051, 0.65625, 3.051, -0.6450195, 3.051, 0.3725586, 0.1173462, -0.0036927, 3.051, 0.0830078, 3.051, -0.9765625, 3.051, 0.2358398, 0.1173462, 0.0221561, 3.051, -0.3413086, 3.051, -0.9462891, 3.051, -0.1171875, , , , , , , , , , , , , , , , , , , , , , 
0.1178654, 0.0135958, 3.0645, -0.7832031, 3.0645, -0.6499023, 3.0645, -0.0083008, 0.1178654, -0.0182956, 3.0645, 0.6303711, 3.0645, -0.637207, 3.0645, 0.375, 0.1178654, -0.0038605, 3.0645, 0.0639648, 3.0645, -0.9702148, 3.0645, 0.215332, 0.1178654, 0.0238346, 3.0645, -0.3183594, 3.0645, -0.9482422, 3.0645, -0.1181641, , , , , , , , , , , , , , , , , , , , , , 
0.1183846, 0.0146029, 3.078, -0.7695312, 3.078, -0.6625977, 3.078, -0.0112305, 0.1183846, -0.0186313, 3.078, 0.6455078, 3.078, -0.6347656, 3.078, 0.3725586, 0.1183846, -0.0015106, 3.078, 0.0273438, 3.078, -0.9702148, 3.078, 0.2333984, 0.1183846, 0.0256809, 3.078, -0.3178711, 3.078, -0.9506836, 3.078, -0.1323242, , , , , , , , , , , , , , , , , , , , , , 
0.1189038, 0.012253, 3.0915, -0.7514648, 3.0915, -0.6625977, 3.0915, -0.0107422, 0.1189038, -0.0176242, 3.0915, 0.6572266, 3.0915, -0.6362305, 3.0915, 0.375, 0.1189038, -0.0003357, 3.0915, 0.0273438, 3.0915, -0.96875, 3.0915, 0.2421875, 0.1189038, 0.0226596, 3.0915, -0.3383789, 3.0915, -0.934082, 3.0915, -0.1494141, , , , , , , , , , , , , , , , , , , , , , 
0.1194231, 0.0151064, 3.105, -0.7700195, 3.105, -0.6513672, 3.105, -0.0083008, 0.1194231, -0.0159457, 3.105, 0.6484375, 3.105, -0.6245117, 3.105, 0.3735352, 0.1194231, -0.0031891, 3.105, 0.0205078, 3.105, -0.9633789, 3.105, 0.2319336, 0.1194231, 0.0176242, 3.105, -0.347168, 3.105, -0.9277344, 3.105, -0.1542969, , , , , , , , , , , , , , , , , , , , , , 
0.1199423, 0.0240024, 3.1185, -0.7700195, 3.1185, -0.6572266, 3.1185, -0.0107422, 0.1199423, -0.0129244, 3.1185, 0.6386719, 3.1185, -0.6313477, 3.1185, 0.3676758, 0.1199423, -0.0057069, 3.1185, 0.0288086, 3.1185, -0.9638672, 3.1185, 0.2387695, 0.1199423, 0.0149386, 3.1185, -0.3476562, 3.1185, -0.9379883, 3.1185, -0.1308594, , , , , , , , , , , , , , , , , , , , , , 
0.1204615, 0.033402, 3.132, -0.7695312, 3.132, -0.6826172, 3.132, -0.0019531, 0.1204615, -0.0095674, 3.132, 0.6420898, 3.132, -0.6538086, 3.132, 0.3720703, 0.1204615, -0.0045319, 3.132, 0.0463867, 3.132, -0.9692383, 3.132, 0.2163086, 0.1204615, 0.0146029, 3.132, -0.3349609, 3.132, -0.9467773, 3.132, -0.1328125, , , , , , , , , , , , , , , , , , , , , , 
0.1209808, 0.0360876, 3.1455, -0.7705078, 3.1455, -0.6816406, 3.1455, -0.0053711, 0.1209808, -0.0075532, 3.1455, 0.6552734, 3.1455, -0.6645508, 3.1455, 0.3681641, 0.1209808, -0.0041962, 3.1455, 0.0351562, 3.1455, -0.9819336, 3.1455, 0.2241211, 0.1209808, 0.0159457, 3.1455, -0.3349609, 3.1455, -0.9575195, 3.1455, -0.1274414, , , , , , , , , , , , , , , , , , , , , , 
0.1215, 0.0320592, 3.159, -0.7617188, 3.159, -0.6611328, 3.159, -0.0048828, 0.1215, -0.0082246, 3.159, 0.6401367, 3.159, -0.6391602, 3.159, 0.3671875, 0.1215, -0.0046998, 3.159, 0.0273438, 3.159, -0.9750977, 3.159, 0.222168, 0.1215, 0.0179599, 3.159, -0.3295898, 3.159, -0.9443359, 3.159, -0.1220703, , , , , , , , , , , , , , , , , , , , , , 
0.1220192, 0.0271916, 3.1725, -0.7583008, 3.1725, -0.6503906, 3.1725, -0.0087891, 0.1220192, -0.0085603, 3.1725, 0.6298828, 3.1725, -0.6123047, 3.1725, 0.3696289, 0.1220192, -0.0052033, 3.1725, 0.0454102, 3.1725, -0.9501953, 3.1725, 0.2290039, 0.1220192, 0.0193027, 3.1725, -0.3266602, 3.1725, -0.9208984, 3.1725, -0.1391602, , , , , , , , , , , , , , , , , , , , , , 
0.1225385, 0.026688, 3.186, -0.7792969, 3.186, -0.6435547, 3.186, -0.0141602, 0.1225385, -0.0080568, 3.186, 0.6274414, 3.186, -0.6147461, 3.186, 0.3730469, 0.1225385, -0.005539, 3.186, 0.0419922, 3.186, -0.9487305, 3.186, 0.2304688, 0.1225385, 0.0196384, 3.186, -0.3339844, 3.186, -0.9326172, 3.186, -0.1245117, , , , , , , , , , , , , , , , , , , , , , 
0.1230577, 0.0307164, 3.1995, -0.777832, 3.1995, -0.6445312, 3.1995, -0.0288086, 0.1230577, -0.0082246, 3.1995, 0.6259766, 3.1995, -0.6323242, 3.1995, 0.3759766, 0.1230577, -0.0075532, 3.1995, 0.0253906, 3.1995, -0.9682617, 3.1995, 0.2324219, 0.1230577, 0.0171206, 3.1995, -0.3496094, 3.1995, -0.9394531, 3.1995, -0.1274414, , , , , , , , , , , , , , , , , , , , , , 
0.1235769, 0.0327306, 3.213, -0.7592773, 3.213, -0.6782227, 3.213, -0.0151367, 0.1235769, -0.0077211, 3.213, 0.6313477, 3.213, -0.6577148, 3.213, 0.3793945, 0.1235769, -0.0095674, 3.213, 0.0166016, 3.213, -0.9731445, 3.213, 0.2241211, 0.1235769, 0.0146029, 3.213, -0.3540039, 3.213, -0.9428711, 3.213, -0.1357422, , , , , , , , , , , , , , , , , , , , , , 
0.1240962, 0.0276951, 3.2265, -0.7631836, 3.2265, -0.6772461, 3.2265, -0.0161133, 0.1240962, -0.0082246, 3.2265, 0.6450195, 3.2265, -0.6630859, 3.2265, 0.3813477, 0.1240962, -0.0085603, 3.2265, 0.0327148, 3.2265, -0.9755859, 3.2265, 0.2255859, 0.1240962, 0.0142672, 3.2265, -0.3447266, 3.2265, -0.9560547, 3.2265, -0.1225586, , , , , , , , , , , , , , , , , , , , , , 
0.1246154, 0.023331, 3.24, -0.7856445, 3.24, -0.6489258, 3.24, -0.0083008, 0.1246154, -0.0077211, 3.24, 0.6430664, 3.24, -0.6464844, 3.24, 0.3779297, 0.1246154, -0.0063783, 3.24, 0.0380859, 3.24, -0.9765625, 3.24, 0.2324219, 0.1246154, 0.0135958, 3.24, -0.3510742, 3.24, -0.949707, 3.24, -0.1166992, , , , , , , , , , , , , , , , , , , , , , 
0.1251346, 0.0243381, 3.2535, -0.8066406, 3.2535, -0.6337891, 3.2535, -0.012207, 0.1251346, -0.0075532, 3.2535, 0.6396484, 3.2535, -0.6166992, 3.2535, 0.3823242, 0.1251346, -0.0068818, 3.2535, 0.0449219, 3.2535, -0.9750977, 3.2535, 0.2421875, 0.1251346, 0.011078, 3.2535, -0.3530273, 3.2535, -0.9458008, 3.2535, -0.1181641, , , , , , , , , , , , , , , , , , , , , , 
0.1256538, 0.0256809, 3.267, -0.8178711, 3.267, -0.6420898, 3.267, -0.0175781, 0.1256538, -0.0062104, 3.267, 0.6367188, 3.267, -0.6289062, 3.267, 0.390625, 0.1256538, -0.0078889, 3.267, 0.0410156, 3.267, -0.9765625, 3.267, 0.246582, 0.1256538, 0.0085603, 3.267, -0.3618164, 3.267, -0.9492188, 3.267, -0.1166992, , , , , , , , , , , , , , , , , , , , , , 
0.1261731, 0.0206455, 3.2805, -0.7832031, 3.2805, -0.6425781, 3.2805, -0.0117188, 0.1261731, -0.0058747, 3.2805, 0.6464844, 3.2805, -0.6269531, 3.2805, 0.3808594, 0.1261731, -0.0083925, 3.2805, 0.0390625, 3.2805, -0.9726562, 3.2805, 0.2470703, 0.1261731, 0.0095674, 3.2805, -0.3583984, 3.2805, -0.940918, 3.2805, -0.1166992, , , , , , , , , , , , , , , , , , , , , , 
0.1266923, 0.0132601, 3.294, -0.7568359, 3.294, -0.6630859, 3.294, 0.0053711, 0.1266923, -0.0072175, 3.294, 0.6625977, 3.294, -0.6303711, 3.294, 0.378418, 0.1266923, -0.0077211, 3.294, 0.0292969, 3.294, -0.9614258, 3.294, 0.230957, 0.1266923, 0.0102388, 3.294, -0.3579102, 3.294, -0.9199219, 3.294, -0.1459961, , , , , , , , , , , , , , , , , , , , , , 
0.1272115, 0.011078, 3.3075, -0.7636719, 3.3075, -0.6625977, 3.3075, 0.0048828, 0.1272115, -0.0068818, 3.3075, 0.6640625, 3.3075, -0.6313477, 3.3075, 0.3769531, 0.1272115, -0.0082246, 3.3075, 0.0341797, 3.3075, -0.9599609, 3.3075, 0.2416992, 0.1272115, 0.0114137, 3.3075, -0.3330078, 3.3075, -0.9355469, 3.3075, -0.1323242, , , , , , , , , , , , , , , , , , , , , , 
0.1277308, 0.0132601, 3.321, -0.7900391, 3.321, -0.6484375, 3.321, -0.0024414, 0.1277308, -0.005539, 3.321, 0.6650391, 3.321, -0.6342773, 3.321, 0.3823242, 0.1277308, -0.0060426, 3.321, 0.0644531, 3.321, -0.9736328, 3.321, 0.2348633, 0.1277308, 0.0119173, 3.321, -0.3203125, 3.321, -0.9633789, 3.321, -0.1098633, , , , , , , , , , , , , , , , , , , , , , 
0.12825, 0.0137636, 3.3345, -0.7939453, 3.3345, -0.652832, 3.3345, 0.0043945, 0.12825, -0.0048676, 3.3345, 0.6655273, 3.3345, -0.6313477, 3.3345, 0.3803711, 0.12825, -0.005539, 3.3345, 0.0693359, 3.3345, -0.9838867, 3.3345, 0.2392578, 0.12825, 0.0093996, 3.3345, -0.3383789, 3.3345, -0.949707, 3.3345, -0.125, , , , , , , , , , , , , , , , , , , , , , 
0.1287692, 0.0124208, 3.348, -0.8012695, 3.348, -0.6518555, 3.348, 0.0087891, 0.1287692, -0.002182, 3.348, 0.6640625, 3.348, -0.6245117, 3.348, 0.3701172, 0.1287692, -0.0087282, 3.348, 0.0283203, 3.348, -0.9853516, 3.348, 0.2504883, 0.1287692, 0.0063783, 3.348, -0.3530273, 3.348, -0.9477539, 3.348, -0.1225586, , , , , , , , , , , , , , , , , , , , , , 
0.1292885, 0.0132601, 3.3615, -0.7958984, 3.3615, -0.6533203, 3.3615, 0.0053711, 0.1292885, 0.0011749, 3.3615, 0.6513672, 3.3615, -0.6308594, 3.3615, 0.371582, 0.1292885, -0.0105745, 3.3615, 0.0361328, 3.3615, -0.9833984, 3.3615, 0.230957, 0.1292885, 0.0062104, 3.3615, -0.359375, 3.3615, -0.9516602, 3.3615, -0.1308594, , , , , , , , , , , , , , , , , , , , , , 
0.1298077, 0.0105745, 3.375, -0.7836914, 3.375, -0.6669922, 3.375, 0.0053711, 0.1298077, 0.0031891, 3.375, 0.6616211, 3.375, -0.6445312, 3.375, 0.3720703, 0.1298077, -0.0129244, 3.375, 0.0454102, 3.375, -0.980957, 3.375, 0.2294922, 0.1298077, 0.0078889, 3.375, -0.34375, 3.375, -0.9589844, 3.375, -0.1245117, , , , , , , , , , , , , , , , , , , , , , 
0.1303269, 0.0043641, 3.3885, -0.7802734, 3.3885, -0.6772461, 3.3885, -0.0019531, 0.1303269, 0.0038605, 3.3885, 0.6582031, 3.3885, -0.6552734, 3.3885, 0.3774414, 0.1303269, -0.0139315, 3.3885, 0.0356445, 3.3885, -0.9775391, 3.3885, 0.2456055, 0.1303269, 0.0065461, 3.3885, -0.3432617, 3.3885, -0.9624023, 3.3885, -0.1254883, , , , , , , , , , , , , , , , , , , , , , 
0.1308462, -0.0018463, 3.402, -0.7719727, 3.402, -0.6674805, 3.402, 0.0004883, 0.1308462, 0.0045319, 3.402, 0.6645508, 3.402, -0.6464844, 3.402, 0.3754883, 0.1308462, -0.0132601, 3.402, 0.0361328, 3.402, -0.980957, 3.402, 0.2373047, 0.1308462, 0.0036927, 3.402, -0.3540039, 3.402, -0.9570312, 3.402, -0.1367188, , , , , , , , , , , , , , , , , , , , , , 
0.1313654, -0.0036927, 3.4155, -0.7807617, 3.4155, -0.6635742, 3.4155, 0.0024414, 0.1313654, 0.0038605, 3.4155, 0.6572266, 3.4155, -0.6333008, 3.4155, 0.3696289, 0.1313654, -0.0119173, 3.4155, 0.0405273, 3.4155, -0.980957, 3.4155, 0.2314453, 0.1313654, 0.0031891, 3.4155, -0.3608398, 3.4155, -0.9492188, 3.4155, -0.1381836, , , , , , , , , , , , , , , , , , , , , , 
0.1318846, -0.0048676, 3.429, -0.7993164, 3.429, -0.6455078, 3.429, -0.0004883, 0.1318846, 0.0011749, 3.429, 0.6489258, 3.429, -0.6264648, 3.429, 0.3671875, 0.1318846, -0.0115816, 3.429, 0.0185547, 3.429, -0.9785156, 3.429, 0.2353516, 0.1318846, 0.0048676, 3.429, -0.3432617, 3.429, -0.9487305, 3.429, -0.1137695, , , , , , , , , , , , , , , , , , , , , , 
0.1324038, -0.0075532, 3.4425, -0.800293, 3.4425, -0.6416016, 3.4425, 0, 0.1324038, -0.002182, 3.4425, 0.6357422, 3.4425, -0.6298828, 3.4425, 0.3754883, 0.1324038, -0.0115816, 3.4425, 0.0332031, 3.4425, -0.9746094, 3.4425, 0.2363281, 0.1324038, 0.0065461, 3.4425, -0.347168, 3.4425, -0.9467773, 3.4425, -0.1186523, , , , , , , , , , , , , , , , , , , , , , 
0.1329231, -0.0095674, 3.456, -0.7895508, 3.456, -0.6484375, 3.456, -0.0068359, 0.1329231, -0.0058747, 3.456, 0.6577148, 3.456, -0.6201172, 3.456, 0.3798828, 0.1329231, -0.0099031, 3.456, 0.0444336, 3.456, -0.9750977, 3.456, 0.2373047, 0.1329231, 0.0065461, 3.456, -0.3535156, 3.456, -0.9467773, 3.456, -0.1196289, , , , , , , , , , , , , , , , , , , , , , 
0.1334423, -0.0065461, 3.4695, -0.7749023, 3.4695, -0.6669922, 3.4695, 0.0019531, 0.1334423, -0.0095674, 3.4695, 0.6611328, 3.4695, -0.6469727, 3.4695, 0.3789062, 0.1334423, -0.0085603, 3.4695, 0.0424805, 3.4695, -0.9780273, 3.4695, 0.2373047, 0.1334423, 0.0068818, 3.4695, -0.3481445, 3.4695, -0.9453125, 3.4695, -0.1235352, , , , , , , , , , , , , , , , , , , , , , 
0.1339615, -0.0052033, 3.483, -0.7661133, 3.483, -0.6606445, 3.483, 0.0009766, 0.1339615, -0.0109102, 3.483, 0.6503906, 3.483, -0.6416016, 3.483, 0.3759766, 0.1339615, -0.0072175, 3.483, 0.0546875, 3.483, -0.9667969, 3.483, 0.2324219, 0.1339615, 0.0099031, 3.483, -0.3378906, 3.483, -0.9404297, 3.483, -0.121582, , , , , , , , , , , , , , , , , , , , , , 
0.1344808, -0.0077211, 3.4965, -0.7705078, 3.4965, -0.6586914, 3.4965, 0.0024414, 0.1344808, -0.008896, 3.4965, 0.6430664, 3.4965, -0.6323242, 3.4965, 0.3647461, 0.1344808, -0.0048676, 3.4965, 0.0473633, 3.4965, -0.9599609, 3.4965, 0.2197266, 0.1344808, 0.014435, 3.4965, -0.3330078, 3.4965, -0.9448242, 3.4965, -0.1083984, , , , , , , , , , , , , , , , , , , , , , 
0.135, -0.0068818, 3.51, -0.7792969, 3.51, -0.6474609, 3.51, 0.0004883, 0.135, -0.0082246, 3.51, 0.6469727, 3.51, -0.6279297, 3.51, 0.3725586, 0.135, -0.005539, 3.51, 0.0488281, 3.51, -0.9570312, 3.51, 0.2280273, 0.135, 0.0172885, 3.51, -0.3359375, 3.51, -0.9384766, 3.51, -0.1166992, , , , , , , , , , , , , , , , , , , , , , 
0.1355192, -0.0038605, 3.5235, -0.7890625, 3.5235, -0.6508789, 3.5235, 0.0009766, 0.1355192, -0.0099031, 3.5235, 0.6586914, 3.5235, -0.6240234, 3.5235, 0.3720703, 0.1355192, -0.0075532, 3.5235, 0.0400391, 3.5235, -0.9663086, 3.5235, 0.2412109, 0.1355192, 0.0182956, 3.5235, -0.3583984, 3.5235, -0.9316406, 3.5235, -0.1293945, , , , , , , , , , , , , , , , , , , , , , 
0.1360385, 0.0001678, 3.537, -0.7783203, 3.537, -0.6489258, 3.537, -0.0073242, 0.1360385, -0.0117494, 3.537, 0.6538086, 3.537, -0.6264648, 3.537, 0.3779297, 0.1360385, -0.0062104, 3.537, 0.0244141, 3.537, -0.9731445, 3.537, 0.2412109, 0.1360385, 0.0203098, 3.537, -0.3603516, 3.537, -0.9306641, 3.537, -0.1303711, , , , , , , , , , , , , , , , , , , , , , 
0.1365577, 0.0085603, 3.5505, -0.7670898, 3.5505, -0.6489258, 3.5505, -0.0014648, 0.1365577, -0.0097353, 3.5505, 0.6518555, 3.5505, -0.6279297, 3.5505, 0.3808594, 0.1365577, -0.0038605, 3.5505, 0.0424805, 3.5505, -0.9604492, 3.5505, 0.2319336, 0.1365577, 0.0219883, 3.5505, -0.3515625, 3.5505, -0.9311523, 3.5505, -0.1259766, , , , , , , , , , , , , , , , , , , , , , 
0.1370769, 0.0167849, 3.564, -0.7758789, 3.564, -0.6474609, 3.564, -0.0039062, 0.1370769, -0.0077211, 3.564, 0.6635742, 3.564, -0.6157227, 3.564, 0.3808594, 0.1370769, -0.0028534, 3.564, 0.0551758, 3.564, -0.9580078, 3.564, 0.2382812, 0.1370769, 0.0229953, 3.564, -0.3300781, 3.564, -0.940918, 3.564, -0.1142578, , , , , , , , , , , , , , , , , , , , , , 
0.1375962, 0.0199741, 3.5775, -0.8061523, 3.5775, -0.6450195, 3.5775, -0.0068359, 0.1375962, -0.0095674, 3.5775, 0.6582031, 3.5775, -0.6342773, 3.5775, 0.3901367, 0.1375962, -0.0028534, 3.5775, 0.0473633, 3.5775, -0.9804688, 3.5775, 0.2421875, 0.1375962, 0.0265202, 3.5775, -0.3486328, 3.5775, -0.9462891, 3.5775, -0.1171875, , , , , , , , , , , , , , , , , , , , , , 
0.1381154, 0.0219883, 3.591, -0.8125, 3.591, -0.6347656, 3.591, -0.0219727, 0.1381154, -0.0135958, 3.591, 0.6499023, 3.591, -0.625, 3.591, 0.3925781, 0.1381154, -0.0016785, 3.591, 0.0385742, 3.591, -0.9902344, 3.591, 0.2504883, 0.1381154, 0.0255131, 3.591, -0.3603516, 3.591, -0.9443359, 3.591, -0.1289062, , , , , , , , , , , , , , , , , , , , , , 
0.1386346, 0.0231632, 3.6045, -0.78125, 3.6045, -0.6513672, 3.6045, -0.0107422, 0.1386346, -0.018967, 3.6045, 0.6396484, 3.6045, -0.6308594, 3.6045, 0.3876953, 0.1386346, -0.0018463, 3.6045, 0.0175781, 3.6045, -0.9750977, 3.6045, 0.2416992, 0.1386346, 0.0216526, 3.6045, -0.3632812, 3.6045, -0.9384766, 3.6045, -0.1269531, , , , , , , , , , , , , , , , , , , , , , 
0.1391538, 0.0216526, 3.618, -0.7783203, 3.618, -0.6601562, 3.618, -0.012207, 0.1391538, -0.0196384, 3.618, 0.6508789, 3.618, -0.644043, 3.618, 0.3891602, 0.1391538, -0.0031891, 3.618, 0.0380859, 3.618, -0.9643555, 3.618, 0.2294922, 0.1391538, 0.0193027, 3.618, -0.3476562, 3.618, -0.9418945, 3.618, -0.1235352, , , , , , , , , , , , , , , , , , , , , , 
0.1396731, 0.0219883, 3.6315, -0.8041992, 3.6315, -0.6489258, 3.6315, -0.0117188, 0.1396731, -0.0162814, 3.6315, 0.6616211, 3.6315, -0.6469727, 3.6315, 0.394043, 0.1396731, -0.0028534, 3.6315, 0.0576172, 3.6315, -0.9755859, 3.6315, 0.234375, 0.1396731, 0.0186313, 3.6315, -0.340332, 3.6315, -0.9516602, 3.6315, -0.1064453, , , , , , , , , , , , , , , , , , , , , , 
0.1401923, 0.0273594, 3.645, -0.8046875, 3.645, -0.6357422, 3.645, -0.0126953, 0.1401923, -0.0129244, 3.645, 0.6533203, 3.645, -0.6235352, 3.645, 0.3857422, 0.1401923, -0.0028534, 3.645, 0.0517578, 3.645, -0.9819336, 3.645, 0.2426758, 0.1401923, 0.0186313, 3.645, -0.3588867, 3.645, -0.9477539, 3.645, -0.1162109, , , , , , , , , , , , , , , , , , , , , , 
0.1407115, 0.0327306, 3.6585, -0.7998047, 3.6585, -0.6411133, 3.6585, -0.0102539, 0.1407115, -0.0132601, 3.6585, 0.6474609, 3.6585, -0.6235352, 3.6585, 0.3876953, 0.1407115, -0.0062104, 3.6585, 0.0322266, 3.6585, -0.9858398, 3.6585, 0.2529297, 0.1407115, 0.018967, 3.6585, -0.3662109, 3.6585, -0.9384766, 3.6585, -0.1269531, , , , , , , , , , , , , , , , , , , , , , 
0.1412308, 0.033402, 3.672, -0.7866211, 3.672, -0.6479492, 3.672, -0.0053711, 0.1412308, -0.012253, 3.672, 0.6513672, 3.672, -0.6274414, 3.672, 0.3828125, 0.1412308, -0.0102388, 3.672, 0.0244141, 3.672, -0.9731445, 3.672, 0.25, 0.1412308, 0.0196384, 3.672, -0.3657227, 3.672, -0.9389648, 3.672, -0.1337891, , , , , , , , , , , , , , , , , , , , , , 
0.14175, 0.0320592, 3.6855, -0.7841797, 3.6855, -0.6450195, 3.6855, -0.0014648, 0.14175, -0.0112459, 3.6855, 0.6635742, 3.6855, -0.6240234, 3.6855, 0.3842773, 0.14175, -0.012253, 3.6855, 0.0249023, 3.6855, -0.9609375, 3.6855, 0.2387695, 0.14175, 0.018967, 3.6855, -0.3569336, 3.6855, -0.9331055, 3.6855, -0.1318359, , , , , , , , , , , , , , , , , , , , , , 
0.1422692, 0.0327306, 3.699, -0.7861328, 3.699, -0.6357422, 3.699, 0.003418, 0.1422692, -0.0092317, 3.699, 0.6694336, 3.699, -0.605957, 3.699, 0.3759766, 0.1422692, -0.0115816, 3.699, 0.0302734, 3.699, -0.9643555, 3.699, 0.2573242, 0.1422692, 0.0164492, 3.699, -0.3603516, 3.699, -0.9404297, 3.699, -0.1162109, , , , , , , , , , , , , , , , , , , , , , 
0.1427885, 0.0337377, 3.7125, -0.7998047, 3.7125, -0.6342773, 3.7125, 0.0043945, 0.1427885, -0.0068818, 3.7125, 0.6611328, 3.7125, -0.6083984, 3.7125, 0.3759766, 0.1427885, -0.0115816, 3.7125, 0.0444336, 3.7125, -0.9702148, 3.7125, 0.2573242, 0.1427885, 0.0139315, 3.7125, -0.3710938, 3.7125, -0.9370117, 3.7125, -0.1147461, , , , , , , , , , , , , , , , , , , , , , 
0.1433077, 0.0287022, 3.726, -0.8032227, 3.726, -0.6401367, 3.726, 0.0087891, 0.1433077, -0.0068818, 3.726, 0.6499023, 3.726, -0.6220703, 3.726, 0.3706055, 0.1433077, -0.0129244, 3.726, 0.0546875, 3.726, -0.9663086, 3.726, 0.2470703, 0.1433077, 0.0129244, 3.726, -0.3818359, 3.726, -0.9287109, 3.726, -0.1176758, , , , , , , , , , , , , , , , , , , , , , 
0.1438269, 0.024506, 3.7395, -0.7973633, 3.7395, -0.6508789, 3.7395, 0.0092773, 0.1438269, -0.0068818, 3.7395, 0.6630859, 3.7395, -0.6269531, 3.7395, 0.3730469, 0.1438269, -0.0125887, 3.7395, 0.0385742, 3.7395, -0.9672852, 3.7395, 0.2456055, 0.1438269, 0.0146029, 3.7395, -0.3549805, 3.7395, -0.9443359, 3.7395, -0.1210938, , , , , , , , , , , , , , , , , , , , , , 
0.1443462, 0.0246738, 3.753, -0.7910156, 3.753, -0.6606445, 3.753, 0.0083008, 0.1443462, -0.0048676, 3.753, 0.6767578, 3.753, -0.6459961, 3.753, 0.3745117, 0.1443462, -0.0109102, 3.753, 0.0454102, 3.753, -0.9790039, 3.753, 0.2451172, 0.1443462, 0.0139315, 3.753, -0.3359375, 3.753, -0.9594727, 3.753, -0.1157227, , , , , , , , , , , , , , , , , , , , , , 
0.1448654, 0.0280308, 3.7665, -0.7895508, 3.7665, -0.6513672, 3.7665, 0.0161133, 0.1448654, -0.0031891, 3.7665, 0.6708984, 3.7665, -0.6401367, 3.7665, 0.3666992, 0.1448654, -0.0095674, 3.7665, 0.0600586, 3.7665, -0.980957, 3.7665, 0.2509766, 0.1448654, 0.0130922, 3.7665, -0.3408203, 3.7665, -0.9575195, 3.7665, -0.1142578, , , , , , , , , , , , , , , , , , , , , , 
0.1453846, 0.030045, 3.78, -0.7988281, 3.78, -0.6450195, 3.78, 0.0102539, 0.1453846, -0.0018463, 3.78, 0.6606445, 3.78, -0.6171875, 3.78, 0.3676758, 0.1453846, -0.0095674, 3.78, 0.0732422, 3.78, -0.9682617, 3.78, 0.2519531, 0.1453846, 0.0137636, 3.78, -0.3603516, 3.78, -0.9443359, 3.78, -0.1152344, , , , , , , , , , , , , , , , , , , , , , 
0.1459038, 0.0246738, 3.7935, -0.8007812, 3.7935, -0.6484375, 3.7935, 0.0043945, 0.1459038, -0.0011749, 3.7935, 0.6523438, 3.7935, -0.6171875, 3.7935, 0.3681641, 0.1459038, -0.0095674, 3.7935, 0.0332031, 3.7935, -0.965332, 3.7935, 0.2436523, 0.1459038, 0.0142672, 3.7935, -0.3852539, 3.7935, -0.940918, 3.7935, -0.1220703, , , , , , , , , , , , , , , , , , , , , , 
0.1464231, 0.0172885, 3.807, -0.7827148, 3.807, -0.6411133, 3.807, -0.0029297, 0.1464231, -0.0011749, 3.807, 0.6533203, 3.807, -0.621582, 3.807, 0.3779297, 0.1464231, -0.008896, 3.807, 0.0009766, 3.807, -0.9746094, 3.807, 0.2578125, 0.1464231, 0.0139315, 3.807, -0.3793945, 3.807, -0.9438477, 3.807, -0.125, , , , , , , , , , , , , , , , , , , , , , 
0.1469423, 0.0142672, 3.8205, -0.7797852, 3.8205, -0.644043, 3.8205, -0.0024414, 0.1469423, -0.0005035, 3.8205, 0.6665039, 3.8205, -0.6201172, 3.8205, 0.3735352, 0.1469423, -0.0075532, 3.8205, 0.0268555, 3.8205, -0.9750977, 3.8205, 0.2490234, 0.1469423, 0.0124208, 3.8205, -0.3696289, 3.8205, -0.9345703, 3.8205, -0.1303711, , , , , , , , , , , , , , , , , , , , , , 
0.1474615, 0.0135958, 3.834, -0.7705078, 3.834, -0.6464844, 3.834, -0.0004883, 0.1474615, -0.0008392, 3.834, 0.652832, 3.834, -0.6240234, 3.834, 0.3681641, 0.1474615, -0.005539, 3.834, 0.0429688, 3.834, -0.9570312, 3.834, 0.2441406, 0.1474615, 0.0105745, 3.834, -0.3500977, 3.834, -0.9262695, 3.834, -0.1196289, , , , , , , , , , , , , , , , , , , , , , 
0.1479808, 0.0146029, 3.8475, -0.7607422, 3.8475, -0.6401367, 3.8475, 0.0009766, 0.1479808, -0.002182, 3.8475, 0.637207, 3.8475, -0.6225586, 3.8475, 0.3623047, 0.1479808, -0.002182, 3.8475, 0.0600586, 3.8475, -0.9365234, 3.8475, 0.2402344, 0.1479808, 0.0072175, 3.8475, -0.3339844, 3.8475, -0.9311523, 3.8475, -0.1171875, , , , , , , , , , , , , , , , , , , , , , 
0.1485, 0.0172885, 3.861, -0.7646484, 3.861, -0.6567383, 3.861, 0.0014648, 0.1485, -0.0025177, 3.861, 0.6479492, 3.861, -0.6318359, 3.861, 0.3681641, 0.1485, -0.0006714, 3.861, 0.065918, 3.861, -0.9453125, 3.861, 0.237793, 0.1485, 0.0038605, 3.861, -0.3354492, 3.861, -0.9321289, 3.861, -0.1186523, , , , , , , , , , , , , , , , , , , , , , 
0.1490192, 0.0151064, 3.8745, -0.7817383, 3.8745, -0.6435547, 3.8745, -0.0058594, 0.1490192, -0.0028534, 3.8745, 0.6586914, 3.8745, -0.6274414, 3.8745, 0.3720703, 0.1490192, -0.0001678, 3.8745, 0.043457, 3.8745, -0.9633789, 3.8745, 0.2524414, 0.1490192, 0.0018463, 3.8745, -0.347168, 3.8745, -0.9365234, 3.8745, -0.1206055, , , , , , , , , , , , , , , , , , , , , , 
0.1495385, 0.0085603, 3.888, -0.7822266, 3.888, -0.6411133, 3.888, -0.0112305, 0.1495385, -0.002182, 3.888, 0.640625, 3.888, -0.6298828, 3.888, 0.3769531, 0.1495385, -0.0001678, 3.888, 0.0288086, 3.888, -0.9741211, 3.888, 0.2558594, 0.1495385, 0.0005035, 3.888, -0.3691406, 3.888, -0.9345703, 3.888, -0.1210938, , , , , , , , , , , , , , , , , , , , , , 
0.1500577, 0.0065461, 3.9015, -0.7705078, 3.9015, -0.6503906, 3.9015, -0.003418, 0.1500577, 0.0003357, 3.9015, 0.6386719, 3.9015, -0.6293945, 3.9015, 0.3754883, 0.1500577, -0.0016785, 3.9015, 0.0263672, 3.9015, -0.9682617, 3.9015, 0.2431641, 0.1500577, 0.0011749, 3.9015, -0.3833008, 3.9015, -0.9267578, 3.9015, -0.121582, , , , , , , , , , , , , , , , , , , , , , 
0.1505769, 0.0068818, 3.915, -0.7695312, 3.915, -0.6396484, 3.915, -0.0073242, 0.1505769, 0.0031891, 3.915, 0.6508789, 3.915, -0.6235352, 3.915, 0.3759766, 0.1505769, -0.0035248, 3.915, 0.0263672, 3.915, -0.9511719, 3.915, 0.2436523, 0.1505769, 0.0038605, 3.915, -0.3666992, 3.915, -0.9233398, 3.915, -0.1166992, , , , , , , , , , , , , , , , , , , , , , 
0.1510962, 0.0050355, 3.9285, -0.7773438, 3.9285, -0.6386719, 3.9285, -0.0092773, 0.1510962, 0.0036927, 3.9285, 0.6542969, 3.9285, -0.6230469, 3.9285, 0.3798828, 0.1510962, -0.005539, 3.9285, 0.0493164, 3.9285, -0.9511719, 3.9285, 0.2529297, 0.1510962, 0.0041962, 3.9285, -0.3486328, 3.9285, -0.9394531, 3.9285, -0.112793, , , , , , , , , , , , , , , , , , , , , , 
0.1516154, 0.0010071, 3.942, -0.7949219, 3.942, -0.6289062, 3.942, -0.012207, 0.1516154, 0.0025177, 3.942, 0.6538086, 3.942, -0.6132812, 3.942, 0.3813477, 0.1516154, -0.0068818, 3.942, 0.0649414, 3.942, -0.96875, 3.942, 0.2626953, 0.1516154, 0.0041962, 3.942, -0.3564453, 3.942, -0.9448242, 3.942, -0.1254883, , , , , , , , , , , , , , , , , , , , , , 
0.1521346, -0.0028534, 3.9555, -0.7895508, 3.9555, -0.6381836, 3.9555, -0.0161133, 0.1521346, 0.0023499, 3.9555, 0.6484375, 3.9555, -0.6103516, 3.9555, 0.3764648, 0.1521346, -0.0082246, 3.9555, 0.0385742, 3.9555, -0.9780273, 3.9555, 0.2631836, 0.1521346, 0.0072175, 3.9555, -0.3754883, 3.9555, -0.9345703, 3.9555, -0.1323242, , , , , , , , , , , , , , , , , , , , , , 
0.1526538, -0.0035248, 3.969, -0.7724609, 3.969, -0.6450195, 3.969, -0.0058594, 0.1526538, 0.0011749, 3.969, 0.6328125, 3.969, -0.6269531, 3.969, 0.3764648, 0.1526538, -0.0095674, 3.969, 0.0288086, 3.969, -0.9624023, 3.969, 0.2514648, 0.1526538, 0.0095674, 3.969, -0.3657227, 3.969, -0.921875, 3.969, -0.1289062, , , , , , , , , , , , , , , , , , , , , , 
0.1531731, -0.0031891, 3.9825, -0.7680664, 3.9825, -0.6401367, 3.9825, -0.0024414, 0.1531731, -0.0025177, 3.9825, 0.65625, 3.9825, -0.6152344, 3.9825, 0.3720703, 0.1531731, -0.0092317, 3.9825, 0.0317383, 3.9825, -0.9384766, 3.9825, 0.2436523, 0.1531731, 0.0092317, 3.9825, -0.359375, 3.9825, -0.9291992, 3.9825, -0.1157227, , , , , , , , , , , , , , , , , , , , , , 
0.1536923, -0.0043641, 3.996, -0.7788086, 3.996, -0.6367188, 3.996, 0.0014648, 0.1536923, -0.0046998, 3.996, 0.6640625, 3.996, -0.6191406, 3.996, 0.3745117, 0.1536923, -0.0105745, 3.996, 0.03125, 3.996, -0.9506836, 3.996, 0.2495117, 0.1536923, 0.0099031, 3.996, -0.3730469, 3.996, -0.9316406, 3.996, -0.1118164, , , , , , , , , , , , , , , , , , , , , , 
0.1542115, -0.0062104, 4.0095, -0.8037109, 4.0095, -0.628418, 4.0095, -0.0004883, 0.1542115, -0.0068818, 4.0095, 0.6640625, 4.0095, -0.6132812, 4.0095, 0.3803711, 0.1542115, -0.012253, 4.0095, 0.0429688, 4.0095, -0.9780273, 4.0095, 0.2749023, 0.1542115, 0.0130922, 4.0095, -0.3789062, 4.0095, -0.9370117, 4.0095, -0.1176758, , , , , , , , , , , , , , , , , , , , , , 
0.1547308, -0.005539, 4.023, -0.8061523, 4.023, -0.6313477, 4.023, -0.0083008, 0.1547308, -0.0090639, 4.023, 0.6586914, 4.023, -0.6245117, 4.023, 0.3808594, 0.1547308, -0.0104067, 4.023, 0.0512695, 4.023, -0.9819336, 4.023, 0.2514648, 0.1547308, 0.0149386, 4.023, -0.3793945, 4.023, -0.9379883, 4.023, -0.1318359, , , , , , , , , , , , , , , , , , , , , , 
0.15525, -0.0030213, 4.0365, -0.7792969, 4.0365, -0.6435547, 4.0365, 0.0004883, 0.15525, -0.0119173, 4.0365, 0.6503906, 4.0365, -0.6166992, 4.0365, 0.3725586, 0.15525, -0.0060426, 4.0365, 0.0458984, 4.0365, -0.9692383, 4.0365, 0.2456055, 0.15525, 0.0176242, 4.0365, -0.359375, 4.0365, -0.9321289, 4.0365, -0.1220703, , , , , , , , , , , , , , , , , , , , , , 
0.1557692, 0.0045319, 4.05, -0.7714844, 4.05, -0.6416016, 4.05, -0.0009766, 0.1557692, -0.0146029, 4.05, 0.6557617, 4.05, -0.6103516, 4.05, 0.3710938, 0.1557692, -0.0041962, 4.05, 0.0366211, 4.05, -0.9477539, 4.05, 0.2548828, 0.1557692, 0.0216526, 4.05, -0.3408203, 4.05, -0.9282227, 4.05, -0.128418, , , , , , , , , , , , , , , , , , , , , , 
0.1562885, 0.0139315, 4.0635, -0.7973633, 4.0635, -0.6459961, 4.0635, 0.0019531, 0.1562885, -0.0172885, 4.0635, 0.6635742, 4.0635, -0.6289062, 4.0635, 0.375, 0.1562885, -0.005539, 4.0635, 0.0473633, 4.0635, -0.9541016, 4.0635, 0.2519531, 0.1562885, 0.0229953, 4.0635, -0.3564453, 4.0635, -0.9306641, 4.0635, -0.1308594, , , , , , , , , , , , , , , , , , , , , , 
0.1568077, 0.0146029, 4.077, -0.7949219, 4.077, -0.6381836, 4.077, -0.0048828, 0.1568077, -0.018967, 4.077, 0.6630859, 4.077, -0.6337891, 4.077, 0.3789062, 0.1568077, -0.0068818, 4.077, 0.034668, 4.077, -0.9711914, 4.077, 0.253418, 0.1568077, 0.0226596, 4.077, -0.3793945, 4.077, -0.9462891, 4.077, -0.1166992, , , , , , , , , , , , , , , , , , , , , , 
0.1573269, 0.0162814, 4.0905, -0.78125, 4.0905, -0.6582031, 4.0905, -0.0009766, 0.1573269, -0.0206455, 4.0905, 0.6630859, 4.0905, -0.6342773, 4.0905, 0.3808594, 0.1573269, -0.0072175, 4.0905, 0.0307617, 4.0905, -0.9765625, 4.0905, 0.2524414, 0.1573269, 0.0223239, 4.0905, -0.3837891, 4.0905, -0.9423828, 4.0905, -0.1279297, , , , , , , , , , , , , , , , , , , , , , 
0.1578462, 0.024506, 4.104, -0.7875977, 4.104, -0.6591797, 4.104, 0.0024414, 0.1578462, -0.0196384, 4.104, 0.6733398, 4.104, -0.6396484, 4.104, 0.3803711, 0.1578462, -0.0063783, 4.104, 0.0361328, 4.104, -0.9750977, 4.104, 0.2563477, 0.1578462, 0.0213169, 4.104, -0.3666992, 4.104, -0.9418945, 4.104, -0.1323242, , , , , , , , , , , , , , , , , , , , , , 
0.1583654, 0.0280308, 4.1175, -0.800293, 4.1175, -0.6425781, 4.1175, 0.0024414, 0.1583654, -0.0176242, 4.1175, 0.6674805, 4.1175, -0.628418, 4.1175, 0.3759766, 0.1583654, -0.0048676, 4.1175, 0.0385742, 4.1175, -0.9697266, 4.1175, 0.253418, 0.1583654, 0.0203098, 4.1175, -0.355957, 4.1175, -0.9462891, 4.1175, -0.1235352, , , , , , , , , , , , , , , , , , , , , , 
0.1588846, 0.0273594, 4.131, -0.8037109, 4.131, -0.6386719, 4.131, 0.0029297, 0.1588846, -0.0162814, 4.131, 0.6611328, 4.131, -0.6147461, 4.131, 0.3813477, 0.1588846, -0.0041962, 4.131, 0.0473633, 4.131, -0.9677734, 4.131, 0.2524414, 0.1588846, 0.0203098, 4.131, -0.3696289, 4.131, -0.9438477, 4.131, -0.1235352, , , , , , , , , , , , , , , , , , , , , , 
0.1594038, 0.0273594, 4.1445, -0.8076172, 4.1445, -0.6464844, 4.1445, -0.0024414, 0.1594038, -0.0159457, 4.1445, 0.6738281, 4.1445, -0.6206055, 4.1445, 0.3833008, 0.1594038, -0.0068818, 4.1445, 0.0405273, 4.1445, -0.9711914, 4.1445, 0.253418, 0.1594038, 0.0193027, 4.1445, -0.375, 4.1445, -0.9370117, 4.1445, -0.1264648, , , , , , , , , , , , , , , , , , , , , , 
0.1599231, 0.027863, 4.158, -0.8066406, 4.158, -0.6523438, 4.158, -0.0024414, 0.1599231, -0.0159457, 4.158, 0.6767578, 4.158, -0.6376953, 4.158, 0.387207, 0.1599231, -0.0082246, 4.158, 0.0302734, 4.158, -0.9746094, 4.158, 0.2592773, 0.1599231, 0.0172885, 4.158, -0.371582, 4.158, -0.9404297, 4.158, -0.1274414, , , , , , , , , , , , , , , , , , , , , , 
0.1604423, 0.0256809, 4.1715, -0.7885742, 4.1715, -0.6445312, 4.1715, 0.0004883, 0.1604423, -0.0151064, 4.1715, 0.6777344, 4.1715, -0.6293945, 4.1715, 0.3833008, 0.1604423, -0.0075532, 4.1715, 0.034668, 4.1715, -0.9702148, 4.1715, 0.2539062, 0.1604423, 0.0142672, 4.1715, -0.362793, 4.1715, -0.9404297, 4.1715, -0.1259766, , , , , , , , , , , , , , , , , , , , , , 
0.1609615, 0.0240024, 4.185, -0.7875977, 4.185, -0.6455078, 4.185, 0.0063477, 0.1609615, -0.0129244, 4.185, 0.6767578, 4.185, -0.6166992, 4.185, 0.3818359, 0.1609615, -0.0065461, 4.185, 0.0473633, 4.185, -0.9633789, 4.185, 0.2514648, 0.1609615, 0.0109102, 4.185, -0.3583984, 4.185, -0.934082, 4.185, -0.1269531, , , , , , , , , , , , , , , , , , , , , , 
0.1614808, 0.0256809, 4.1985, -0.8076172, 4.1985, -0.6230469, 4.1985, 0.0024414, 0.1614808, -0.0109102, 4.1985, 0.6767578, 4.1985, -0.6025391, 4.1985, 0.3813477, 0.1614808, -0.0063783, 4.1985, 0.043457, 4.1985, -0.9624023, 4.1985, 0.2714844, 0.1614808, 0.0085603, 4.1985, -0.3632812, 4.1985, -0.9443359, 4.1985, -0.1191406, , , , , , , , , , , , , , , , , , , , , , 
0.162, 0.027863, 4.212, -0.8134766, 4.212, -0.6254883, 4.212, 0.0014648, 0.162, -0.0099031, 4.212, 0.6660156, 4.212, -0.6074219, 4.212, 0.3764648, 0.162, -0.0077211, 4.212, 0.0512695, 4.212, -0.972168, 4.212, 0.2714844, 0.162, 0.0078889, 4.212, -0.3867188, 4.212, -0.9375, 4.212, -0.1235352, , , , , , , , , , , , , , , , , , , , , , 
0.1625192, 0.0270237, 4.2255, -0.8056641, 4.2255, -0.6328125, 4.2255, -0.0024414, 0.1625192, -0.0097353, 4.2255, 0.6552734, 4.2255, -0.6015625, 4.2255, 0.3754883, 0.1625192, -0.0115816, 4.2255, 0.0419922, 4.2255, -0.9760742, 4.2255, 0.2700195, 0.1625192, 0.0078889, 4.2255, -0.3876953, 4.2255, -0.9438477, 4.2255, -0.1298828, , , , , , , , , , , , , , , , , , , , , , 
0.1630385, 0.0243381, 4.239, -0.7910156, 4.239, -0.6464844, 4.239, -0.0068359, 0.1630385, -0.0087282, 4.239, 0.6640625, 4.239, -0.6171875, 4.239, 0.3769531, 0.1630385, -0.0139315, 4.239, 0.0166016, 4.239, -0.9736328, 4.239, 0.2587891, 0.1630385, 0.0083925, 4.239, -0.3779297, 4.239, -0.9433594, 4.239, -0.128418, , , , , , , , , , , , , , , , , , , , , , 
0.1635577, 0.0246738, 4.2525, -0.7773438, 4.2525, -0.6474609, 4.2525, -0.0019531, 0.1635577, -0.0092317, 4.2525, 0.6616211, 4.2525, -0.6220703, 4.2525, 0.3754883, 0.1635577, -0.0135958, 4.2525, 0.012207, 4.2525, -0.9624023, 4.2525, 0.25, 0.1635577, 0.0078889, 4.2525, -0.3769531, 4.2525, -0.9243164, 4.2525, -0.1391602, , , , , , , , , , , , , , , , , , , , , , 
0.1640769, 0.0250095, 4.266, -0.7758789, 4.266, -0.6455078, 4.266, 0.0014648, 0.1640769, -0.0104067, 4.266, 0.668457, 4.266, -0.6191406, 4.266, 0.3764648, 0.1640769, -0.0135958, 4.266, 0.0136719, 4.266, -0.9584961, 4.266, 0.2548828, 0.1640769, 0.0083925, 4.266, -0.3720703, 4.266, -0.9335938, 4.266, -0.1308594, , , , , , , , , , , , , , , , , , , , , , 
0.1645962, 0.0229953, 4.2795, -0.7944336, 4.2795, -0.6381836, 4.2795, -0.0004883, 0.1645962, -0.0085603, 4.2795, 0.6650391, 4.2795, -0.6206055, 4.2795, 0.3691406, 0.1645962, -0.0146029, 4.2795, 0.046875, 4.2795, -0.9624023, 4.2795, 0.2558594, 0.1645962, 0.0085603, 4.2795, -0.3613281, 4.2795, -0.9418945, 4.2795, -0.1264648, , , , , , , , , , , , , , , , , , , , , , 
0.1651154, 0.0231632, 4.293, -0.7983398, 4.293, -0.6367188, 4.293, -0.0068359, 0.1651154, -0.0072175, 4.293, 0.6552734, 4.293, -0.6235352, 4.293, 0.3710938, 0.1651154, -0.0162814, 4.293, 0.0629883, 4.293, -0.9648438, 4.293, 0.2490234, 0.1651154, 0.0072175, 4.293, -0.359375, 4.293, -0.940918, 4.293, -0.1210938, , , , , , , , , , , , , , , , , , , , , , 
0.1656346, 0.0203098, 4.3065, -0.7880859, 4.3065, -0.6430664, 4.3065, -0.003418, 0.1656346, -0.0062104, 4.3065, 0.6391602, 4.3065, -0.6220703, 4.3065, 0.3769531, 0.1656346, -0.0152743, 4.3065, 0.0708008, 4.3065, -0.9633789, 4.3065, 0.2568359, 0.1656346, 0.0072175, 4.3065, -0.3505859, 4.3065, -0.9365234, 4.3065, -0.1210938, , , , , , , , , , , , , , , , , , , , , , 
0.1661538, 0.0166171, 4.32, -0.7797852, 4.32, -0.6484375, 4.32, -0.0024414, 0.1661538, -0.0057069, 4.32, 0.6508789, 4.32, -0.6245117, 4.32, 0.3701172, 0.1661538, -0.0135958, 4.32, 0.0458984, 4.32, -0.9545898, 4.32, 0.2412109, 0.1661538, 0.0072175, 4.32, -0.3535156, 4.32, -0.9365234, 4.32, -0.1245117, , , , , , , , , , , , , , , , , , , , , , 
0.1666731, 0.0146029, 4.3335, -0.7900391, 4.3335, -0.6523438, 4.3335, -0.0058594, 0.1666731, -0.0052033, 4.3335, 0.6655273, 4.3335, -0.6337891, 4.3335, 0.3808594, 0.1666731, -0.0119173, 4.3335, 0.0009766, 4.3335, -0.9677734, 4.3335, 0.2539062, 0.1666731, 0.0072175, 4.3335, -0.3759766, 4.3335, -0.9438477, 4.3335, -0.1240234, , , , , , , , , , , , , , , , , , , , , , 
0.1671923, 0.0125887, 4.347, -0.7949219, 4.347, -0.6416016, 4.347, -0.0063477, 0.1671923, -0.0031891, 4.347, 0.652832, 4.347, -0.6323242, 4.347, 0.3759766, 0.1671923, -0.0109102, 4.347, 0.012207, 4.347, -0.9780273, 4.347, 0.2583008, 0.1671923, 0.0065461, 4.347, -0.3920898, 4.347, -0.9414062, 4.347, -0.1259766, , , , , , , , , , , , , , , , , , , , , , 
0.1677115, 0.008896, 4.3605, -0.7783203, 4.3605, -0.6489258, 4.3605, -0.0083008, 0.1677115, -0.0023499, 4.3605, 0.6533203, 4.3605, -0.6259766, 4.3605, 0.3764648, 0.1677115, -0.0085603, 4.3605, 0.0454102, 4.3605, -0.9707031, 4.3605, 0.2485352, 0.1677115, 0.0058747, 4.3605, -0.3818359, 4.3605, -0.9296875, 4.3605, -0.1376953, , , , , , , , , , , , , , , , , , , , , , 
0.1682308, 0.0085603, 4.374, -0.7827148, 4.374, -0.6479492, 4.374, -0.0004883, 0.1682308, -0.0041962, 4.374, 0.6552734, 4.374, -0.6152344, 4.374, 0.375, 0.1682308, -0.0065461, 4.374, 0.0429688, 4.374, -0.9521484, 4.374, 0.2514648, 0.1682308, 0.0052033, 4.374, -0.3476562, 4.374, -0.9331055, 4.374, -0.1254883, , , , , , , , , , , , , , , , , , , , , , 
0.16875, 0.0124208, 4.3875, -0.7827148, 4.3875, -0.6342773, 4.3875, -0.0043945, 0.16875, -0.0053712, 4.3875, 0.6621094, 4.3875, -0.6240234, 4.3875, 0.3745117, 0.16875, -0.0072175, 4.3875, 0.0527344, 4.3875, -0.9545898, 4.3875, 0.2587891, 0.16875, 0.0031891, 4.3875, -0.3349609, 4.3875, -0.9418945, 4.3875, -0.1191406, , , , , , , , , , , , , , , , , , , , , , 
0.1692692, 0.0135958, 4.401, -0.7836914, 4.401, -0.644043, 4.401, 0.0048828, 0.1692692, -0.0045319, 4.401, 0.6674805, 4.401, -0.6171875, 4.401, 0.3706055, 0.1692692, -0.0099031, 4.401, 0.0576172, 4.401, -0.9638672, 4.401, 0.2509766, 0.1692692, 0.0023499, 4.401, -0.3666992, 4.401, -0.9355469, 4.401, -0.1230469, , , , , , , , , , , , , , , , , , , , , , 
0.1697885, 0.0146029, 4.4145, -0.7885742, 4.4145, -0.6455078, 4.4145, 0.0019531, 0.1697885, -0.0035248, 4.4145, 0.6694336, 4.4145, -0.6132812, 4.4145, 0.3730469, 0.1697885, -0.0102388, 4.4145, 0.0351562, 4.4145, -0.9726562, 4.4145, 0.2548828, 0.1697885, 0.002182, 4.4145, -0.3818359, 4.4145, -0.9428711, 4.4145, -0.1196289, , , , , , , , , , , , , , , , , , , , , , 
0.1703077, 0.0082246, 4.428, -0.7983398, 4.428, -0.6479492, 4.428, 0.0024414, 0.1703077, -0.0008392, 4.428, 0.6699219, 4.428, -0.6235352, 4.428, 0.375, 0.1703077, -0.0102388, 4.428, 0.0239258, 4.428, -0.9780273, 4.428, 0.2578125, 0.1703077, 0.0011749, 4.428, -0.3774414, 4.428, -0.9335938, 4.428, -0.1230469, , , , , , , , , , , , , , , , , , , , , , 
0.1708269, 0.0011749, 4.4415, -0.7885742, 4.4415, -0.6347656, 4.4415, 0.0073242, 0.1708269, 0.0011749, 4.4415, 0.6674805, 4.4415, -0.6206055, 4.4415, 0.3735352, 0.1708269, -0.012253, 4.4415, 0.0288086, 4.4415, -0.9692383, 4.4415, 0.2670898, 0.1708269, 0.0020142, 4.4415, -0.3720703, 4.4415, -0.9355469, 4.4415, -0.125, , , , , , , , , , , , , , , , , , , , , , 
