Timestamps,channel_1,channel_2,channel_3,channel_4,channel_5,channel_6,channel_7,channel_8,ACC_X,ACC_Y,ACC_Z,GYR_X,GYR_Y,GYR_Z
10_46_48_994,-4.0,2.0,-3.0,3.0,-3.0,1.0,0.0,3.0,0.0615234375,-0.298828125,0.775390625,57.19512195121952,-132.25609756097563,-63.90243902439025
10_46_48_994,1.0,-2.0,2.0,-4.0,-7.0,-4.0,1.0,-2.0,0.0654296875,-0.4326171875,0.8310546875,62.25609756097562,-120.85365853658537,-72.98780487804879
10_46_48_994,1.0,0.0,-2.0,-3.0,2.0,-1.0,-2.0,0.0,0.08544921875,-0.55517578125,0.84375,28.475609756097562,-120.1829268292683,-75.48780487804879
10_46_48_994,0.0,-5.0,-1.0,-1.0,0.0,-2.0,-4.0,-3.0,-0.00048828125,-0.5146484375,0.83251953125,0.24390243902439027,-124.02439024390245,-64.45121951219512
10_46_48_994,-1.0,-3.0,-7.0,-10.0,-5.0,-3.0,-6.0,-3.0,-0.0751953125,-0.423828125,0.78662109375,5.365853658536586,-117.37804878048782,-51.463414634146346
10_46_48_994,-2.0,3.0,9.0,5.0,2.0,-2.0,3.0,0.0,-0.0859375,-0.39697265625,0.767578125,21.707317073170735,-107.31707317073172,-52.6829268292683
10_46_48_994,0.0,-1.0,0.0,-9.0,-4.0,-1.0,2.0,1.0,0.0,0.0,0.0,0.0,0.0,0.0
10_46_48_994,0.0,1.0,0.0,22.0,8.0,3.0,0.0,-3.0,0.0,0.0,0.0,0.0,0.0,0.0
10_46_48_994,-1.0,-3.0,7.0,4.0,0.0,0.0,-1.0,-4.0,0.0,0.0,0.0,0.0,0.0,0.0
10_46_48_994,1.0,-2.0,0.0,0.0,0.0,0.0,0.0,1.0,0.0,0.0,0.0,0.0,0.0,0.0
10_46_49_049,0.0,1.0,2.0,3.0,3.0,-1.0,2.0,0.0,0.4453125,-0.43603515625,0.81396484375,26.28048780487805,-150.6707317073171,-68.04878048780489
10_46_49_049,-2.0,1.0,-2.0,-6.0,-1.0,-1.0,-4.0,0.0,0.28271484375,-0.396484375,0.833984375,15.670731707317074,-158.84146341463415,-64.45121951219512
10_46_49_049,-3.0,0.0,-3.0,0.0,0.0,0.0,0.0,-2.0,0.11865234375,-0.29931640625,0.78857421875,27.5609756097561,-147.37804878048783,-61.707317073170735
10_46_49_049,1.0,-4.0,-1.0,-5.0,-4.0,-2.0,-1.0,-1.0,0.0615234375,-0.298828125,0.775390625,57.19512195121952,-132.25609756097563,-63.90243902439025
10_46_49_049,-2.0,1.0,8.0,0.0,-1.0,-3.0,-1.0,-1.0,0.0654296875,-0.4326171875,0.8310546875,62.25609756097562,-120.85365853658537,-72.98780487804879
10_46_49_049,-1.0,-3.0,0.0,-4.0,-4.0,0.0,1.0,-1.0,0.08544921875,-0.55517578125,0.84375,28.475609756097562,-120.1829268292683,-75.48780487804879
10_46_49_049,-2.0,-8.0,-5.0,-9.0,-1.0,-2.0,-2.0,-2.0,-0.00048828125,-0.5146484375,0.83251953125,0.24390243902439027,-124.02439024390245,-64.45121951219512
10_46_49_049,-3.0,-1.0,6.0,1.0,8.0,4.0,-3.0,0.0,-0.0751953125,-0.423828125,0.78662109375,5.365853658536586,-117.37804878048782,-51.463414634146346
10_46_49_049,0.0,5.0,-3.0,-2.0,-4.0,-5.0,-1.0,-2.0,-0.0859375,-0.39697265625,0.767578125,21.707317073170735,-107.31707317073172,-52.6829268292683
10_46_49_049,0.0,0.0,-8.0,5.0,-1.0,-2.0,-1.0,-2.0,0.0,0.0,0.0,0.0,0.0,0.0
10_46_49_099,-1.0,-4.0,2.0,7.0,-2.0,-5.0,0.0,-2.0,0.28271484375,-0.396484375,0.833984375,15.670731707317074,-158.84146341463415,-64.45121951219512
10_46_49_099,0.0,1.0,2.0,3.0,3.0,-1.0,2.0,0.0,0.11865234375,-0.29931640625,0.78857421875,27.5609756097561,-147.37804878048783,-61.707317073170735
10_46_49_099,-2.0,1.0,-2.0,-6.0,-1.0,-1.0,-4.0,0.0,0.0615234375,-0.298828125,0.775390625,57.19512195121952,-132.25609756097563,-63.90243902439025
10_46_49_099,-3.0,0.0,-3.0,0.0,0.0,0.0,0.0,-2.0,0.0654296875,-0.4326171875,0.8310546875,62.25609756097562,-120.85365853658537,-72.98780487804879
10_46_49_099,1.0,-4.0,-1.0,-5.0,-4.0,-2.0,-1.0,-1.0,0.08544921875,-0.55517578125,0.84375,28.475609756097562,-120.1829268292683,-75.48780487804879
10_46_49_099,-2.0,1.0,8.0,0.0,-1.0,-3.0,-1.0,-1.0,-0.00048828125,-0.5146484375,0.83251953125,0.24390243902439027,-124.02439024390245,-64.45121951219512
10_46_49_099,-1.0,-3.0,0.0,-4.0,-4.0,0.0,1.0,-1.0,-0.0751953125,-0.423828125,0.78662109375,5.365853658536586,-117.37804878048782,-51.463414634146346
10_46_49_099,-2.0,-8.0,-5.0,-9.0,-1.0,-2.0,-2.0,-2.0,-0.0859375,-0.39697265625,0.767578125,21.707317073170735,-107.31707317073172,-52.6829268292683
10_46_49_099,-3.0,-1.0,6.0,1.0,8.0,4.0,-3.0,0.0,0.0,0.0,0.0,0.0,0.0,0.0
10_46_49_151,1.0,-3.0,-7.0,-2.0,-2.0,0.0,2.0,0.0,0.4453125,-0.3056640625,0.81103515625,37.743902439024396,-137.9268292682927,-58.53658536585366
10_46_49_151,-3.0,-1.0,8.0,7.0,2.0,0.0,-1.0,1.0,0.46875,-0.3701171875,0.80126953125,42.5609756097561,-140.0609756097561,-63.78048780487806
10_46_49_151,0.0,0.0,2.0,-4.0,-3.0,-2.0,-2.0,0.0,0.4453125,-0.43603515625,0.81396484375,26.28048780487805,-150.6707317073171,-68.04878048780489
10_46_49_151,-5.0,-2.0,3.0,0.0,-1.0,3.0,1.0,-2.0,0.28271484375,-0.396484375,0.833984375,15.670731707317074,-158.84146341463415,-64.45121951219512
10_46_49_151,0.0,0.0,-5.0,5.0,-1.0,0.0,2.0,1.0,0.11865234375,-0.29931640625,0.78857421875,27.5609756097561,-147.37804878048783,-61.707317073170735
10_46_49_151,-1.0,-4.0,2.0,7.0,-2.0,-5.0,0.0,-2.0,0.0615234375,-0.298828125,0.775390625,57.19512195121952,-132.25609756097563,-63.90243902439025
10_46_49_151,0.0,1.0,2.0,3.0,3.0,-1.0,2.0,0.0,0.0654296875,-0.4326171875,0.8310546875,62.25609756097562,-120.85365853658537,-72.98780487804879
10_46_49_151,-2.0,1.0,-2.0,-6.0,-1.0,-1.0,-4.0,0.0,0.08544921875,-0.55517578125,0.84375,28.475609756097562,-120.1829268292683,-75.48780487804879
10_46_49_151,-3.0,0.0,-3.0,0.0,0.0,0.0,0.0,-2.0,-0.00048828125,-0.5146484375,0.83251953125,0.24390243902439027,-124.02439024390245,-64.45121951219512
10_46_49_151,1.0,-4.0,-1.0,-5.0,-4.0,-2.0,-1.0,-1.0,-0.0751953125,-0.423828125,0.78662109375,5.365853658536586,-117.37804878048782,-51.463414634146346
10_46_49_197,-2.0,0.0,2.0,-2.0,-1.0,0.0,-1.0,-2.0,0.71728515625,-0.26953125,0.71630859375,15.853658536585368,-120.60975609756099,-68.47560975609757
10_46_49_197,-3.0,0.0,-5.0,0.0,0.0,-1.0,-1.0,-2.0,0.68701171875,-0.27099609375,0.7216796875,17.743902439024392,-125.2439024390244,-58.17073170731708
10_46_49_197,-2.0,1.0,-2.0,3.0,-1.0,-1.0,-3.0,0.0,0.63818359375,-0.302734375,0.73681640625,18.53658536585366,-131.21951219512195,-62.560975609756106
10_46_49_197,1.0,-4.0,-2.0,-6.0,0.0,-2.0,1.0,-1.0,0.4453125,-0.3056640625,0.81103515625,37.743902439024396,-137.9268292682927,-58.53658536585366
10_46_49_197,0.0,3.0,4.0,2.0,1.0,3.0,-1.0,-1.0,0.46875,-0.3701171875,0.80126953125,42.5609756097561,-140.0609756097561,-63.78048780487806
10_46_49_197,0.0,-4.0,-3.0,0.0,-1.0,-3.0,-2.0,0.0,0.4453125,-0.43603515625,0.81396484375,26.28048780487805,-150.6707317073171,-68.04878048780489
10_46_49_197,-1.0,1.0,-1.0,1.0,-3.0,0.0,-1.0,0.0,0.28271484375,-0.396484375,0.833984375,15.670731707317074,-158.84146341463415,-64.45121951219512
10_46_49_197,-3.0,0.0,-7.0,2.0,2.0,-1.0,-2.0,1.0,0.11865234375,-0.29931640625,0.78857421875,27.5609756097561,-147.37804878048783,-61.707317073170735
10_46_49_197,-1.0,-2.0,-2.0,-3.0,0.0,-2.0,-4.0,-1.0,0.0615234375,-0.298828125,0.775390625,57.19512195121952,-132.25609756097563,-63.90243902439025
10_46_49_197,-3.0,0.0,-2.0,-4.0,1.0,3.0,-1.0,0.0,0.0654296875,-0.4326171875,0.8310546875,62.25609756097562,-120.85365853658537,-72.98780487804879
10_46_49_246,2.0,-1.0,-7.0,3.0,3.0,3.0,-2.0,-1.0,0.83203125,-0.16259765625,0.66015625,9.817073170731708,-103.04878048780489,-73.04878048780489
10_46_49_246,-2.0,-2.0,2.0,-4.0,-2.0,-1.0,-1.0,-1.0,0.78369140625,-0.21044921875,0.6923828125,14.939024390243905,-113.04878048780489,-77.8658536585366
10_46_49_246,-1.0,-2.0,-12.0,-6.0,-4.0,-2.0,-2.0,-2.0,0.71728515625,-0.26953125,0.71630859375,15.853658536585368,-120.60975609756099,-68.47560975609757
10_46_49_246,0.0,1.0,-1.0,-6.0,0.0,-3.0,0.0,1.0,0.68701171875,-0.27099609375,0.7216796875,17.743902439024392,-125.2439024390244,-58.17073170731708
10_46_49_246,1.0,-2.0,-4.0,2.0,1.0,0.0,-3.0,-2.0,0.63818359375,-0.302734375,0.73681640625,18.53658536585366,-131.21951219512195,-62.560975609756106
10_46_49_246,1.0,0.0,-8.0,-6.0,-1.0,-5.0,-2.0,-1.0,0.4453125,-0.3056640625,0.81103515625,37.743902439024396,-137.9268292682927,-58.53658536585366
10_46_49_246,1.0,-2.0,-10.0,-6.0,2.0,-5.0,-3.0,2.0,0.46875,-0.3701171875,0.80126953125,42.5609756097561,-140.0609756097561,-63.78048780487806
10_46_49_246,5.0,-3.0,4.0,8.0,-3.0,-1.0,-2.0,-1.0,0.4453125,-0.43603515625,0.81396484375,26.28048780487805,-150.6707317073171,-68.04878048780489
10_46_49_246,-2.0,4.0,-6.0,-5.0,-3.0,0.0,0.0,-1.0,0.28271484375,-0.396484375,0.833984375,15.670731707317074,-158.84146341463415,-64.45121951219512
10_46_49_246,-3.0,-1.0,-2.0,-3.0,-2.0,-1.0,0.0,1.0,0.11865234375,-0.29931640625,0.78857421875,27.5609756097561,-147.37804878048783,-61.707317073170735
10_46_49_302,0.0,-7.0,0.0,-6.0,-2.0,2.0,-1.0,-1.0,0.83203125,-0.16259765625,0.66015625,9.817073170731708,-103.04878048780489,-73.04878048780489
10_46_49_302,-1.0,-2.0,-2.0,-1.0,0.0,-1.0,-2.0,-1.0,0.78369140625,-0.21044921875,0.6923828125,14.939024390243905,-113.04878048780489,-77.8658536585366
10_46_49_302,-4.0,0.0,-5.0,-8.0,-1.0,0.0,-3.0,-1.0,0.71728515625,-0.26953125,0.71630859375,15.853658536585368,-120.60975609756099,-68.47560975609757
10_46_49_302,2.0,-1.0,-7.0,3.0,3.0,3.0,-2.0,-1.0,0.68701171875,-0.27099609375,0.7216796875,17.743902439024392,-125.2439024390244,-58.17073170731708
10_46_49_302,-2.0,-2.0,2.0,-4.0,-2.0,-1.0,-1.0,-1.0,0.63818359375,-0.302734375,0.73681640625,18.53658536585366,-131.21951219512195,-62.560975609756106
10_46_49_302,-1.0,-2.0,-12.0,-6.0,-4.0,-2.0,-2.0,-2.0,0.4453125,-0.3056640625,0.81103515625,37.743902439024396,-137.9268292682927,-58.53658536585366
10_46_49_302,0.0,1.0,-1.0,-6.0,0.0,-3.0,0.0,1.0,0.46875,-0.3701171875,0.80126953125,42.5609756097561,-140.0609756097561,-63.78048780487806
10_46_49_302,1.0,-2.0,-4.0,2.0,1.0,0.0,-3.0,-2.0,0.4453125,-0.43603515625,0.81396484375,26.28048780487805,-150.6707317073171,-68.04878048780489
10_46_49_302,1.0,0.0,-8.0,-6.0,-1.0,-5.0,-2.0,-1.0,0.28271484375,-0.396484375,0.833984375,15.670731707317074,-158.84146341463415,-64.45121951219512
10_46_49_352,-1.0,-4.0,-3.0,-1.0,-1.0,-1.0,1.0,-1.0,0.88916015625,-0.15185546875,0.544921875,-0.7926829268292683,-93.59756097560977,-69.75609756097562
10_46_49_352,-2.0,0.0,-1.0,-3.0,0.0,-1.0,-1.0,0.0,0.8583984375,-0.1572265625,0.5771484375,-14.51219512195122,-99.26829268292684,-66.52439024390245
10_46_49_352,1.0,3.0,4.0,1.0,0.0,-1.0,1.0,0.0,0.84375,-0.12109375,0.6005859375,-15.30487804878049,-100.67073170731709,-61.707317073170735
10_46_49_352,1.0,0.0,0.0,2.0,-1.0,-2.0,1.0,-4.0,0.8359375,-0.11767578125,0.63134765625,-3.353658536585366,-101.09756097560977,-64.26829268292684
10_46_49_352,-2.0,-4.0,-2.0,0.0,-1.0,-2.0,-1.0,1.0,0.83203125,-0.16259765625,0.66015625,9.817073170731708,-103.04878048780489,-73.04878048780489
10_46_49_352,0.0,-4.0,3.0,0.0,-2.0,1.0,-2.0,-3.0,0.78369140625,-0.21044921875,0.6923828125,14.939024390243905,-113.04878048780489,-77.8658536585366
10_46_49_352,-3.0,0.0,1.0,4.0,0.0,2.0,-1.0,-2.0,0.71728515625,-0.26953125,0.71630859375,15.853658536585368,-120.60975609756099,-68.47560975609757
10_46_49_352,-1.0,2.0,-1.0,-2.0,-2.0,-1.0,-1.0,0.0,0.68701171875,-0.27099609375,0.7216796875,17.743902439024392,-125.2439024390244,-58.17073170731708
10_46_49_352,-5.0,-5.0,0.0,-2.0,0.0,-1.0,-3.0,0.0,0.63818359375,-0.302734375,0.73681640625,18.53658536585366,-131.21951219512195,-62.560975609756106
10_46_49_401,-2.0,-2.0,-1.0,0.0,-2.0,-2.0,0.0,-3.0,0.84375,-0.12109375,0.6005859375,-15.30487804878049,-100.67073170731709,-61.707317073170735
10_46_49_401,-1.0,-4.0,-3.0,-1.0,-1.0,-1.0,1.0,-1.0,0.8359375,-0.11767578125,0.63134765625,-3.353658536585366,-101.09756097560977,-64.26829268292684
10_46_49_401,-2.0,0.0,-1.0,-3.0,0.0,-1.0,-1.0,0.0,0.83203125,-0.16259765625,0.66015625,9.817073170731708,-103.04878048780489,-73.04878048780489
10_46_49_401,1.0,3.0,4.0,1.0,0.0,-1.0,1.0,0.0,0.78369140625,-0.21044921875,0.6923828125,14.939024390243905,-113.04878048780489,-77.8658536585366
10_46_49_401,1.0,0.0,0.0,2.0,-1.0,-2.0,1.0,-4.0,0.71728515625,-0.26953125,0.71630859375,15.853658536585368,-120.60975609756099,-68.47560975609757
10_46_49_401,-2.0,-4.0,-2.0,0.0,-1.0,-2.0,-1.0,1.0,0.68701171875,-0.27099609375,0.7216796875,17.743902439024392,-125.2439024390244,-58.17073170731708
10_46_49_540,1.0,-1.0,-4.0,-4.0,-3.0,0.0,2.0,0.0,0.91015625,-0.0732421875,0.49267578125,7.987804878048781,-88.96341463414635,-67.6829268292683
10_46_49_540,1.0,-1.0,1.0,7.0,1.0,1.0,-1.0,0.0,0.88916015625,-0.15185546875,0.544921875,-0.7926829268292683,-93.59756097560977,-69.75609756097562
10_46_49_540,1.0,-2.0,2.0,-4.0,-1.0,0.0,-2.0,-3.0,0.8583984375,-0.1572265625,0.5771484375,-14.51219512195122,-99.26829268292684,-66.52439024390245
10_46_49_540,-1.0,-2.0,-2.0,-1.0,-1.0,-2.0,-2.0,1.0,0.84375,-0.12109375,0.6005859375,-15.30487804878049,-100.67073170731709,-61.707317073170735
10_46_49_540,-2.0,-2.0,-1.0,0.0,-2.0,-2.0,0.0,-3.0,0.8359375,-0.11767578125,0.63134765625,-3.353658536585366,-101.09756097560977,-64.26829268292684
10_46_49_540,-1.0,-4.0,-3.0,-1.0,-1.0,-1.0,1.0,-1.0,0.83203125,-0.16259765625,0.66015625,9.817073170731708,-103.04878048780489,-73.04878048780489
10_46_49_540,-2.0,0.0,-1.0,-3.0,0.0,-1.0,-1.0,0.0,0.78369140625,-0.21044921875,0.6923828125,14.939024390243905,-113.04878048780489,-77.8658536585366
10_46_49_540,1.0,3.0,4.0,1.0,0.0,-1.0,1.0,0.0,0.71728515625,-0.26953125,0.71630859375,15.853658536585368,-120.60975609756099,-68.47560975609757
10_46_49_585,-4.0,-5.0,-22.0,1.0,3.0,-3.0,-3.0,-1.0,0.97265625,-0.0166015625,0.35205078125,-17.5,-77.7439024390244,-50.304878048780495
10_46_49_585,-2.0,0.0,1.0,3.0,0.0,-1.0,-1.0,-1.0,0.9580078125,-0.00537109375,0.3916015625,-11.707317073170733,-82.25609756097562,-53.84146341463415
10_46_49_585,0.0,-1.0,-2.0,0.0,0.0,-3.0,-5.0,1.0,0.947265625,-0.01220703125,0.4345703125,0.7317073170731708,-86.34146341463415,-61.03658536585366
10_46_49_585,2.0,0.0,-1.0,-5.0,-3.0,-1.0,0.0,-4.0,0.91015625,-0.0732421875,0.49267578125,7.987804878048781,-88.96341463414635,-67.6829268292683
10_46_49_585,-1.0,-1.0,0.0,-4.0,-4.0,-1.0,-1.0,0.0,0.88916015625,-0.15185546875,0.544921875,-0.7926829268292683,-93.59756097560977,-69.75609756097562
10_46_49_585,0.0,-1.0,-8.0,-8.0,-2.0,-4.0,-1.0,0.0,0.8583984375,-0.1572265625,0.5771484375,-14.51219512195122,-99.26829268292684,-66.52439024390245
10_46_49_585,0.0,-3.0,12.0,22.0,4.0,0.0,-1.0,-1.0,0.84375,-0.12109375,0.6005859375,-15.30487804878049,-100.67073170731709,-61.707317073170735
10_46_49_585,-1.0,-5.0,-4.0,-6.0,-1.0,-2.0,-3.0,-1.0,0.8359375,-0.11767578125,0.63134765625,-3.353658536585366,-101.09756097560977,-64.26829268292684
10_46_49_585,-2.0,0.0,-3.0,-6.0,-2.0,-2.0,0.0,-2.0,0.83203125,-0.16259765625,0.66015625,9.817073170731708,-103.04878048780489,-73.04878048780489
10_46_49_636,-4.0,1.0,-3.0,-6.0,-3.0,-1.0,-2.0,-1.0,0.974609375,-0.0244140625,0.2705078125,-23.59756097560976,-34.87804878048781,-8.292682926829269
10_46_49_636,-3.0,-7.0,-11.0,-3.0,-1.0,-2.0,-3.0,-3.0,0.974609375,-0.03662109375,0.27783203125,-23.78048780487805,-38.71951219512196,-9.207317073170733
10_46_49_636,1.0,-4.0,8.0,-5.0,1.0,-1.0,-2.0,0.0,0.9892578125,-0.04052734375,0.310546875,-14.756097560975611,-71.21951219512195,-46.28048780487805
10_46_49_636,-1.0,-3.0,-5.0,-1.0,-3.0,2.0,1.0,-2.0,0.97265625,-0.0166015625,0.35205078125,-17.5,-77.7439024390244,-50.304878048780495
10_46_49_636,1.0,1.0,0.0,2.0,-5.0,0.0,0.0,2.0,0.9580078125,-0.00537109375,0.3916015625,-11.707317073170733,-82.25609756097562,-53.84146341463415
10_46_49_636,0.0,2.0,-7.0,-2.0,0.0,-2.0,0.0,-2.0,0.947265625,-0.01220703125,0.4345703125,0.7317073170731708,-86.34146341463415,-61.03658536585366
10_46_49_636,-2.0,-7.0,-1.0,-4.0,-2.0,0.0,-3.0,-1.0,0.91015625,-0.0732421875,0.49267578125,7.987804878048781,-88.96341463414635,-67.6829268292683
10_46_49_636,-4.0,-2.0,0.0,-6.0,0.0,-1.0,1.0,-1.0,0.88916015625,-0.15185546875,0.544921875,-0.7926829268292683,-93.59756097560977,-69.75609756097562
10_46_49_636,0.0,0.0,1.0,7.0,1.0,0.0,1.0,2.0,0.8583984375,-0.1572265625,0.5771484375,-14.51219512195122,-99.26829268292684,-66.52439024390245
10_46_49_692,-1.0,8.0,3.0,0.0,-4.0,1.0,-3.0,2.0,0.974609375,-0.0244140625,0.2705078125,-23.59756097560976,-34.87804878048781,-8.292682926829269
10_46_49_692,-3.0,-14.0,-4.0,2.0,-3.0,-2.0,-2.0,1.0,0.974609375,-0.03662109375,0.27783203125,-23.78048780487805,-38.71951219512196,-9.207317073170733
10_46_49_692,-4.0,1.0,-3.0,-6.0,-3.0,-1.0,-2.0,-1.0,0.9892578125,-0.04052734375,0.310546875,-14.756097560975611,-71.21951219512195,-46.28048780487805
10_46_49_692,-3.0,-7.0,-11.0,-3.0,-1.0,-2.0,-3.0,-3.0,0.97265625,-0.0166015625,0.35205078125,-17.5,-77.7439024390244,-50.304878048780495
10_46_49_692,1.0,-4.0,8.0,-5.0,1.0,-1.0,-2.0,0.0,0.9580078125,-0.00537109375,0.3916015625,-11.707317073170733,-82.25609756097562,-53.84146341463415
10_46_49_692,-1.0,-3.0,-5.0,-1.0,-3.0,2.0,1.0,-2.0,0.947265625,-0.01220703125,0.4345703125,0.7317073170731708,-86.34146341463415,-61.03658536585366
10_46_49_692,1.0,1.0,0.0,2.0,-5.0,0.0,0.0,2.0,0.91015625,-0.0732421875,0.49267578125,7.987804878048781,-88.96341463414635,-67.6829268292683
10_46_49_692,0.0,2.0,-7.0,-2.0,0.0,-2.0,0.0,-2.0,0.88916015625,-0.15185546875,0.544921875,-0.7926829268292683,-93.59756097560977,-69.75609756097562
10_46_49_692,-2.0,-7.0,-1.0,-4.0,-2.0,0.0,-3.0,-1.0,0.8583984375,-0.1572265625,0.5771484375,-14.51219512195122,-99.26829268292684,-66.52439024390245
10_46_49_750,3.0,0.0,-1.0,-5.0,0.0,-1.0,-1.0,0.0,0.986328125,0.0029296875,0.27294921875,-26.402439024390247,-27.378048780487806,-5.853658536585367
10_46_49_750,-1.0,0.0,-1.0,-2.0,-1.0,-1.0,-2.0,-1.0,0.9814453125,-0.01318359375,0.26904296875,-28.353658536585368,-29.87804878048781,-6.402439024390245
10_46_49_750,0.0,2.0,4.0,1.0,2.0,-2.0,-2.0,-2.0,0.98046875,-0.017578125,0.27392578125,-28.170731707317074,-31.52439024390244,-6.829268292682928
10_46_49_750,0.0,-2.0,-3.0,-3.0,0.0,-2.0,-3.0,-2.0,0.974609375,-0.0244140625,0.2705078125,-23.59756097560976,-34.87804878048781,-8.292682926829269
10_46_49_750,0.0,-2.0,-3.0,1.0,-4.0,-1.0,-1.0,-1.0,0.974609375,-0.03662109375,0.27783203125,-23.78048780487805,-38.71951219512196,-9.207317073170733
10_46_49_750,0.0,-1.0,-4.0,0.0,0.0,1.0,-1.0,-1.0,0.9892578125,-0.04052734375,0.310546875,-14.756097560975611,-71.21951219512195,-46.28048780487805
10_46_49_750,-4.0,-2.0,0.0,-1.0,-4.0,0.0,-1.0,-1.0,0.97265625,-0.0166015625,0.35205078125,-17.5,-77.7439024390244,-50.304878048780495
10_46_49_750,-3.0,0.0,-2.0,-4.0,-1.0,0.0,1.0,-1.0,0.9580078125,-0.00537109375,0.3916015625,-11.707317073170733,-82.25609756097562,-53.84146341463415
10_46_49_750,-1.0,-3.0,-3.0,0.0,1.0,-2.0,-2.0,1.0,0.947265625,-0.01220703125,0.4345703125,0.7317073170731708,-86.34146341463415,-61.03658536585366
10_46_49_789,1.0,5.0,-3.0,0.0,-2.0,0.0,0.0,0.0,0.96875,-0.0048828125,0.27685546875,-22.012195121951223,-21.158536585365855,-5.060975609756098
10_46_49_789,-3.0,-11.0,1.0,4.0,1.0,3.0,2.0,-3.0,0.9765625,0.0146484375,0.2744140625,-26.28048780487805,-25.121951219512198,-5.487804878048781
10_46_49_789,-3.0,-2.0,-2.0,-3.0,-2.0,-2.0,-4.0,-3.0,0.986328125,0.0029296875,0.27294921875,-26.402439024390247,-27.378048780487806,-5.853658536585367
10_46_49_789,-1.0,-2.0,0.0,-1.0,-2.0,-2.0,-4.0,1.0,0.9814453125,-0.01318359375,0.26904296875,-28.353658536585368,-29.87804878048781,-6.402439024390245
10_46_49_789,0.0,3.0,2.0,-3.0,-1.0,0.0,1.0,0.0,0.98046875,-0.017578125,0.27392578125,-28.170731707317074,-31.52439024390244,-6.829268292682928
10_46_49_789,-3.0,-2.0,3.0,3.0,-2.0,2.0,-1.0,-3.0,0.974609375,-0.0244140625,0.2705078125,-23.59756097560976,-34.87804878048781,-8.292682926829269
10_46_49_789,3.0,0.0,-1.0,-5.0,0.0,-1.0,-1.0,0.0,0.974609375,-0.03662109375,0.27783203125,-23.78048780487805,-38.71951219512196,-9.207317073170733
10_46_49_789,-1.0,0.0,-1.0,-2.0,-1.0,-1.0,-2.0,-1.0,0.9892578125,-0.04052734375,0.310546875,-14.756097560975611,-71.21951219512195,-46.28048780487805
10_46_49_789,0.0,2.0,4.0,1.0,2.0,-2.0,-2.0,-2.0,0.97265625,-0.0166015625,0.35205078125,-17.5,-77.7439024390244,-50.304878048780495
10_46_49_851,0.0,-2.0,-6.0,0.0,-5.0,-3.0,0.0,-1.0,0.9658203125,-0.00244140625,0.26806640625,-13.841463414634148,-15.670731707317074,-5.060975609756098
10_46_49_851,1.0,-3.0,1.0,0.0,1.0,-3.0,0.0,-4.0,0.96630859375,-0.00341796875,0.2705078125,-17.439024390243905,-18.658536585365855,-4.75609756097561
10_46_49_851,-1.0,-4.0,-2.0,-3.0,-2.0,-2.0,-1.0,0.0,0.96875,-0.0048828125,0.27685546875,-22.012195121951223,-21.158536585365855,-5.060975609756098
10_46_49_851,-1.0,0.0,2.0,-1.0,-1.0,-4.0,-4.0,-3.0,0.9765625,0.0146484375,0.2744140625,-26.28048780487805,-25.121951219512198,-5.487804878048781
10_46_49_851,-1.0,-1.0,-1.0,-2.0,-3.0,-1.0,-1.0,-3.0,0.986328125,0.0029296875,0.27294921875,-26.402439024390247,-27.378048780487806,-5.853658536585367
10_46_49_851,1.0,-3.0,-5.0,-1.0,0.0,-1.0,-3.0,-2.0,0.9814453125,-0.01318359375,0.26904296875,-28.353658536585368,-29.87804878048781,-6.402439024390245
10_46_49_851,-1.0,4.0,5.0,0.0,2.0,0.0,0.0,-2.0,0.98046875,-0.017578125,0.27392578125,-28.170731707317074,-31.52439024390244,-6.829268292682928
10_46_49_851,1.0,5.0,-3.0,0.0,-2.0,0.0,0.0,0.0,0.974609375,-0.0244140625,0.2705078125,-23.59756097560976,-34.87804878048781,-8.292682926829269
10_46_49_851,-3.0,-11.0,1.0,4.0,1.0,3.0,2.0,-3.0,0.974609375,-0.03662109375,0.27783203125,-23.78048780487805,-38.71951219512196,-9.207317073170733
10_46_49_851,-3.0,-2.0,-2.0,-3.0,-2.0,-2.0,-4.0,-3.0,0.9892578125,-0.04052734375,0.310546875,-14.756097560975611,-71.21951219512195,-46.28048780487805
10_46_49_912,-1.0,-3.0,-4.0,5.0,1.0,2.0,1.0,-1.0,0.97216796875,0.00390625,0.2548828125,-12.439024390243903,-12.682926829268293,-5.487804878048781
10_46_49_912,-1.0,-1.0,-3.0,-2.0,1.0,-1.0,-1.0,-3.0,0.9658203125,-0.00244140625,0.26806640625,-13.841463414634148,-15.670731707317074,-5.060975609756098
10_46_49_912,0.0,2.0,0.0,-1.0,-3.0,-2.0,3.0,-2.0,0.96630859375,-0.00341796875,0.2705078125,-17.439024390243905,-18.658536585365855,-4.75609756097561
10_46_49_912,1.0,2.0,1.0,1.0,-1.0,-2.0,-2.0,1.0,0.96875,-0.0048828125,0.27685546875,-22.012195121951223,-21.158536585365855,-5.060975609756098
10_46_49_912,-1.0,-2.0,-1.0,4.0,-4.0,0.0,1.0,-2.0,0.9765625,0.0146484375,0.2744140625,-26.28048780487805,-25.121951219512198,-5.487804878048781
10_46_49_912,-3.0,-2.0,1.0,-3.0,2.0,-4.0,-3.0,2.0,0.986328125,0.0029296875,0.27294921875,-26.402439024390247,-27.378048780487806,-5.853658536585367
10_46_49_912,3.0,-3.0,-1.0,-7.0,-3.0,3.0,-2.0,0.0,0.9814453125,-0.01318359375,0.26904296875,-28.353658536585368,-29.87804878048781,-6.402439024390245
10_46_49_912,-2.0,-1.0,-1.0,-4.0,0.0,-1.0,-3.0,-2.0,0.98046875,-0.017578125,0.27392578125,-28.170731707317074,-31.52439024390244,-6.829268292682928
10_46_49_925,-1.0,0.0,-2.0,1.0,0.0,2.0,-2.0,-1.0,0.982421875,0.01025390625,0.2099609375,-12.500000000000002,1.6463414634146343,-1.707317073170732
10_46_49_925,-1.0,-1.0,-3.0,2.0,0.0,-3.0,0.0,-1.0,0.9814453125,0.01025390625,0.21826171875,-11.52439024390244,-1.1585365853658538,-2.25609756097561
10_46_49_925,-2.0,-5.0,-4.0,-1.0,-4.0,-1.0,-1.0,2.0,0.97509765625,0.00830078125,0.22412109375,-11.52439024390244,-4.024390243902439,-2.987804878048781
10_46_49_925,0.0,-2.0,1.0,-1.0,-4.0,-1.0,0.0,-2.0,0.97216796875,0.00390625,0.2548828125,-12.439024390243903,-12.682926829268293,-5.487804878048781
10_46_49_925,1.0,0.0,-5.0,0.0,-2.0,-1.0,-3.0,-2.0,0.9658203125,-0.00244140625,0.26806640625,-13.841463414634148,-15.670731707317074,-5.060975609756098
10_46_49_925,2.0,-3.0,2.0,-3.0,1.0,0.0,-1.0,-3.0,0.96630859375,-0.00341796875,0.2705078125,-17.439024390243905,-18.658536585365855,-4.75609756097561
10_46_49_925,-2.0,0.0,-6.0,0.0,0.0,-2.0,-3.0,-2.0,0.96875,-0.0048828125,0.27685546875,-22.012195121951223,-21.158536585365855,-5.060975609756098
10_46_49_925,3.0,0.0,-1.0,0.0,-1.0,-1.0,-1.0,0.0,0.9765625,0.0146484375,0.2744140625,-26.28048780487805,-25.121951219512198,-5.487804878048781
10_46_49_925,-1.0,-1.0,0.0,1.0,-1.0,-1.0,-2.0,-5.0,0.986328125,0.0029296875,0.27294921875,-26.402439024390247,-27.378048780487806,-5.853658536585367
10_46_49_995,0.0,-1.0,-1.0,-1.0,-3.0,-1.0,1.0,-1.0,0.95947265625,-0.00048828125,0.21484375,-15.243902439024392,7.317073170731708,0.24390243902439027
10_46_49_995,-1.0,2.0,0.0,2.0,-3.0,2.0,1.0,-1.0,0.96435546875,0.0029296875,0.21044921875,-14.085365853658537,5.609756097560976,-0.30487804878048785
10_46_49_995,-2.0,-3.0,-1.0,2.0,-1.0,-3.0,0.0,-1.0,0.97509765625,0.00439453125,0.212890625,-13.109756097560977,3.780487804878049,-0.6707317073170732
10_46_49_995,-1.0,-2.0,-5.0,0.0,-4.0,-4.0,1.0,0.0,0.982421875,0.01025390625,0.2099609375,-12.500000000000002,1.6463414634146343,-1.707317073170732
10_46_49_995,0.0,-1.0,1.0,-1.0,0.0,-4.0,-1.0,-1.0,0.9814453125,0.01025390625,0.21826171875,-11.52439024390244,-1.1585365853658538,-2.25609756097561
10_46_49_995,-1.0,0.0,-2.0,1.0,0.0,2.0,-2.0,-1.0,0.97509765625,0.00830078125,0.22412109375,-11.52439024390244,-4.024390243902439,-2.987804878048781
10_46_49_995,-1.0,-1.0,-3.0,2.0,0.0,-3.0,0.0,-1.0,0.97216796875,0.00390625,0.2548828125,-12.439024390243903,-12.682926829268293,-5.487804878048781
10_46_49_995,-2.0,-5.0,-4.0,-1.0,-4.0,-1.0,-1.0,2.0,0.9658203125,-0.00244140625,0.26806640625,-13.841463414634148,-15.670731707317074,-5.060975609756098
10_46_49_995,0.0,-2.0,1.0,-1.0,-4.0,-1.0,0.0,-2.0,0.96630859375,-0.00341796875,0.2705078125,-17.439024390243905,-18.658536585365855,-4.75609756097561
10_46_49_995,1.0,0.0,-5.0,0.0,-2.0,-1.0,-3.0,-2.0,0.96875,-0.0048828125,0.27685546875,-22.012195121951223,-21.158536585365855,-5.060975609756098
10_46_50_043,-1.0,1.0,5.0,-5.0,0.0,-2.0,2.0,-3.0,0.95263671875,-0.0322265625,0.21728515625,-4.573170731707317,8.292682926829269,1.0975609756097562
10_46_50_043,-4.0,0.0,-2.0,-6.0,1.0,-1.0,-1.0,0.0,0.951171875,-0.04052734375,0.2216796875,-7.743902439024391,8.109756097560977,0.9756097560975611
10_46_50_043,-3.0,-1.0,1.0,-2.0,-2.0,-1.0,-2.0,-2.0,0.94970703125,-0.03759765625,0.2255859375,-12.439024390243903,7.987804878048781,1.1585365853658538
10_46_50_043,-3.0,0.0,1.0,5.0,0.0,2.0,-1.0,-1.0,0.95751953125,-0.0146484375,0.21875,-15.30487804878049,8.231707317073171,0.853658536585366
10_46_50_043,0.0,0.0,-3.0,1.0,0.0,-3.0,-3.0,2.0,0.95947265625,-0.00048828125,0.21484375,-15.243902439024392,7.317073170731708,0.24390243902439027
10_46_50_043,-3.0,-2.0,0.0,1.0,0.0,0.0,2.0,0.0,0.96435546875,0.0029296875,0.21044921875,-14.085365853658537,5.609756097560976,-0.30487804878048785
10_46_50_043,0.0,-1.0,2.0,1.0,-3.0,4.0,-3.0,2.0,0.97509765625,0.00439453125,0.212890625,-13.109756097560977,3.780487804878049,-0.6707317073170732
10_46_50_043,-2.0,-6.0,-4.0,-3.0,-1.0,-1.0,0.0,-3.0,0.982421875,0.01025390625,0.2099609375,-12.500000000000002,1.6463414634146343,-1.707317073170732
10_46_50_043,-2.0,-1.0,0.0,1.0,0.0,-2.0,0.0,0.0,0.9814453125,0.01025390625,0.21826171875,-11.52439024390244,-1.1585365853658538,-2.25609756097561
10_46_50_043,2.0,0.0,0.0,-5.0,-1.0,-1.0,-1.0,2.0,0.97509765625,0.00830078125,0.22412109375,-11.52439024390244,-4.024390243902439,-2.987804878048781
10_46_50_111,-3.0,0.0,1.0,5.0,0.0,2.0,-1.0,-1.0,0.96435546875,0.0029296875,0.21044921875,-14.085365853658537,5.609756097560976,-0.30487804878048785
10_46_50_111,0.0,0.0,-3.0,1.0,0.0,-3.0,-3.0,2.0,0.97509765625,0.00439453125,0.212890625,-13.109756097560977,3.780487804878049,-0.6707317073170732
10_46_50_111,-3.0,-2.0,0.0,1.0,0.0,0.0,2.0,0.0,0.982421875,0.01025390625,0.2099609375,-12.500000000000002,1.6463414634146343,-1.707317073170732
10_46_50_111,0.0,-1.0,2.0,1.0,-3.0,4.0,-3.0,2.0,0.9814453125,0.01025390625,0.21826171875,-11.52439024390244,-1.1585365853658538,-2.25609756097561
10_46_50_111,-2.0,-6.0,-4.0,-3.0,-1.0,-1.0,0.0,-3.0,0.97509765625,0.00830078125,0.22412109375,-11.52439024390244,-4.024390243902439,-2.987804878048781
10_46_50_151,1.0,0.0,4.0,1.0,-1.0,0.0,-1.0,-3.0,0.9423828125,-0.03369140625,0.20947265625,-4.2682926829268295,4.75609756097561,1.9512195121951221
10_46_50_151,-1.0,-1.0,-4.0,-3.0,-4.0,-4.0,-2.0,-2.0,0.94189453125,-0.03515625,0.22412109375,-3.1097560975609757,6.036585365853659,2.1951219512195124
10_46_50_151,-1.0,0.0,0.0,0.0,1.0,0.0,-3.0,-1.0,0.94677734375,-0.03515625,0.2265625,-3.048780487804878,7.621951219512196,1.7682926829268295
10_46_50_151,-3.0,-4.0,3.0,0.0,-1.0,0.0,-2.0,-1.0,0.95263671875,-0.0322265625,0.21728515625,-4.573170731707317,8.292682926829269,1.0975609756097562
10_46_50_151,-1.0,-2.0,-3.0,-1.0,1.0,-1.0,-2.0,-1.0,0.951171875,-0.04052734375,0.2216796875,-7.743902439024391,8.109756097560977,0.9756097560975611
10_46_50_151,-3.0,-2.0,-2.0,-3.0,1.0,-3.0,0.0,-2.0,0.94970703125,-0.03759765625,0.2255859375,-12.439024390243903,7.987804878048781,1.1585365853658538
10_46_50_151,-3.0,-3.0,0.0,-1.0,3.0,0.0,-1.0,2.0,0.95751953125,-0.0146484375,0.21875,-15.30487804878049,8.231707317073171,0.853658536585366
10_46_50_151,3.0,-1.0,-5.0,-4.0,-1.0,-1.0,2.0,-3.0,0.95947265625,-0.00048828125,0.21484375,-15.243902439024392,7.317073170731708,0.24390243902439027
10_46_50_151,-1.0,1.0,3.0,-2.0,-4.0,-1.0,-1.0,-2.0,0.96435546875,0.0029296875,0.21044921875,-14.085365853658537,5.609756097560976,-0.30487804878048785
10_46_50_198,-2.0,-2.0,2.0,5.0,1.0,-1.0,-3.0,-4.0,0.95361328125,-0.03369140625,0.20654296875,-3.780487804878049,4.695121951219512,3.8414634146341466
10_46_50_198,0.0,1.0,-5.0,-5.0,-6.0,0.0,0.0,-2.0,0.95849609375,-0.037109375,0.205078125,-5.182926829268293,4.146341463414634,2.9268292682926833
10_46_50_198,-1.0,0.0,-4.0,-4.0,-2.0,-1.0,1.0,-2.0,0.9423828125,-0.03369140625,0.20947265625,-4.2682926829268295,4.75609756097561,1.9512195121951221
10_46_50_198,4.0,-5.0,1.0,-4.0,-2.0,-2.0,-3.0,-2.0,0.94189453125,-0.03515625,0.22412109375,-3.1097560975609757,6.036585365853659,2.1951219512195124
10_46_50_198,-4.0,2.0,0.0,-1.0,-1.0,-4.0,-3.0,0.0,0.94677734375,-0.03515625,0.2265625,-3.048780487804878,7.621951219512196,1.7682926829268295
10_46_50_198,1.0,0.0,4.0,1.0,-1.0,0.0,-1.0,-3.0,0.95263671875,-0.0322265625,0.21728515625,-4.573170731707317,8.292682926829269,1.0975609756097562
10_46_50_198,-1.0,-1.0,-4.0,-3.0,-4.0,-4.0,-2.0,-2.0,0.951171875,-0.04052734375,0.2216796875,-7.743902439024391,8.109756097560977,0.9756097560975611
10_46_50_198,-1.0,0.0,0.0,0.0,1.0,0.0,-3.0,-1.0,0.94970703125,-0.03759765625,0.2255859375,-12.439024390243903,7.987804878048781,1.1585365853658538
10_46_50_198,-3.0,-4.0,3.0,0.0,-1.0,0.0,-2.0,-1.0,0.95751953125,-0.0146484375,0.21875,-15.30487804878049,8.231707317073171,0.853658536585366
10_46_50_198,-1.0,-2.0,-3.0,-1.0,1.0,-1.0,-2.0,-1.0,0.95947265625,-0.00048828125,0.21484375,-15.243902439024392,7.317073170731708,0.24390243902439027
10_46_50_259,0.0,0.0,-2.0,-2.0,0.0,1.0,0.0,1.0,0.95849609375,-0.037109375,0.205078125,-5.182926829268293,4.146341463414634,2.9268292682926833
10_46_50_259,2.0,-3.0,-1.0,-5.0,2.0,2.0,0.0,2.0,0.9423828125,-0.03369140625,0.20947265625,-4.2682926829268295,4.75609756097561,1.9512195121951221
10_46_50_259,-2.0,0.0,5.0,9.0,-1.0,-5.0,0.0,-3.0,0.94189453125,-0.03515625,0.22412109375,-3.1097560975609757,6.036585365853659,2.1951219512195124
10_46_50_259,0.0,-3.0,-4.0,-4.0,-1.0,-1.0,1.0,-1.0,0.94677734375,-0.03515625,0.2265625,-3.048780487804878,7.621951219512196,1.7682926829268295
10_46_50_259,-2.0,-2.0,2.0,5.0,1.0,-1.0,-3.0,-4.0,0.95263671875,-0.0322265625,0.21728515625,-4.573170731707317,8.292682926829269,1.0975609756097562
10_46_50_259,0.0,1.0,-5.0,-5.0,-6.0,0.0,0.0,-2.0,0.951171875,-0.04052734375,0.2216796875,-7.743902439024391,8.109756097560977,0.9756097560975611
10_46_50_259,-1.0,0.0,-4.0,-4.0,-2.0,-1.0,1.0,-2.0,0.94970703125,-0.03759765625,0.2255859375,-12.439024390243903,7.987804878048781,1.1585365853658538
10_46_50_259,4.0,-5.0,1.0,-4.0,-2.0,-2.0,-3.0,-2.0,0.95751953125,-0.0146484375,0.21875,-15.30487804878049,8.231707317073171,0.853658536585366
10_46_50_296,-1.0,1.0,-1.0,-4.0,2.0,-1.0,-1.0,-1.0,0.9580078125,-0.03564453125,0.21533203125,-1.0365853658536586,5.060975609756098,4.390243902439025
10_46_50_296,-1.0,-1.0,3.0,6.0,2.0,-2.0,-2.0,-1.0,0.95361328125,-0.03369140625,0.20654296875,-3.780487804878049,4.695121951219512,3.8414634146341466
10_46_50_296,-3.0,0.0,-4.0,3.0,2.0,0.0,1.0,-2.0,0.95849609375,-0.037109375,0.205078125,-5.182926829268293,4.146341463414634,2.9268292682926833
10_46_50_296,-1.0,-1.0,-3.0,1.0,4.0,0.0,-1.0,-1.0,0.9423828125,-0.03369140625,0.20947265625,-4.2682926829268295,4.75609756097561,1.9512195121951221
10_46_50_296,-1.0,0.0,2.0,2.0,-4.0,0.0,-2.0,0.0,0.94189453125,-0.03515625,0.22412109375,-3.1097560975609757,6.036585365853659,2.1951219512195124
10_46_50_296,-3.0,0.0,-1.0,-1.0,-1.0,0.0,-1.0,1.0,0.94677734375,-0.03515625,0.2265625,-3.048780487804878,7.621951219512196,1.7682926829268295
10_46_50_296,1.0,0.0,-4.0,-2.0,0.0,0.0,1.0,0.0,0.95263671875,-0.0322265625,0.21728515625,-4.573170731707317,8.292682926829269,1.0975609756097562
10_46_50_296,0.0,0.0,-2.0,-2.0,0.0,1.0,0.0,1.0,0.951171875,-0.04052734375,0.2216796875,-7.743902439024391,8.109756097560977,0.9756097560975611
10_46_50_296,2.0,-3.0,-1.0,-5.0,2.0,2.0,0.0,2.0,0.94970703125,-0.03759765625,0.2255859375,-12.439024390243903,7.987804878048781,1.1585365853658538
10_46_50_365,-3.0,-5.0,-7.0,-9.0,0.0,2.0,-1.0,-3.0,0.97607421875,-0.005859375,0.23583984375,-1.0365853658536586,10.24390243902439,12.560975609756099
10_46_50_365,-3.0,0.0,1.0,-5.0,-3.0,-2.0,1.0,1.0,0.9814453125,0.00244140625,0.21826171875,-3.9024390243902443,8.841463414634147,9.878048780487806
10_46_50_365,-1.0,2.0,-5.0,9.0,1.0,0.0,1.0,-2.0,0.95751953125,-0.025390625,0.21875,1.6463414634146343,5.853658536585367,5.3048780487804885
10_46_50_365,-1.0,0.0,4.0,-2.0,1.0,1.0,-2.0,1.0,0.9580078125,-0.03564453125,0.21533203125,-1.0365853658536586,5.060975609756098,4.390243902439025
10_46_50_365,-2.0,0.0,-2.0,-5.0,-3.0,-1.0,-2.0,-2.0,0.95361328125,-0.03369140625,0.20654296875,-3.780487804878049,4.695121951219512,3.8414634146341466
10_46_50_365,-1.0,5.0,-3.0,-1.0,-6.0,2.0,1.0,-5.0,0.95849609375,-0.037109375,0.205078125,-5.182926829268293,4.146341463414634,2.9268292682926833
10_46_50_365,-1.0,-11.0,-1.0,-5.0,-2.0,-4.0,-3.0,-2.0,0.9423828125,-0.03369140625,0.20947265625,-4.2682926829268295,4.75609756097561,1.9512195121951221
10_46_50_365,-1.0,1.0,-1.0,-4.0,2.0,-1.0,-1.0,-1.0,0.94189453125,-0.03515625,0.22412109375,-3.1097560975609757,6.036585365853659,2.1951219512195124
10_46_50_365,-1.0,-1.0,3.0,6.0,2.0,-2.0,-2.0,-1.0,0.94677734375,-0.03515625,0.2265625,-3.048780487804878,7.621951219512196,1.7682926829268295
10_46_50_365,-3.0,0.0,-4.0,3.0,2.0,0.0,1.0,-2.0,0.95263671875,-0.0322265625,0.21728515625,-4.573170731707317,8.292682926829269,1.0975609756097562
10_46_50_406,2.0,-1.0,-2.0,-13.0,-10.0,-1.0,-1.0,-3.0,0.96484375,-0.01513671875,0.33740234375,9.756097560975611,18.04878048780488,22.073170731707318
10_46_50_406,0.0,3.0,1.0,4.0,1.0,-1.0,1.0,0.0,0.9638671875,0.00634765625,0.2509765625,1.3414634146341464,12.926829268292684,16.402439024390244
10_46_50_406,-5.0,4.0,-5.0,7.0,1.0,3.0,-2.0,-2.0,0.97607421875,-0.005859375,0.23583984375,-1.0365853658536586,10.24390243902439,12.560975609756099
10_46_50_406,0.0,3.0,3.0,4.0,3.0,2.0,2.0,1.0,0.9814453125,0.00244140625,0.21826171875,-3.9024390243902443,8.841463414634147,9.878048780487806
10_46_50_406,-1.0,0.0,-1.0,-5.0,-5.0,0.0,0.0,0.0,0.95751953125,-0.025390625,0.21875,1.6463414634146343,5.853658536585367,5.3048780487804885
10_46_50_406,1.0,0.0,2.0,9.0,3.0,0.0,-1.0,0.0,0.9580078125,-0.03564453125,0.21533203125,-1.0365853658536586,5.060975609756098,4.390243902439025
10_46_50_406,0.0,-1.0,-11.0,-5.0,0.0,-2.0,-3.0,-1.0,0.95361328125,-0.03369140625,0.20654296875,-3.780487804878049,4.695121951219512,3.8414634146341466
10_46_50_406,-2.0,-1.0,15.0,4.0,-1.0,0.0,0.0,-3.0,0.95849609375,-0.037109375,0.205078125,-5.182926829268293,4.146341463414634,2.9268292682926833
10_46_50_406,-3.0,-5.0,-7.0,-9.0,0.0,2.0,-1.0,-3.0,0.9423828125,-0.03369140625,0.20947265625,-4.2682926829268295,4.75609756097561,1.9512195121951221
10_46_50_406,-3.0,0.0,1.0,-5.0,-3.0,-2.0,1.0,1.0,0.94189453125,-0.03515625,0.22412109375,-3.1097560975609757,6.036585365853659,2.1951219512195124
10_46_50_447,-1.0,0.0,-2.0,23.0,27.0,-10.0,0.0,-2.0,1.025390625,-0.15869140625,0.47802734375,-7.500000000000001,82.31707317073172,54.024390243902445
10_46_50_447,1.0,2.0,1.0,-15.0,-21.0,0.0,2.0,-1.0,1.0146484375,-0.15234375,0.45361328125,-7.073170731707318,64.20731707317074,44.69512195121952
10_46_50_447,3.0,1.0,1.0,-9.0,-3.0,-7.0,-1.0,-4.0,0.9775390625,-0.0107421875,0.35498046875,4.390243902439025,22.134146341463417,27.073170731707318
10_46_50_447,-2.0,-3.0,-4.0,0.0,-13.0,-4.0,2.0,-1.0,0.96484375,-0.01513671875,0.33740234375,9.756097560975611,18.04878048780488,22.073170731707318
10_46_50_447,-3.0,-2.0,-1.0,-8.0,16.0,3.0,0.0,-2.0,0.9638671875,0.00634765625,0.2509765625,1.3414634146341464,12.926829268292684,16.402439024390244
10_46_50_447,-2.0,3.0,2.0,15.0,10.0,0.0,-1.0,2.0,0.97607421875,-0.005859375,0.23583984375,-1.0365853658536586,10.24390243902439,12.560975609756099
10_46_50_447,-3.0,-1.0,1.0,-14.0,-23.0,-4.0,-4.0,0.0,0.9814453125,0.00244140625,0.21826171875,-3.9024390243902443,8.841463414634147,9.878048780487806
10_46_50_447,1.0,-1.0,1.0,6.0,14.0,3.0,1.0,-1.0,0.95751953125,-0.025390625,0.21875,1.6463414634146343,5.853658536585367,5.3048780487804885
10_46_50_447,2.0,-1.0,-2.0,-13.0,-10.0,-1.0,-1.0,-3.0,0.9580078125,-0.03564453125,0.21533203125,-1.0365853658536586,5.060975609756098,4.390243902439025
10_46_50_447,0.0,3.0,1.0,4.0,1.0,-1.0,1.0,0.0,0.95361328125,-0.03369140625,0.20654296875,-3.780487804878049,4.695121951219512,3.8414634146341466
10_46_50_522,-3.0,0.0,-4.0,-7.0,6.0,6.0,1.0,2.0,1.025390625,-0.15869140625,0.47802734375,-7.500000000000001,82.31707317073172,54.024390243902445
10_46_50_522,-3.0,1.0,-3.0,-7.0,-5.0,41.0,3.0,3.0,1.0146484375,-0.15234375,0.45361328125,-7.073170731707318,64.20731707317074,44.69512195121952
10_46_50_522,-1.0,0.0,-2.0,23.0,27.0,-10.0,0.0,-2.0,0.9775390625,-0.0107421875,0.35498046875,4.390243902439025,22.134146341463417,27.073170731707318
10_46_50_522,1.0,2.0,1.0,-15.0,-21.0,0.0,2.0,-1.0,0.96484375,-0.01513671875,0.33740234375,9.756097560975611,18.04878048780488,22.073170731707318
10_46_50_522,3.0,1.0,1.0,-9.0,-3.0,-7.0,-1.0,-4.0,0.9638671875,0.00634765625,0.2509765625,1.3414634146341464,12.926829268292684,16.402439024390244
10_46_50_522,-2.0,-3.0,-4.0,0.0,-13.0,-4.0,2.0,-1.0,0.97607421875,-0.005859375,0.23583984375,-1.0365853658536586,10.24390243902439,12.560975609756099
10_46_50_522,-3.0,-2.0,-1.0,-8.0,16.0,3.0,0.0,-2.0,0.9814453125,0.00244140625,0.21826171875,-3.9024390243902443,8.841463414634147,9.878048780487806
10_46_50_522,-2.0,3.0,2.0,15.0,10.0,0.0,-1.0,2.0,0.95751953125,-0.025390625,0.21875,1.6463414634146343,5.853658536585367,5.3048780487804885
10_46_50_522,-3.0,-1.0,1.0,-14.0,-23.0,-4.0,-4.0,0.0,0.9580078125,-0.03564453125,0.21533203125,-1.0365853658536586,5.060975609756098,4.390243902439025
10_46_50_522,1.0,-1.0,1.0,6.0,14.0,3.0,1.0,-1.0,0.95361328125,-0.03369140625,0.20654296875,-3.780487804878049,4.695121951219512,3.8414634146341466
10_46_50_565,-1.0,0.0,0.0,-8.0,-6.0,-14.0,-2.0,-2.0,1.0068359375,-0.24853515625,0.580078125,-11.707317073170733,113.59756097560977,71.82926829268294
10_46_50_565,0.0,0.0,-2.0,-1.0,11.0,-1.0,1.0,0.0,1.03125,-0.19482421875,0.51904296875,-13.658536585365855,99.51219512195122,63.17073170731708
10_46_50_565,-3.0,-3.0,-3.0,9.0,14.0,6.0,-5.0,1.0,1.025390625,-0.15869140625,0.47802734375,-7.500000000000001,82.31707317073172,54.024390243902445
10_46_50_565,-3.0,1.0,0.0,-5.0,-3.0,1.0,0.0,-4.0,1.0146484375,-0.15234375,0.45361328125,-7.073170731707318,64.20731707317074,44.69512195121952
10_46_50_565,0.0,-2.0,0.0,6.0,-8.0,-4.0,-3.0,-3.0,0.9775390625,-0.0107421875,0.35498046875,4.390243902439025,22.134146341463417,27.073170731707318
10_46_50_565,0.0,-4.0,-3.0,3.0,9.0,-6.0,-3.0,-3.0,0.96484375,-0.01513671875,0.33740234375,9.756097560975611,18.04878048780488,22.073170731707318
10_46_50_565,-2.0,-2.0,-3.0,-2.0,-7.0,-7.0,-2.0,-4.0,0.9638671875,0.00634765625,0.2509765625,1.3414634146341464,12.926829268292684,16.402439024390244
10_46_50_565,-2.0,-1.0,3.0,0.0,-14.0,-3.0,-2.0,-1.0,0.97607421875,-0.005859375,0.23583984375,-1.0365853658536586,10.24390243902439,12.560975609756099
10_46_50_565,0.0,-1.0,-2.0,5.0,10.0,26.0,11.0,1.0,0.9814453125,0.00244140625,0.21826171875,-3.9024390243902443,8.841463414634147,9.878048780487806
10_46_50_565,-1.0,-1.0,-1.0,6.0,30.0,-24.0,-6.0,-1.0,0.95751953125,-0.025390625,0.21875,1.6463414634146343,5.853658536585367,5.3048780487804885
10_46_50_625,0.0,-4.0,-1.0,2.0,-10.0,0.0,0.0,0.0,0.8564453125,-0.32763671875,0.6806640625,-10.609756097560977,151.52439024390245,95.91463414634147
10_46_50_625,1.0,0.0,0.0,5.0,25.0,-1.0,-2.0,0.0,0.876953125,-0.2998046875,0.67041015625,-9.51219512195122,149.14634146341464,91.82926829268294
10_46_50_625,-2.0,-3.0,-2.0,-7.0,-16.0,-1.0,-1.0,-1.0,1.0068359375,-0.24853515625,0.580078125,-11.707317073170733,113.59756097560977,71.82926829268294
10_46_50_625,0.0,-1.0,2.0,8.0,-5.0,39.0,1.0,4.0,1.03125,-0.19482421875,0.51904296875,-13.658536585365855,99.51219512195122,63.17073170731708
10_46_50_625,-1.0,0.0,0.0,-8.0,-6.0,-14.0,-2.0,-2.0,1.025390625,-0.15869140625,0.47802734375,-7.500000000000001,82.31707317073172,54.024390243902445
10_46_50_625,0.0,0.0,-2.0,-1.0,11.0,-1.0,1.0,0.0,1.0146484375,-0.15234375,0.45361328125,-7.073170731707318,64.20731707317074,44.69512195121952
10_46_50_625,-3.0,-3.0,-3.0,9.0,14.0,6.0,-5.0,1.0,0.9775390625,-0.0107421875,0.35498046875,4.390243902439025,22.134146341463417,27.073170731707318
10_46_50_625,-3.0,1.0,0.0,-5.0,-3.0,1.0,0.0,-4.0,0.96484375,-0.01513671875,0.33740234375,9.756097560975611,18.04878048780488,22.073170731707318
10_46_50_625,0.0,-2.0,0.0,6.0,-8.0,-4.0,-3.0,-3.0,0.9638671875,0.00634765625,0.2509765625,1.3414634146341464,12.926829268292684,16.402439024390244
10_46_50_625,0.0,-4.0,-3.0,3.0,9.0,-6.0,-3.0,-3.0,0.97607421875,-0.005859375,0.23583984375,-1.0365853658536586,10.24390243902439,12.560975609756099
10_46_50_668,2.0,2.0,0.0,-3.0,-7.0,-13.0,1.0,0.0,0.80859375,-0.3544921875,0.66455078125,-6.646341463414635,153.53658536585368,100.3658536585366
10_46_50_668,0.0,-1.0,3.0,-2.0,5.0,15.0,9.0,3.0,0.8203125,-0.35498046875,0.66943359375,-9.329268292682928,152.9878048780488,99.39024390243904
10_46_50_668,-1.0,0.0,2.0,5.0,-6.0,-3.0,-11.0,-2.0,0.8564453125,-0.32763671875,0.6806640625,-10.609756097560977,151.52439024390245,95.91463414634147
10_46_50_668,0.0,0.0,-3.0,6.0,13.0,-8.0,-2.0,0.0,0.876953125,-0.2998046875,0.67041015625,-9.51219512195122,149.14634146341464,91.82926829268294
10_46_50_668,-1.0,1.0,-3.0,4.0,-21.0,2.0,2.0,-1.0,1.0068359375,-0.24853515625,0.580078125,-11.707317073170733,113.59756097560977,71.82926829268294
10_46_50_668,-3.0,-1.0,0.0,-11.0,15.0,1.0,1.0,-3.0,1.03125,-0.19482421875,0.51904296875,-13.658536585365855,99.51219512195122,63.17073170731708
10_46_50_668,0.0,-2.0,-6.0,3.0,14.0,3.0,1.0,-1.0,1.025390625,-0.15869140625,0.47802734375,-7.500000000000001,82.31707317073172,54.024390243902445
10_46_50_668,0.0,1.0,-3.0,-6.0,-12.0,0.0,0.0,0.0,1.0146484375,-0.15234375,0.45361328125,-7.073170731707318,64.20731707317074,44.69512195121952
10_46_50_668,-2.0,-2.0,-2.0,6.0,-3.0,1.0,1.0,0.0,0.9775390625,-0.0107421875,0.35498046875,4.390243902439025,22.134146341463417,27.073170731707318
10_46_50_668,-2.0,-4.0,3.0,-14.0,2.0,-1.0,2.0,0.0,0.96484375,-0.01513671875,0.33740234375,9.756097560975611,18.04878048780488,22.073170731707318
10_46_50_729,-1.0,2.0,4.0,-3.0,-19.0,-7.0,-4.0,-2.0,0.568359375,-0.3818359375,0.677734375,-9.085365853658537,143.96341463414635,97.8658536585366
10_46_50_729,-3.0,-4.0,-3.0,0.0,-6.0,-2.0,0.0,1.0,0.638671875,-0.361328125,0.6796875,-2.5,149.87804878048783,101.21951219512196
10_46_50_729,-1.0,-2.0,1.0,9.0,24.0,2.0,1.0,-2.0,0.80859375,-0.3544921875,0.66455078125,-6.646341463414635,153.53658536585368,100.3658536585366
10_46_50_729,0.0,-4.0,0.0,-17.0,-8.0,-1.0,2.0,1.0,0.8203125,-0.35498046875,0.66943359375,-9.329268292682928,152.9878048780488,99.39024390243904
10_46_50_729,-1.0,-3.0,0.0,-1.0,8.0,1.0,-1.0,1.0,0.8564453125,-0.32763671875,0.6806640625,-10.609756097560977,151.52439024390245,95.91463414634147
10_46_50_729,-1.0,-2.0,0.0,-3.0,-11.0,3.0,0.0,3.0,0.876953125,-0.2998046875,0.67041015625,-9.51219512195122,149.14634146341464,91.82926829268294
10_46_50_729,0.0,3.0,0.0,11.0,21.0,-3.0,-3.0,0.0,1.0068359375,-0.24853515625,0.580078125,-11.707317073170733,113.59756097560977,71.82926829268294
10_46_50_729,-4.0,-5.0,-5.0,-10.0,-23.0,-2.0,0.0,-1.0,1.03125,-0.19482421875,0.51904296875,-13.658536585365855,99.51219512195122,63.17073170731708
10_46_50_729,-2.0,1.0,0.0,-7.0,6.0,-2.0,1.0,-2.0,1.025390625,-0.15869140625,0.47802734375,-7.500000000000001,82.31707317073172,54.024390243902445
10_46_50_729,-1.0,1.0,-2.0,10.0,5.0,-4.0,0.0,1.0,1.0146484375,-0.15234375,0.45361328125,-7.073170731707318,64.20731707317074,44.69512195121952
10_46_50_771,1.0,-2.0,-2.0,-10.0,0.0,-3.0,-4.0,-3.0,0.43359375,-0.42822265625,0.6875,-15.121951219512196,122.25609756097562,94.20731707317074
10_46_50_771,0.0,-2.0,0.0,-5.0,1.0,1.0,0.0,-3.0,0.49658203125,-0.39013671875,0.6689453125,-16.951219512195124,129.63414634146343,93.90243902439025
10_46_50_771,-3.0,-6.0,-2.0,-3.0,-9.0,9.0,2.0,-1.0,0.52197265625,-0.38134765625,0.67333984375,-15.000000000000002,136.46341463414635,93.65853658536587
10_46_50_771,-3.0,3.0,-2.0,-5.0,-6.0,-13.0,-10.0,-3.0,0.568359375,-0.3818359375,0.677734375,-9.085365853658537,143.96341463414635,97.8658536585366
10_46_50_771,-1.0,-4.0,-6.0,4.0,51.0,-15.0,-1.0,0.0,0.638671875,-0.361328125,0.6796875,-2.5,149.87804878048783,101.21951219512196
10_46_50_771,-1.0,4.0,5.0,8.0,-45.0,51.0,1.0,-1.0,0.80859375,-0.3544921875,0.66455078125,-6.646341463414635,153.53658536585368,100.3658536585366
10_46_50_771,1.0,-2.0,3.0,6.0,14.0,-9.0,1.0,1.0,0.8203125,-0.35498046875,0.66943359375,-9.329268292682928,152.9878048780488,99.39024390243904
10_46_50_771,-4.0,-1.0,-1.0,-8.0,-8.0,-2.0,-2.0,-3.0,0.8564453125,-0.32763671875,0.6806640625,-10.609756097560977,151.52439024390245,95.91463414634147
10_46_50_771,3.0,-1.0,-2.0,-2.0,5.0,-4.0,-1.0,1.0,0.876953125,-0.2998046875,0.67041015625,-9.51219512195122,149.14634146341464,91.82926829268294
10_46_50_771,3.0,0.0,-7.0,7.0,0.0,4.0,1.0,1.0,1.0068359375,-0.24853515625,0.580078125,-11.707317073170733,113.59756097560977,71.82926829268294
10_46_50_815,1.0,0.0,-2.0,9.0,-2.0,-3.0,-2.0,-3.0,0.39111328125,-0.44775390625,0.7041015625,-13.475609756097562,113.35365853658537,91.34146341463415
10_46_50_815,0.0,5.0,-3.0,-8.0,4.0,-3.0,-3.0,0.0,0.43359375,-0.42822265625,0.6875,-15.121951219512196,122.25609756097562,94.20731707317074
10_46_50_815,1.0,-1.0,-4.0,-6.0,0.0,-2.0,2.0,2.0,0.49658203125,-0.39013671875,0.6689453125,-16.951219512195124,129.63414634146343,93.90243902439025
10_46_50_815,-2.0,-1.0,-2.0,7.0,-13.0,-8.0,-4.0,0.0,0.52197265625,-0.38134765625,0.67333984375,-15.000000000000002,136.46341463414635,93.65853658536587
10_46_50_815,1.0,-2.0,-2.0,-10.0,0.0,-3.0,-4.0,-3.0,0.568359375,-0.3818359375,0.677734375,-9.085365853658537,143.96341463414635,97.8658536585366
10_46_50_815,0.0,-2.0,0.0,-5.0,1.0,1.0,0.0,-3.0,0.638671875,-0.361328125,0.6796875,-2.5,149.87804878048783,101.21951219512196
10_46_50_815,-3.0,-6.0,-2.0,-3.0,-9.0,9.0,2.0,-1.0,0.80859375,-0.3544921875,0.66455078125,-6.646341463414635,153.53658536585368,100.3658536585366
10_46_50_815,-3.0,3.0,-2.0,-5.0,-6.0,-13.0,-10.0,-3.0,0.8203125,-0.35498046875,0.66943359375,-9.329268292682928,152.9878048780488,99.39024390243904
10_46_50_815,-1.0,-4.0,-6.0,4.0,51.0,-15.0,-1.0,0.0,0.8564453125,-0.32763671875,0.6806640625,-10.609756097560977,151.52439024390245,95.91463414634147
10_46_50_815,-1.0,4.0,5.0,8.0,-45.0,51.0,1.0,-1.0,0.876953125,-0.2998046875,0.67041015625,-9.51219512195122,149.14634146341464,91.82926829268294
10_46_50_869,-2.0,-4.0,-4.0,-2.0,-33.0,-16.0,-3.0,-3.0,0.23193359375,-0.4296875,0.74365234375,6.2804878048780495,94.51219512195122,81.76829268292684
10_46_50_869,-3.0,-3.0,-10.0,0.0,3.0,-4.0,-5.0,1.0,0.3583984375,-0.46337890625,0.71240234375,-5.7926829268292686,106.95121951219514,87.19512195121952
10_46_50_869,0.0,0.0,-1.0,0.0,26.0,2.0,3.0,0.0,0.39111328125,-0.44775390625,0.7041015625,-13.475609756097562,113.35365853658537,91.34146341463415
10_46_50_869,3.0,1.0,2.0,-7.0,-20.0,-2.0,1.0,-2.0,0.43359375,-0.42822265625,0.6875,-15.121951219512196,122.25609756097562,94.20731707317074
10_46_50_869,-3.0,-6.0,-6.0,15.0,15.0,6.0,1.0,0.0,0.49658203125,-0.39013671875,0.6689453125,-16.951219512195124,129.63414634146343,93.90243902439025
10_46_50_869,-2.0,0.0,7.0,-4.0,11.0,-2.0,-2.0,-1.0,0.52197265625,-0.38134765625,0.67333984375,-15.000000000000002,136.46341463414635,93.65853658536587
10_46_50_869,0.0,-2.0,3.0,4.0,-25.0,-2.0,-2.0,-1.0,0.568359375,-0.3818359375,0.677734375,-9.085365853658537,143.96341463414635,97.8658536585366
10_46_50_869,-3.0,-1.0,-10.0,1.0,37.0,1.0,-2.0,-1.0,0.638671875,-0.361328125,0.6796875,-2.5,149.87804878048783,101.21951219512196
10_46_50_869,-1.0,-1.0,5.0,-9.0,-32.0,-1.0,1.0,-1.0,0.80859375,-0.3544921875,0.66455078125,-6.646341463414635,153.53658536585368,100.3658536585366
10_46_50_869,-1.0,-1.0,1.0,-6.0,-2.0,-5.0,-4.0,-4.0,0.8203125,-0.35498046875,0.66943359375,-9.329268292682928,152.9878048780488,99.39024390243904
10_46_50_929,-4.0,-4.0,-11.0,-11.0,-7.0,-6.0,-3.0,0.0,0.14599609375,-0.5,0.7490234375,-17.98780487804878,71.95121951219512,81.15853658536587
10_46_50_929,-1.0,-5.0,-1.0,-13.0,-16.0,2.0,1.0,-2.0,0.169921875,-0.42578125,0.7255859375,-16.76829268292683,75.48780487804879,83.23170731707317
10_46_50_929,1.0,-2.0,-4.0,-13.0,37.0,5.0,1.0,0.0,0.18798828125,-0.41015625,0.73876953125,-1.0365853658536586,83.65853658536587,83.47560975609757
10_46_50_929,0.0,1.0,-9.0,28.0,-7.0,-4.0,-2.0,-1.0,0.23193359375,-0.4296875,0.74365234375,6.2804878048780495,94.51219512195122,81.76829268292684
10_46_50_929,-1.0,0.0,14.0,-12.0,-22.0,-6.0,-2.0,0.0,0.3583984375,-0.46337890625,0.71240234375,-5.7926829268292686,106.95121951219514,87.19512195121952
10_46_50_929,1.0,-5.0,-16.0,-20.0,24.0,3.0,-2.0,-1.0,0.39111328125,-0.44775390625,0.7041015625,-13.475609756097562,113.35365853658537,91.34146341463415
10_46_50_929,0.0,0.0,-4.0,-12.0,-31.0,-9.0,-1.0,-3.0,0.43359375,-0.42822265625,0.6875,-15.121951219512196,122.25609756097562,94.20731707317074
10_46_50_929,1.0,1.0,-1.0,0.0,7.0,16.0,2.0,0.0,0.49658203125,-0.39013671875,0.6689453125,-16.951219512195124,129.63414634146343,93.90243902439025
10_46_50_929,-4.0,-6.0,-2.0,-6.0,-4.0,7.0,4.0,-2.0,0.52197265625,-0.38134765625,0.67333984375,-15.000000000000002,136.46341463414635,93.65853658536587
10_46_50_975,3.0,1.0,0.0,-2.0,-20.0,0.0,-2.0,1.0,-0.02392578125,-0.47119140625,0.77294921875,2.1341463414634148,63.59756097560976,72.6219512195122
10_46_50_975,0.0,-3.0,-11.0,7.0,47.0,5.0,1.0,-4.0,0.03662109375,-0.5048828125,0.77099609375,2.682926829268293,69.14634146341464,73.29268292682927
10_46_50_975,-1.0,3.0,-7.0,12.0,-30.0,-3.0,-1.0,-3.0,0.07275390625,-0.509765625,0.77001953125,-7.560975609756098,70.0609756097561,77.31707317073172
10_46_50_975,-5.0,-3.0,24.0,19.0,-13.0,-8.0,-1.0,-3.0,0.14599609375,-0.5,0.7490234375,-17.98780487804878,71.95121951219512,81.15853658536587
10_46_50_975,-1.0,0.0,0.0,5.0,12.0,0.0,2.0,-3.0,0.169921875,-0.42578125,0.7255859375,-16.76829268292683,75.48780487804879,83.23170731707317
10_46_50_975,0.0,1.0,-2.0,26.0,29.0,5.0,1.0,0.0,0.18798828125,-0.41015625,0.73876953125,-1.0365853658536586,83.65853658536587,83.47560975609757
10_46_50_975,-2.0,-3.0,3.0,-11.0,4.0,2.0,3.0,1.0,0.23193359375,-0.4296875,0.74365234375,6.2804878048780495,94.51219512195122,81.76829268292684
10_46_50_975,-1.0,-1.0,-8.0,-12.0,-6.0,2.0,0.0,3.0,0.3583984375,-0.46337890625,0.71240234375,-5.7926829268292686,106.95121951219514,87.19512195121952
10_46_50_975,-1.0,1.0,-3.0,12.0,-12.0,-8.0,-4.0,0.0,0.39111328125,-0.44775390625,0.7041015625,-13.475609756097562,113.35365853658537,91.34146341463415
10_46_50_975,-1.0,2.0,2.0,2.0,6.0,0.0,-1.0,-2.0,0.43359375,-0.42822265625,0.6875,-15.121951219512196,122.25609756097562,94.20731707317074
10_46_51_020,3.0,0.0,2.0,16.0,23.0,6.0,2.0,1.0,-0.06005859375,-0.486328125,0.7822265625,-11.158536585365855,55.1829268292683,69.45121951219512
10_46_51_020,-1.0,-5.0,14.0,-15.0,-25.0,-10.0,-1.0,-1.0,-0.04833984375,-0.474609375,0.7724609375,-9.390243902439025,56.768292682926834,70.1829268292683
10_46_51_020,-1.0,-2.0,-9.0,-5.0,-22.0,-6.0,-4.0,-5.0,-0.02392578125,-0.47119140625,0.77294921875,2.1341463414634148,63.59756097560976,72.6219512195122
10_46_51_020,-4.0,-2.0,-3.0,13.0,32.0,5.0,1.0,-4.0,0.03662109375,-0.5048828125,0.77099609375,2.682926829268293,69.14634146341464,73.29268292682927
10_46_51_020,-1.0,1.0,-1.0,-15.0,-27.0,-2.0,0.0,-1.0,0.07275390625,-0.509765625,0.77001953125,-7.560975609756098,70.0609756097561,77.31707317073172
10_46_51_020,2.0,-1.0,-3.0,21.0,39.0,7.0,2.0,2.0,0.14599609375,-0.5,0.7490234375,-17.98780487804878,71.95121951219512,81.15853658536587
10_46_51_020,0.0,-4.0,-5.0,-18.0,-7.0,-5.0,-2.0,2.0,0.169921875,-0.42578125,0.7255859375,-16.76829268292683,75.48780487804879,83.23170731707317
10_46_51_020,-2.0,2.0,7.0,14.0,-9.0,-4.0,-1.0,-3.0,0.18798828125,-0.41015625,0.73876953125,-1.0365853658536586,83.65853658536587,83.47560975609757
10_46_51_020,3.0,1.0,0.0,-2.0,-20.0,0.0,-2.0,1.0,0.23193359375,-0.4296875,0.74365234375,6.2804878048780495,94.51219512195122,81.76829268292684
10_46_51_020,0.0,-3.0,-11.0,7.0,47.0,5.0,1.0,-4.0,0.3583984375,-0.46337890625,0.71240234375,-5.7926829268292686,106.95121951219514,87.19512195121952
10_46_51_072,-5.0,-3.0,18.0,5.0,35.0,11.0,0.0,-1.0,-0.18408203125,-0.4931640625,0.78515625,-8.048780487804878,51.585365853658544,64.69512195121952
10_46_51_072,0.0,0.0,-18.0,-15.0,-12.0,-12.0,-3.0,-3.0,-0.1708984375,-0.46923828125,0.76953125,-14.451219512195124,50.36585365853659,67.43902439024392
10_46_51_072,0.0,0.0,-8.0,-2.0,-25.0,-8.0,-4.0,1.0,-0.14501953125,-0.48193359375,0.77197265625,-11.52439024390244,51.707317073170735,70.97560975609757
10_46_51_072,2.0,-4.0,7.0,32.0,11.0,-2.0,0.0,-4.0,-0.10498046875,-0.4697265625,0.79345703125,-8.292682926829269,54.75609756097561,71.58536585365854
10_46_51_072,0.0,5.0,4.0,-24.0,-1.0,22.0,4.0,-1.0,-0.06005859375,-0.486328125,0.7822265625,-11.158536585365855,55.1829268292683,69.45121951219512
10_46_51_072,2.0,-3.0,-1.0,-8.0,-15.0,-8.0,-1.0,-2.0,-0.04833984375,-0.474609375,0.7724609375,-9.390243902439025,56.768292682926834,70.1829268292683
10_46_51_072,0.0,0.0,-1.0,-3.0,-6.0,-16.0,1.0,2.0,-0.02392578125,-0.47119140625,0.77294921875,2.1341463414634148,63.59756097560976,72.6219512195122
10_46_51_072,-2.0,1.0,1.0,9.0,5.0,0.0,-2.0,-1.0,0.03662109375,-0.5048828125,0.77099609375,2.682926829268293,69.14634146341464,73.29268292682927
10_46_51_072,-3.0,0.0,-1.0,-21.0,2.0,33.0,-1.0,1.0,0.07275390625,-0.509765625,0.77001953125,-7.560975609756098,70.0609756097561,77.31707317073172
10_46_51_072,3.0,4.0,0.0,-6.0,1.0,-3.0,-1.0,0.0,0.14599609375,-0.5,0.7490234375,-17.98780487804878,71.95121951219512,81.15853658536587
10_46_51_128,-2.0,-3.0,5.0,13.0,10.0,4.0,1.0,0.0,-0.24072265625,-0.49169921875,0.7890625,-2.987804878048781,51.524390243902445,60.85365853658537
10_46_51_128,-1.0,-4.0,-15.0,-21.0,8.0,2.0,-2.0,-6.0,-0.18408203125,-0.4931640625,0.78515625,-8.048780487804878,51.585365853658544,64.69512195121952
10_46_51_128,1.0,1.0,-6.0,8.0,-18.0,-8.0,-3.0,-5.0,-0.1708984375,-0.46923828125,0.76953125,-14.451219512195124,50.36585365853659,67.43902439024392
10_46_51_128,-1.0,-6.0,-5.0,-13.0,-13.0,-5.0,-2.0,0.0,-0.14501953125,-0.48193359375,0.77197265625,-11.52439024390244,51.707317073170735,70.97560975609757
10_46_51_128,2.0,-5.0,-7.0,-17.0,-6.0,0.0,-1.0,1.0,-0.10498046875,-0.4697265625,0.79345703125,-8.292682926829269,54.75609756097561,71.58536585365854
10_46_51_128,-2.0,4.0,0.0,44.0,21.0,3.0,0.0,-2.0,-0.06005859375,-0.486328125,0.7822265625,-11.158536585365855,55.1829268292683,69.45121951219512
10_46_51_128,2.0,-1.0,5.0,-20.0,-18.0,-8.0,-3.0,-3.0,-0.04833984375,-0.474609375,0.7724609375,-9.390243902439025,56.768292682926834,70.1829268292683
10_46_51_128,4.0,5.0,-2.0,16.0,9.0,-1.0,1.0,1.0,-0.02392578125,-0.47119140625,0.77294921875,2.1341463414634148,63.59756097560976,72.6219512195122
10_46_51_128,-5.0,-3.0,18.0,5.0,35.0,11.0,0.0,-1.0,0.03662109375,-0.5048828125,0.77099609375,2.682926829268293,69.14634146341464,73.29268292682927
10_46_51_128,0.0,0.0,-18.0,-15.0,-12.0,-12.0,-3.0,-3.0,0.07275390625,-0.509765625,0.77001953125,-7.560975609756098,70.0609756097561,77.31707317073172
10_46_51_182,2.0,-8.0,-7.0,-6.0,-6.0,-5.0,-4.0,-1.0,-0.40380859375,-0.40576171875,0.73291015625,-14.329268292682928,44.268292682926834,55.91463414634147
10_46_51_182,-2.0,4.0,9.0,-1.0,2.0,1.0,-5.0,-5.0,-0.32177734375,-0.4091796875,0.72998046875,-6.341463414634147,50.670731707317074,60.243902439024396
10_46_51_182,-2.0,-4.0,-3.0,5.0,7.0,6.0,1.0,-1.0,-0.267578125,-0.43115234375,0.748046875,-1.9512195121951221,50.73170731707317,59.63414634146342
10_46_51_182,0.0,4.0,-1.0,-5.0,1.0,-1.0,0.0,-3.0,-0.24072265625,-0.49169921875,0.7890625,-2.987804878048781,51.524390243902445,60.85365853658537
10_46_51_182,-1.0,-3.0,-10.0,5.0,-7.0,0.0,-1.0,-1.0,-0.18408203125,-0.4931640625,0.78515625,-8.048780487804878,51.585365853658544,64.69512195121952
10_46_51_182,1.0,2.0,9.0,6.0,-7.0,-4.0,-3.0,0.0,-0.1708984375,-0.46923828125,0.76953125,-14.451219512195124,50.36585365853659,67.43902439024392
10_46_51_182,-3.0,-5.0,-6.0,-8.0,-5.0,-1.0,-3.0,0.0,-0.14501953125,-0.48193359375,0.77197265625,-11.52439024390244,51.707317073170735,70.97560975609757
10_46_51_182,3.0,6.0,1.0,10.0,-6.0,0.0,-1.0,4.0,-0.10498046875,-0.4697265625,0.79345703125,-8.292682926829269,54.75609756097561,71.58536585365854
10_46_51_182,-2.0,-3.0,5.0,13.0,10.0,4.0,1.0,0.0,-0.06005859375,-0.486328125,0.7822265625,-11.158536585365855,55.1829268292683,69.45121951219512
10_46_51_182,-1.0,-4.0,-15.0,-21.0,8.0,2.0,-2.0,-6.0,-0.04833984375,-0.474609375,0.7724609375,-9.390243902439025,56.768292682926834,70.1829268292683
10_46_51_233,1.0,-5.0,-7.0,-8.0,-2.0,-2.0,-1.0,1.0,-0.421875,-0.42333984375,0.72802734375,15.243902439024392,35.0609756097561,25.731707317073173
10_46_51_233,2.0,0.0,11.0,15.0,4.0,1.0,0.0,1.0,-0.39892578125,-0.4599609375,0.72509765625,-0.1829268292682927,38.47560975609756,31.158536585365855
10_46_51_233,5.0,0.0,1.0,-1.0,1.0,4.0,0.0,0.0,-0.3974609375,-0.43408203125,0.7373046875,-14.207317073170733,38.04878048780488,44.451219512195124
10_46_51_233,-2.0,-2.0,-3.0,-11.0,-2.0,-3.0,0.0,0.0,-0.40380859375,-0.40576171875,0.73291015625,-14.329268292682928,44.268292682926834,55.91463414634147
10_46_51_233,-1.0,-1.0,4.0,-2.0,0.0,2.0,1.0,-2.0,-0.32177734375,-0.4091796875,0.72998046875,-6.341463414634147,50.670731707317074,60.243902439024396
10_46_51_233,0.0,-3.0,-11.0,-6.0,-4.0,-3.0,-3.0,-2.0,-0.267578125,-0.43115234375,0.748046875,-1.9512195121951221,50.73170731707317,59.63414634146342
10_46_51_233,2.0,0.0,-13.0,-10.0,-1.0,-2.0,-3.0,-2.0,-0.24072265625,-0.49169921875,0.7890625,-2.987804878048781,51.524390243902445,60.85365853658537
10_46_51_233,2.0,0.0,7.0,5.0,-2.0,-3.0,-1.0,0.0,-0.18408203125,-0.4931640625,0.78515625,-8.048780487804878,51.585365853658544,64.69512195121952
10_46_51_233,-4.0,-7.0,2.0,-9.0,-3.0,0.0,0.0,1.0,-0.1708984375,-0.46923828125,0.76953125,-14.451219512195124,50.36585365853659,67.43902439024392
10_46_51_233,-1.0,2.0,1.0,1.0,9.0,2.0,-1.0,-1.0,-0.14501953125,-0.48193359375,0.77197265625,-11.52439024390244,51.707317073170735,70.97560975609757
10_46_51_282,1.0,-2.0,-5.0,-1.0,4.0,-3.0,2.0,0.0,-0.458984375,-0.3408203125,0.69873046875,4.329268292682928,22.195121951219512,17.621951219512198
10_46_51_282,-1.0,-4.0,-4.0,-10.0,8.0,0.0,1.0,-2.0,-0.4326171875,-0.36181640625,0.7021484375,12.926829268292684,28.04878048780488,22.012195121951223
10_46_51_282,-2.0,0.0,8.0,8.0,-1.0,-4.0,-1.0,-3.0,-0.421875,-0.42333984375,0.72802734375,15.243902439024392,35.0609756097561,25.731707317073173
10_46_51_282,-2.0,2.0,-2.0,-5.0,-10.0,-6.0,-2.0,-1.0,-0.39892578125,-0.4599609375,0.72509765625,-0.1829268292682927,38.47560975609756,31.158536585365855
10_46_51_282,0.0,-6.0,-6.0,0.0,-10.0,-1.0,-1.0,-1.0,-0.3974609375,-0.43408203125,0.7373046875,-14.207317073170733,38.04878048780488,44.451219512195124
10_46_51_282,0.0,-2.0,0.0,4.0,16.0,-3.0,0.0,3.0,-0.40380859375,-0.40576171875,0.73291015625,-14.329268292682928,44.268292682926834,55.91463414634147
10_46_51_282,-7.0,-1.0,-6.0,-4.0,-11.0,-1.0,-1.0,-4.0,-0.32177734375,-0.4091796875,0.72998046875,-6.341463414634147,50.670731707317074,60.243902439024396
10_46_51_282,1.0,1.0,0.0,-2.0,3.0,1.0,1.0,-1.0,-0.267578125,-0.43115234375,0.748046875,-1.9512195121951221,50.73170731707317,59.63414634146342
10_46_51_282,1.0,-5.0,-7.0,-8.0,-2.0,-2.0,-1.0,1.0,-0.24072265625,-0.49169921875,0.7890625,-2.987804878048781,51.524390243902445,60.85365853658537
10_46_51_282,2.0,0.0,11.0,15.0,4.0,1.0,0.0,1.0,-0.18408203125,-0.4931640625,0.78515625,-8.048780487804878,51.585365853658544,64.69512195121952
10_46_51_329,-1.0,-3.0,2.0,-8.0,-3.0,1.0,-3.0,-1.0,-0.46484375,-0.4189453125,0.72705078125,7.682926829268293,-2.1951219512195124,-10.731707317073171
10_46_51_329,-2.0,-1.0,-10.0,-5.0,-7.0,-1.0,-1.0,-2.0,-0.4755859375,-0.41357421875,0.70947265625,-5.365853658536586,2.439024390243903,3.4756097560975614
10_46_51_329,0.0,-4.0,2.0,-5.0,-2.0,1.0,-2.0,-2.0,-0.47802734375,-0.3583984375,0.69287109375,-2.987804878048781,12.621951219512196,12.987804878048781
10_46_51_329,-1.0,0.0,3.0,-4.0,0.0,-1.0,-1.0,2.0,-0.458984375,-0.3408203125,0.69873046875,4.329268292682928,22.195121951219512,17.621951219512198
10_46_51_329,-5.0,-1.0,-2.0,0.0,-1.0,-2.0,1.0,-1.0,-0.4326171875,-0.36181640625,0.7021484375,12.926829268292684,28.04878048780488,22.012195121951223
10_46_51_329,-1.0,2.0,-2.0,4.0,-1.0,-1.0,-3.0,-2.0,-0.421875,-0.42333984375,0.72802734375,15.243902439024392,35.0609756097561,25.731707317073173
10_46_51_329,0.0,-4.0,-1.0,-2.0,-2.0,0.0,0.0,2.0,-0.39892578125,-0.4599609375,0.72509765625,-0.1829268292682927,38.47560975609756,31.158536585365855
10_46_51_329,-1.0,-4.0,0.0,-2.0,-6.0,-2.0,0.0,1.0,-0.3974609375,-0.43408203125,0.7373046875,-14.207317073170733,38.04878048780488,44.451219512195124
10_46_51_329,0.0,1.0,-1.0,5.0,-5.0,-2.0,-1.0,-4.0,-0.40380859375,-0.40576171875,0.73291015625,-14.329268292682928,44.268292682926834,55.91463414634147
10_46_51_329,-4.0,-2.0,-1.0,-6.0,-4.0,-1.0,0.0,1.0,-0.32177734375,-0.4091796875,0.72998046875,-6.341463414634147,50.670731707317074,60.243902439024396
10_46_51_374,0.0,5.0,-5.0,-5.0,-1.0,-2.0,-1.0,0.0,-0.4609375,-0.3671875,0.71533203125,15.365853658536587,-7.134146341463415,-22.134146341463417
10_46_51_374,1.0,-1.0,2.0,-5.0,-2.0,-1.0,-3.0,-2.0,-0.46484375,-0.4189453125,0.72705078125,7.682926829268293,-2.1951219512195124,-10.731707317073171
10_46_51_374,0.0,-2.0,-2.0,0.0,0.0,-1.0,-5.0,-1.0,-0.4755859375,-0.41357421875,0.70947265625,-5.365853658536586,2.439024390243903,3.4756097560975614
10_46_51_374,-1.0,-1.0,1.0,18.0,0.0,1.0,-2.0,1.0,-0.47802734375,-0.3583984375,0.69287109375,-2.987804878048781,12.621951219512196,12.987804878048781
10_46_51_374,-2.0,-1.0,-5.0,-8.0,-1.0,2.0,-2.0,-3.0,-0.458984375,-0.3408203125,0.69873046875,4.329268292682928,22.195121951219512,17.621951219512198
10_46_51_374,2.0,-2.0,-2.0,1.0,0.0,-1.0,1.0,-4.0,-0.4326171875,-0.36181640625,0.7021484375,12.926829268292684,28.04878048780488,22.012195121951223
10_46_51_374,-1.0,4.0,-4.0,-2.0,-1.0,0.0,1.0,-1.0,-0.421875,-0.42333984375,0.72802734375,15.243902439024392,35.0609756097561,25.731707317073173
10_46_51_374,1.0,-7.0,-3.0,-4.0,0.0,0.0,1.0,-2.0,-0.39892578125,-0.4599609375,0.72509765625,-0.1829268292682927,38.47560975609756,31.158536585365855
10_46_51_374,-1.0,-1.0,2.0,5.0,0.0,-1.0,-2.0,-1.0,-0.3974609375,-0.43408203125,0.7373046875,-14.207317073170733,38.04878048780488,44.451219512195124
10_46_51_439,-1.0,-2.0,-2.0,1.0,0.0,1.0,-1.0,-1.0,-0.44775390625,-0.3447265625,0.70361328125,8.353658536585366,-15.365853658536587,-27.073170731707318
10_46_51_439,-1.0,-6.0,-3.0,1.0,-3.0,0.0,-1.0,1.0,-0.4609375,-0.3671875,0.71533203125,15.365853658536587,-7.134146341463415,-22.134146341463417
10_46_51_439,-3.0,0.0,-3.0,-1.0,-5.0,1.0,0.0,-3.0,-0.46484375,-0.4189453125,0.72705078125,7.682926829268293,-2.1951219512195124,-10.731707317073171
10_46_51_439,0.0,5.0,-5.0,-5.0,-1.0,-2.0,-1.0,0.0,-0.4755859375,-0.41357421875,0.70947265625,-5.365853658536586,2.439024390243903,3.4756097560975614
10_46_51_439,1.0,-1.0,2.0,-5.0,-2.0,-1.0,-3.0,-2.0,-0.47802734375,-0.3583984375,0.69287109375,-2.987804878048781,12.621951219512196,12.987804878048781
10_46_51_439,0.0,-2.0,-2.0,0.0,0.0,-1.0,-5.0,-1.0,-0.458984375,-0.3408203125,0.69873046875,4.329268292682928,22.195121951219512,17.621951219512198
10_46_51_439,-1.0,-1.0,1.0,18.0,0.0,1.0,-2.0,1.0,-0.4326171875,-0.36181640625,0.7021484375,12.926829268292684,28.04878048780488,22.012195121951223
10_46_51_439,-2.0,-1.0,-5.0,-8.0,-1.0,2.0,-2.0,-3.0,-0.421875,-0.42333984375,0.72802734375,15.243902439024392,35.0609756097561,25.731707317073173
10_46_51_483,-4.0,8.0,2.0,2.0,9.0,1.0,1.0,0.0,-0.32568359375,-0.41796875,0.72265625,1.6463414634146343,-53.78048780487806,-59.207317073170735
10_46_51_483,1.0,-5.0,-5.0,0.0,3.0,0.0,1.0,1.0,-0.35009765625,-0.41015625,0.724609375,2.3170731707317076,-47.19512195121952,-54.75609756097561
10_46_51_483,2.0,-3.0,1.0,1.0,-4.0,-3.0,-1.0,-1.0,-0.39453125,-0.400390625,0.728515625,-0.853658536585366,-41.646341463414636,-46.707317073170735
10_46_51_483,-2.0,2.0,1.0,-4.0,-1.0,-3.0,-2.0,-4.0,-0.42138671875,-0.3857421875,0.708984375,-3.536585365853659,-34.75609756097561,-37.926829268292686
10_46_51_483,-5.0,-5.0,-5.0,0.0,-1.0,-17.0,0.0,-1.0,-0.447265625,-0.3583984375,0.701171875,-1.3414634146341464,-25.914634146341466,-29.573170731707318
10_46_51_483,-1.0,4.0,0.0,-2.0,-1.0,-4.0,-3.0,-2.0,-0.44775390625,-0.3447265625,0.70361328125,8.353658536585366,-15.365853658536587,-27.073170731707318
10_46_51_483,-1.0,-2.0,-1.0,4.0,2.0,-1.0,-1.0,-3.0,-0.4609375,-0.3671875,0.71533203125,15.365853658536587,-7.134146341463415,-22.134146341463417
10_46_51_483,-2.0,-1.0,0.0,1.0,-1.0,-6.0,0.0,-1.0,-0.46484375,-0.4189453125,0.72705078125,7.682926829268293,-2.1951219512195124,-10.731707317073171
10_46_51_483,1.0,0.0,2.0,-6.0,-6.0,-2.0,-4.0,-2.0,-0.4755859375,-0.41357421875,0.70947265625,-5.365853658536586,2.439024390243903,3.4756097560975614
10_46_51_483,-1.0,-3.0,-4.0,2.0,-3.0,-13.0,-5.0,-1.0,-0.47802734375,-0.3583984375,0.69287109375,-2.987804878048781,12.621951219512196,12.987804878048781
10_46_52_796,-3.0,0.0,-2.0,-4.0,-1.0,-10.0,-11.0,0.0,-0.20703125,-0.4873046875,0.77685546875,20.914634146341466,-68.47560975609757,-71.15853658536587
10_46_52_796,-3.0,0.0,0.0,-7.0,1.0,28.0,-2.0,1.0,-0.29638671875,-0.47705078125,0.78466796875,12.560975609756099,-63.65853658536586,-69.20731707317074
10_46_52_796,1.0,-2.0,0.0,1.0,3.0,-11.0,4.0,-1.0,-0.2939453125,-0.458984375,0.76806640625,0.24390243902439027,-60.1219512195122,-61.768292682926834
10_46_52_796,0.0,1.0,0.0,-3.0,0.0,-6.0,-2.0,-2.0,-0.32568359375,-0.41796875,0.72265625,1.6463414634146343,-53.78048780487806,-59.207317073170735
10_46_52_796,-2.0,-4.0,-3.0,-3.0,-2.0,-3.0,-1.0,1.0,-0.35009765625,-0.41015625,0.724609375,2.3170731707317076,-47.19512195121952,-54.75609756097561
10_46_52_796,0.0,-2.0,-7.0,-3.0,-2.0,1.0,-1.0,0.0,-0.39453125,-0.400390625,0.728515625,-0.853658536585366,-41.646341463414636,-46.707317073170735
10_46_52_796,0.0,1.0,6.0,0.0,-1.0,-1.0,-2.0,0.0,-0.42138671875,-0.3857421875,0.708984375,-3.536585365853659,-34.75609756097561,-37.926829268292686
10_46_52_796,-2.0,-7.0,-6.0,0.0,-6.0,-2.0,-2.0,0.0,-0.447265625,-0.3583984375,0.701171875,-1.3414634146341464,-25.914634146341466,-29.573170731707318
10_46_52_796,-4.0,8.0,2.0,2.0,9.0,1.0,1.0,0.0,-0.44775390625,-0.3447265625,0.70361328125,8.353658536585366,-15.365853658536587,-27.073170731707318
10_46_52_796,1.0,-5.0,-5.0,0.0,3.0,0.0,1.0,1.0,-0.4609375,-0.3671875,0.71533203125,15.365853658536587,-7.134146341463415,-22.134146341463417
10_46_52_836,-1.0,-1.0,-1.0,-3.0,-3.0,-2.0,-4.0,-1.0,0.98681640625,-0.0029296875,0.23828125,-8.414634146341465,2.987804878048781,2.1341463414634148
10_46_52_836,-1.0,-1.0,-2.0,-2.0,-1.0,-3.0,0.0,-1.0,0.9814453125,-0.0009765625,0.2353515625,-12.134146341463415,2.1341463414634148,2.9268292682926833
10_46_52_836,-1.0,2.0,-1.0,-2.0,-1.0,0.0,-1.0,-2.0,0.96875,0.02197265625,0.228515625,-14.207317073170733,0.9146341463414634,3.231707317073171
10_46_52_836,-2.0,0.0,-3.0,-3.0,0.0,-1.0,1.0,-1.0,0.9580078125,0.0341796875,0.23193359375,-12.439024390243903,-0.48780487804878053,3.2926829268292686
10_46_52_836,-1.0,-1.0,-1.0,2.0,-3.0,-5.0,-3.0,0.0,0.962890625,0.0263671875,0.23388671875,-8.719512195121952,-2.9268292682926833,3.1707317073170733
10_46_52_836,-1.0,-3.0,2.0,0.0,-1.0,-1.0,-3.0,1.0,0.96826171875,0.00927734375,0.23828125,-7.560975609756098,-5.731707317073171,3.048780487804878
10_46_52_836,0.0,-1.0,-2.0,-1.0,0.0,-4.0,1.0,2.0,0.9521484375,-0.01611328125,0.25048828125,-14.329268292682928,-9.573170731707318,3.7195121951219514
10_46_52_836,0.0,-1.0,2.0,0.0,0.0,-2.0,0.0,-1.0,0.9619140625,0.03076171875,0.2451171875,-1.9512195121951221,-13.841463414634148,2.25609756097561
10_46_52_836,-1.0,0.0,-3.0,-1.0,-3.0,-2.0,-4.0,0.0,0.97021484375,0.02197265625,0.2529296875,4.75609756097561,-16.70731707317073,2.0121951219512195
10_46_52_836,0.0,1.0,-1.0,-2.0,1.0,0.0,1.0,0.0,0.974609375,0.01806640625,0.265625,10.792682926829269,-19.573170731707318,-0.7926829268292683
10_46_52_876,1.0,-1.0,-3.0,-2.0,-1.0,-2.0,-1.0,-1.0,0.98095703125,-0.0009765625,0.24462890625,-6.097560975609756,3.414634146341464,1.5853658536585367
10_46_52_876,0.0,1.0,0.0,0.0,-1.0,-2.0,1.0,0.0,0.98681640625,-0.0029296875,0.23828125,-8.414634146341465,2.987804878048781,2.1341463414634148
10_46_52_876,1.0,1.0,3.0,0.0,-1.0,-1.0,1.0,0.0,0.9814453125,-0.0009765625,0.2353515625,-12.134146341463415,2.1341463414634148,2.9268292682926833
10_46_52_876,-3.0,-2.0,-3.0,-4.0,-3.0,-3.0,-1.0,0.0,0.96875,0.02197265625,0.228515625,-14.207317073170733,0.9146341463414634,3.231707317073171
10_46_52_876,2.0,-3.0,-1.0,-1.0,-1.0,-3.0,2.0,-3.0,0.9580078125,0.0341796875,0.23193359375,-12.439024390243903,-0.48780487804878053,3.2926829268292686
10_46_52_876,-4.0,1.0,4.0,1.0,-3.0,0.0,1.0,-2.0,0.962890625,0.0263671875,0.23388671875,-8.719512195121952,-2.9268292682926833,3.1707317073170733
10_46_52_876,-1.0,-1.0,-1.0,-3.0,-3.0,-2.0,-4.0,-1.0,0.96826171875,0.00927734375,0.23828125,-7.560975609756098,-5.731707317073171,3.048780487804878
10_46_52_876,-1.0,-1.0,-2.0,-2.0,-1.0,-3.0,0.0,-1.0,0.9521484375,-0.01611328125,0.25048828125,-14.329268292682928,-9.573170731707318,3.7195121951219514
10_46_52_876,-1.0,2.0,-1.0,-2.0,-1.0,0.0,-1.0,-2.0,0.9619140625,0.03076171875,0.2451171875,-1.9512195121951221,-13.841463414634148,2.25609756097561
10_46_52_876,-2.0,0.0,-3.0,-3.0,0.0,-1.0,1.0,-1.0,0.97021484375,0.02197265625,0.2529296875,4.75609756097561,-16.70731707317073,2.0121951219512195
10_46_52_948,-1.0,-2.0,-1.0,0.0,-3.0,0.0,0.0,0.0,0.96875,-0.00048828125,0.24609375,-5.426829268292684,3.1097560975609757,1.5853658536585367
10_46_52_948,1.0,-1.0,-2.0,-2.0,1.0,0.0,-3.0,2.0,0.98095703125,-0.0009765625,0.24462890625,-6.097560975609756,3.414634146341464,1.5853658536585367
10_46_52_948,1.0,-1.0,-3.0,-2.0,-1.0,-2.0,-1.0,-1.0,0.98681640625,-0.0029296875,0.23828125,-8.414634146341465,2.987804878048781,2.1341463414634148
10_46_52_948,0.0,1.0,0.0,0.0,-1.0,-2.0,1.0,0.0,0.9814453125,-0.0009765625,0.2353515625,-12.134146341463415,2.1341463414634148,2.9268292682926833
10_46_52_948,1.0,1.0,3.0,0.0,-1.0,-1.0,1.0,0.0,0.96875,0.02197265625,0.228515625,-14.207317073170733,0.9146341463414634,3.231707317073171
10_46_52_948,-3.0,-2.0,-3.0,-4.0,-3.0,-3.0,-1.0,0.0,0.9580078125,0.0341796875,0.23193359375,-12.439024390243903,-0.48780487804878053,3.2926829268292686
10_46_52_948,2.0,-3.0,-1.0,-1.0,-1.0,-3.0,2.0,-3.0,0.962890625,0.0263671875,0.23388671875,-8.719512195121952,-2.9268292682926833,3.1707317073170733
10_46_52_948,-4.0,1.0,4.0,1.0,-3.0,0.0,1.0,-2.0,0.96826171875,0.00927734375,0.23828125,-7.560975609756098,-5.731707317073171,3.048780487804878
10_46_52_948,-1.0,-1.0,-1.0,-3.0,-3.0,-2.0,-4.0,-1.0,0.9521484375,-0.01611328125,0.25048828125,-14.329268292682928,-9.573170731707318,3.7195121951219514
10_46_52_948,-1.0,-1.0,-2.0,-2.0,-1.0,-3.0,0.0,-1.0,0.9619140625,0.03076171875,0.2451171875,-1.9512195121951221,-13.841463414634148,2.25609756097561
10_46_52_990,0.0,4.0,-5.0,-4.0,-1.0,-1.0,0.0,-1.0,0.95849609375,-0.0048828125,0.23095703125,-5.7926829268292686,2.1341463414634148,0.7926829268292683
10_46_52_990,0.0,0.0,1.0,2.0,-3.0,-1.0,0.0,-3.0,0.96484375,-0.0087890625,0.23583984375,-5.182926829268293,2.25609756097561,1.0975609756097562
10_46_52_990,-4.0,0.0,-2.0,-3.0,0.0,-3.0,-2.0,0.0,0.96875,-0.00048828125,0.24609375,-5.426829268292684,3.1097560975609757,1.5853658536585367
10_46_52_990,-1.0,-1.0,2.0,-1.0,-2.0,-1.0,2.0,-1.0,0.98095703125,-0.0009765625,0.24462890625,-6.097560975609756,3.414634146341464,1.5853658536585367
10_46_52_990,-5.0,-2.0,-1.0,0.0,2.0,0.0,2.0,1.0,0.98681640625,-0.0029296875,0.23828125,-8.414634146341465,2.987804878048781,2.1341463414634148
10_46_52_990,1.0,-3.0,-1.0,-2.0,-2.0,-5.0,-3.0,1.0,0.9814453125,-0.0009765625,0.2353515625,-12.134146341463415,2.1341463414634148,2.9268292682926833
10_46_52_990,0.0,0.0,-2.0,1.0,0.0,1.0,1.0,1.0,0.96875,0.02197265625,0.228515625,-14.207317073170733,0.9146341463414634,3.231707317073171
10_46_52_990,0.0,0.0,1.0,0.0,-3.0,-2.0,2.0,0.0,0.9580078125,0.0341796875,0.23193359375,-12.439024390243903,-0.48780487804878053,3.2926829268292686
10_46_52_990,-3.0,0.0,0.0,-1.0,-2.0,-1.0,1.0,-2.0,0.962890625,0.0263671875,0.23388671875,-8.719512195121952,-2.9268292682926833,3.1707317073170733
10_46_53_056,0.0,1.0,-1.0,-1.0,-3.0,-1.0,1.0,-2.0,0.9462890625,0.00048828125,0.19921875,-5.548780487804878,4.2682926829268295,1.8902439024390245
10_46_53_056,-2.0,-1.0,0.0,1.0,0.0,-1.0,1.0,1.0,0.95849609375,-0.0048828125,0.23095703125,-5.7926829268292686,2.1341463414634148,0.7926829268292683
10_46_53_056,0.0,4.0,-5.0,-4.0,-1.0,-1.0,0.0,-1.0,0.96484375,-0.0087890625,0.23583984375,-5.182926829268293,2.25609756097561,1.0975609756097562
10_46_53_056,0.0,0.0,1.0,2.0,-3.0,-1.0,0.0,-3.0,0.96875,-0.00048828125,0.24609375,-5.426829268292684,3.1097560975609757,1.5853658536585367
10_46_53_056,-4.0,0.0,-2.0,-3.0,0.0,-3.0,-2.0,0.0,0.98095703125,-0.0009765625,0.24462890625,-6.097560975609756,3.414634146341464,1.5853658536585367
10_46_53_056,-1.0,-1.0,2.0,-1.0,-2.0,-1.0,2.0,-1.0,0.98681640625,-0.0029296875,0.23828125,-8.414634146341465,2.987804878048781,2.1341463414634148
10_46_53_056,-5.0,-2.0,-1.0,0.0,2.0,0.0,2.0,1.0,0.9814453125,-0.0009765625,0.2353515625,-12.134146341463415,2.1341463414634148,2.9268292682926833
10_46_53_056,1.0,-3.0,-1.0,-2.0,-2.0,-5.0,-3.0,1.0,0.96875,0.02197265625,0.228515625,-14.207317073170733,0.9146341463414634,3.231707317073171
10_46_53_056,0.0,0.0,-2.0,1.0,0.0,1.0,1.0,1.0,0.9580078125,0.0341796875,0.23193359375,-12.439024390243903,-0.48780487804878053,3.2926829268292686
10_46_53_103,-1.0,2.0,-1.0,0.0,1.0,0.0,0.0,-1.0,0.95263671875,-0.00439453125,0.1953125,-2.7439024390243905,5.121951219512195,1.9512195121951221
10_46_53_103,2.0,-1.0,0.0,2.0,-2.0,1.0,1.0,-2.0,0.9462890625,0.00048828125,0.19921875,-5.548780487804878,4.2682926829268295,1.8902439024390245
10_46_53_103,-3.0,-1.0,0.0,-2.0,-2.0,0.0,-4.0,2.0,0.95849609375,-0.0048828125,0.23095703125,-5.7926829268292686,2.1341463414634148,0.7926829268292683
10_46_53_103,1.0,0.0,2.0,1.0,-3.0,-2.0,-3.0,-3.0,0.96484375,-0.0087890625,0.23583984375,-5.182926829268293,2.25609756097561,1.0975609756097562
10_46_53_103,0.0,-3.0,6.0,-1.0,-1.0,0.0,0.0,3.0,0.96875,-0.00048828125,0.24609375,-5.426829268292684,3.1097560975609757,1.5853658536585367
10_46_53_103,-3.0,-2.0,-1.0,-3.0,-3.0,-3.0,-3.0,-1.0,0.98095703125,-0.0009765625,0.24462890625,-6.097560975609756,3.414634146341464,1.5853658536585367
10_46_53_103,-4.0,0.0,-5.0,-1.0,-1.0,-2.0,-2.0,0.0,0.98681640625,-0.0029296875,0.23828125,-8.414634146341465,2.987804878048781,2.1341463414634148
10_46_53_103,0.0,1.0,-1.0,-1.0,-3.0,-1.0,1.0,-2.0,0.9814453125,-0.0009765625,0.2353515625,-12.134146341463415,2.1341463414634148,2.9268292682926833
10_46_53_157,-2.0,0.0,-2.0,-1.0,0.0,-1.0,2.0,2.0,0.97509765625,-0.00537109375,0.1943359375,-4.451219512195122,6.463414634146342,4.51219512195122
10_46_53_157,1.0,0.0,-2.0,-1.0,-1.0,-1.0,-1.0,-3.0,0.97021484375,-0.00146484375,0.197265625,-0.5487804878048781,6.219512195121951,2.9268292682926833
10_46_53_157,-1.0,0.0,-3.0,-6.0,-2.0,1.0,-5.0,-1.0,0.96240234375,-0.00537109375,0.19384765625,-0.853658536585366,5.731707317073171,2.439024390243903
10_46_53_157,-2.0,-1.0,4.0,2.0,-1.0,-1.0,2.0,1.0,0.95263671875,-0.00439453125,0.1953125,-2.7439024390243905,5.121951219512195,1.9512195121951221
10_46_53_157,1.0,-1.0,1.0,2.0,-4.0,-2.0,-3.0,-1.0,0.9462890625,0.00048828125,0.19921875,-5.548780487804878,4.2682926829268295,1.8902439024390245
10_46_53_157,-3.0,0.0,-3.0,-4.0,0.0,-1.0,0.0,0.0,0.95849609375,-0.0048828125,0.23095703125,-5.7926829268292686,2.1341463414634148,0.7926829268292683
10_46_53_157,0.0,-1.0,-2.0,-3.0,-1.0,-1.0,-3.0,-2.0,0.96484375,-0.0087890625,0.23583984375,-5.182926829268293,2.25609756097561,1.0975609756097562
10_46_53_157,-1.0,0.0,1.0,-3.0,-1.0,0.0,-2.0,0.0,0.96875,-0.00048828125,0.24609375,-5.426829268292684,3.1097560975609757,1.5853658536585367
10_46_53_157,-1.0,-2.0,-1.0,0.0,0.0,-3.0,-2.0,-1.0,0.98095703125,-0.0009765625,0.24462890625,-6.097560975609756,3.414634146341464,1.5853658536585367
10_46_53_218,0.0,-2.0,0.0,0.0,-2.0,-3.0,-3.0,-1.0,0.97509765625,-0.00537109375,0.1943359375,-4.451219512195122,6.463414634146342,4.51219512195122
10_46_53_218,-1.0,-3.0,2.0,-1.0,-1.0,3.0,1.0,-1.0,0.97021484375,-0.00146484375,0.197265625,-0.5487804878048781,6.219512195121951,2.9268292682926833
10_46_53_218,1.0,1.0,-1.0,2.0,0.0,-1.0,1.0,-3.0,0.96240234375,-0.00537109375,0.19384765625,-0.853658536585366,5.731707317073171,2.439024390243903
10_46_53_218,-1.0,-1.0,4.0,2.0,1.0,0.0,-2.0,-1.0,0.95263671875,-0.00439453125,0.1953125,-2.7439024390243905,5.121951219512195,1.9512195121951221
10_46_53_218,0.0,-1.0,1.0,0.0,1.0,2.0,0.0,-2.0,0.9462890625,0.00048828125,0.19921875,-5.548780487804878,4.2682926829268295,1.8902439024390245
10_46_53_218,-1.0,-1.0,0.0,-1.0,-4.0,0.0,-1.0,0.0,0.95849609375,-0.0048828125,0.23095703125,-5.7926829268292686,2.1341463414634148,0.7926829268292683
10_46_53_218,-2.0,0.0,-2.0,-1.0,0.0,-1.0,2.0,2.0,0.96484375,-0.0087890625,0.23583984375,-5.182926829268293,2.25609756097561,1.0975609756097562
10_46_53_258,-1.0,-2.0,-1.0,1.0,-2.0,-1.0,-4.0,-1.0,0.9404296875,-0.0087890625,0.20751953125,1.2195121951219514,-0.7317073170731708,3.353658536585366
10_46_53_258,-2.0,0.0,-1.0,-2.0,-1.0,-3.0,-3.0,-2.0,0.943359375,-0.01904296875,0.21533203125,1.524390243902439,0.426829268292683,3.658536585365854
10_46_53_258,1.0,1.0,-1.0,-3.0,-2.0,-2.0,-3.0,-1.0,0.9638671875,-0.0224609375,0.20556640625,1.5853658536585367,3.8414634146341466,4.451219512195122
10_46_53_258,0.0,0.0,-3.0,0.0,1.0,-4.0,0.0,-2.0,0.96435546875,-0.021484375,0.20068359375,-0.12195121951219513,5.060975609756098,4.51219512195122
10_46_53_258,0.0,0.0,1.0,3.0,1.0,0.0,0.0,-2.0,0.97509765625,-0.00537109375,0.1943359375,-4.451219512195122,6.463414634146342,4.51219512195122
10_46_53_258,0.0,-1.0,1.0,-2.0,-1.0,-1.0,-1.0,-1.0,0.97021484375,-0.00146484375,0.197265625,-0.5487804878048781,6.219512195121951,2.9268292682926833
10_46_53_258,-2.0,-2.0,-1.0,-5.0,2.0,1.0,2.0,0.0,0.96240234375,-0.00537109375,0.19384765625,-0.853658536585366,5.731707317073171,2.439024390243903
10_46_53_258,-1.0,-2.0,-1.0,-1.0,-2.0,-2.0,0.0,-2.0,0.95263671875,-0.00439453125,0.1953125,-2.7439024390243905,5.121951219512195,1.9512195121951221
10_46_53_258,0.0,-1.0,-1.0,-4.0,-2.0,-1.0,0.0,0.0,0.9462890625,0.00048828125,0.19921875,-5.548780487804878,4.2682926829268295,1.8902439024390245
10_46_53_313,2.0,-2.0,-1.0,-6.0,0.0,0.0,1.0,1.0,0.9443359375,-0.009765625,0.2041015625,0.853658536585366,-1.7682926829268295,3.1097560975609757
10_46_53_313,2.0,-1.0,1.0,0.0,-3.0,-2.0,-1.0,1.0,0.9404296875,-0.0087890625,0.20751953125,1.2195121951219514,-0.7317073170731708,3.353658536585366
10_46_53_313,-1.0,0.0,2.0,-3.0,-1.0,2.0,-1.0,-1.0,0.943359375,-0.01904296875,0.21533203125,1.524390243902439,0.426829268292683,3.658536585365854
10_46_53_313,-1.0,-2.0,-1.0,1.0,-2.0,-1.0,-4.0,-1.0,0.9638671875,-0.0224609375,0.20556640625,1.5853658536585367,3.8414634146341466,4.451219512195122
10_46_53_313,-2.0,0.0,-1.0,-2.0,-1.0,-3.0,-3.0,-2.0,0.96435546875,-0.021484375,0.20068359375,-0.12195121951219513,5.060975609756098,4.51219512195122
10_46_53_313,1.0,1.0,-1.0,-3.0,-2.0,-2.0,-3.0,-1.0,0.97509765625,-0.00537109375,0.1943359375,-4.451219512195122,6.463414634146342,4.51219512195122
10_46_53_313,0.0,0.0,-3.0,0.0,1.0,-4.0,0.0,-2.0,0.97021484375,-0.00146484375,0.197265625,-0.5487804878048781,6.219512195121951,2.9268292682926833
10_46_53_313,0.0,0.0,1.0,3.0,1.0,0.0,0.0,-2.0,0.96240234375,-0.00537109375,0.19384765625,-0.853658536585366,5.731707317073171,2.439024390243903
10_46_53_313,0.0,-1.0,1.0,-2.0,-1.0,-1.0,-1.0,-1.0,0.95263671875,-0.00439453125,0.1953125,-2.7439024390243905,5.121951219512195,1.9512195121951221
10_46_53_313,-2.0,-2.0,-1.0,-5.0,2.0,1.0,2.0,0.0,0.9462890625,0.00048828125,0.19921875,-5.548780487804878,4.2682926829268295,1.8902439024390245
10_46_53_355,-2.0,-1.0,-2.0,-2.0,0.0,-3.0,-5.0,-1.0,0.97998046875,-0.0078125,0.208984375,-0.6097560975609757,-2.1951219512195124,2.0121951219512195
10_46_53_355,-1.0,-1.0,-3.0,1.0,-1.0,-3.0,1.0,-1.0,0.9814453125,-0.0009765625,0.1982421875,-0.7317073170731708,-1.829268292682927,2.378048780487805
10_46_53_355,-2.0,-1.0,-1.0,-2.0,0.0,2.0,-1.0,-1.0,0.9462890625,-0.0009765625,0.1943359375,-0.06097560975609757,-2.25609756097561,2.7439024390243905
10_46_53_355,-3.0,-1.0,-2.0,-3.0,-2.0,-2.0,-1.0,-3.0,0.9453125,-0.005859375,0.19482421875,0.48780487804878053,-2.073170731707317,2.804878048780488
10_46_53_355,-1.0,0.0,-3.0,-2.0,1.0,1.0,-3.0,-3.0,0.9443359375,-0.009765625,0.2041015625,0.853658536585366,-1.7682926829268295,3.1097560975609757
10_46_53_355,-1.0,-2.0,-1.0,-1.0,-3.0,-1.0,-1.0,-1.0,0.9404296875,-0.0087890625,0.20751953125,1.2195121951219514,-0.7317073170731708,3.353658536585366
10_46_53_355,0.0,0.0,-4.0,0.0,-1.0,1.0,-3.0,1.0,0.943359375,-0.01904296875,0.21533203125,1.524390243902439,0.426829268292683,3.658536585365854
10_46_53_355,1.0,-2.0,-1.0,-1.0,0.0,0.0,1.0,-2.0,0.9638671875,-0.0224609375,0.20556640625,1.5853658536585367,3.8414634146341466,4.451219512195122
10_46_53_355,0.0,1.0,-3.0,-3.0,-2.0,-3.0,-5.0,-1.0,0.96435546875,-0.021484375,0.20068359375,-0.12195121951219513,5.060975609756098,4.51219512195122
10_46_53_355,-1.0,0.0,-5.0,0.0,2.0,-2.0,-3.0,1.0,0.97509765625,-0.00537109375,0.1943359375,-4.451219512195122,6.463414634146342,4.51219512195122
10_46_53_407,-2.0,-3.0,2.0,1.0,0.0,-2.0,-2.0,0.0,0.97998046875,-0.0078125,0.208984375,-0.6097560975609757,-2.1951219512195124,2.0121951219512195
10_46_53_407,0.0,-3.0,-4.0,1.0,-3.0,-2.0,-1.0,0.0,0.9814453125,-0.0009765625,0.1982421875,-0.7317073170731708,-1.829268292682927,2.378048780487805
10_46_53_407,-2.0,0.0,-1.0,-1.0,-3.0,-1.0,3.0,-1.0,0.9462890625,-0.0009765625,0.1943359375,-0.06097560975609757,-2.25609756097561,2.7439024390243905
10_46_53_407,-2.0,-1.0,-2.0,-2.0,0.0,-3.0,-5.0,-1.0,0.9453125,-0.005859375,0.19482421875,0.48780487804878053,-2.073170731707317,2.804878048780488
10_46_53_407,-1.0,-1.0,-3.0,1.0,-1.0,-3.0,1.0,-1.0,0.9443359375,-0.009765625,0.2041015625,0.853658536585366,-1.7682926829268295,3.1097560975609757
10_46_53_407,-2.0,-1.0,-1.0,-2.0,0.0,2.0,-1.0,-1.0,0.9404296875,-0.0087890625,0.20751953125,1.2195121951219514,-0.7317073170731708,3.353658536585366
10_46_53_407,-3.0,-1.0,-2.0,-3.0,-2.0,-2.0,-1.0,-3.0,0.943359375,-0.01904296875,0.21533203125,1.524390243902439,0.426829268292683,3.658536585365854
10_46_53_407,-1.0,0.0,-3.0,-2.0,1.0,1.0,-3.0,-3.0,0.9638671875,-0.0224609375,0.20556640625,1.5853658536585367,3.8414634146341466,4.451219512195122
10_46_53_407,-1.0,-2.0,-1.0,-1.0,-3.0,-1.0,-1.0,-1.0,0.96435546875,-0.021484375,0.20068359375,-0.12195121951219513,5.060975609756098,4.51219512195122
10_46_53_462,1.0,0.0,-4.0,-1.0,-1.0,-1.0,-1.0,2.0,0.970703125,-0.021484375,0.2138671875,0.9756097560975611,-2.987804878048781,1.707317073170732
10_46_53_462,0.0,-1.0,0.0,-1.0,0.0,0.0,2.0,-1.0,0.97998046875,-0.0078125,0.208984375,-0.6097560975609757,-2.1951219512195124,2.0121951219512195
10_46_53_462,0.0,0.0,1.0,-2.0,-2.0,0.0,0.0,-1.0,0.9814453125,-0.0009765625,0.1982421875,-0.7317073170731708,-1.829268292682927,2.378048780487805
10_46_53_462,0.0,-1.0,0.0,2.0,1.0,0.0,0.0,0.0,0.9462890625,-0.0009765625,0.1943359375,-0.06097560975609757,-2.25609756097561,2.7439024390243905
10_46_53_462,0.0,0.0,-2.0,1.0,3.0,-2.0,1.0,-3.0,0.9453125,-0.005859375,0.19482421875,0.48780487804878053,-2.073170731707317,2.804878048780488
10_46_53_462,-2.0,-3.0,2.0,1.0,0.0,-2.0,-2.0,0.0,0.9443359375,-0.009765625,0.2041015625,0.853658536585366,-1.7682926829268295,3.1097560975609757
10_46_53_462,0.0,-3.0,-4.0,1.0,-3.0,-2.0,-1.0,0.0,0.9404296875,-0.0087890625,0.20751953125,1.2195121951219514,-0.7317073170731708,3.353658536585366
10_46_53_462,-2.0,0.0,-1.0,-1.0,-3.0,-1.0,3.0,-1.0,0.943359375,-0.01904296875,0.21533203125,1.524390243902439,0.426829268292683,3.658536585365854
10_46_53_508,-2.0,0.0,2.0,0.0,2.0,3.0,1.0,1.0,0.96337890625,-0.00439453125,0.20703125,3.8414634146341466,-4.390243902439025,0.3658536585365854
10_46_53_508,-2.0,-3.0,-6.0,-1.0,-3.0,-2.0,0.0,0.0,0.96484375,-0.017578125,0.216796875,3.353658536585366,-3.7195121951219514,0.9756097560975611
10_46_53_508,-1.0,-5.0,0.0,-1.0,0.0,1.0,0.0,0.0,0.970703125,-0.021484375,0.2138671875,0.9756097560975611,-2.987804878048781,1.707317073170732
10_46_53_508,1.0,3.0,1.0,0.0,0.0,-6.0,-3.0,-3.0,0.97998046875,-0.0078125,0.208984375,-0.6097560975609757,-2.1951219512195124,2.0121951219512195
10_46_53_508,0.0,1.0,-2.0,1.0,1.0,-6.0,-2.0,0.0,0.9814453125,-0.0009765625,0.1982421875,-0.7317073170731708,-1.829268292682927,2.378048780487805
10_46_53_508,2.0,-2.0,0.0,-1.0,-1.0,0.0,-1.0,0.0,0.9462890625,-0.0009765625,0.1943359375,-0.06097560975609757,-2.25609756097561,2.7439024390243905
10_46_53_508,0.0,-1.0,1.0,1.0,-1.0,0.0,-1.0,-1.0,0.9453125,-0.005859375,0.19482421875,0.48780487804878053,-2.073170731707317,2.804878048780488
10_46_53_508,-1.0,-1.0,-5.0,-1.0,-1.0,-1.0,0.0,-1.0,0.9443359375,-0.009765625,0.2041015625,0.853658536585366,-1.7682926829268295,3.1097560975609757
10_46_53_508,-1.0,1.0,-3.0,0.0,0.0,2.0,-1.0,-2.0,0.9404296875,-0.0087890625,0.20751953125,1.2195121951219514,-0.7317073170731708,3.353658536585366
10_46_53_566,0.0,-2.0,-4.0,-1.0,-4.0,0.0,-3.0,-2.0,0.970703125,-0.00830078125,0.1962890625,-1.0365853658536586,-1.7682926829268295,-0.1829268292682927
10_46_53_566,-1.0,-1.0,1.0,1.0,-2.0,1.0,1.0,-2.0,0.96728515625,-0.015625,0.18994140625,-1.0975609756097562,-2.5,-0.3658536585365854
10_46_53_566,-2.0,-2.0,1.0,-2.0,-1.0,1.0,1.0,-1.0,0.96142578125,-0.0126953125,0.1923828125,-2.073170731707317,-3.2926829268292686,-0.30487804878048785
10_46_53_566,0.0,1.0,3.0,-1.0,-2.0,-2.0,-3.0,0.0,0.95703125,-0.001953125,0.19775390625,-2.1951219512195124,-4.085365853658537,-0.1829268292682927
10_46_53_566,-1.0,1.0,-2.0,1.0,-1.0,-3.0,-1.0,-1.0,0.96337890625,-0.00439453125,0.20703125,3.8414634146341466,-4.390243902439025,0.3658536585365854
10_46_53_566,0.0,-2.0,0.0,-2.0,-3.0,0.0,-3.0,-1.0,0.96484375,-0.017578125,0.216796875,3.353658536585366,-3.7195121951219514,0.9756097560975611
10_46_53_566,-3.0,0.0,1.0,0.0,0.0,0.0,-1.0,0.0,0.970703125,-0.021484375,0.2138671875,0.9756097560975611,-2.987804878048781,1.707317073170732
10_46_53_566,-2.0,-1.0,-1.0,0.0,-1.0,0.0,-1.0,0.0,0.97998046875,-0.0078125,0.208984375,-0.6097560975609757,-2.1951219512195124,2.0121951219512195
10_46_53_566,-1.0,1.0,1.0,1.0,-3.0,2.0,-3.0,-1.0,0.9814453125,-0.0009765625,0.1982421875,-0.7317073170731708,-1.829268292682927,2.378048780487805
10_46_53_566,-2.0,0.0,2.0,0.0,2.0,3.0,1.0,1.0,0.9462890625,-0.0009765625,0.1943359375,-0.06097560975609757,-2.25609756097561,2.7439024390243905
10_46_53_609,-3.0,-1.0,0.0,-1.0,-4.0,-1.0,-2.0,-3.0,0.9775390625,-0.02392578125,0.201171875,-0.7317073170731708,-0.6707317073170732,0.1829268292682927
10_46_53_609,-1.0,-2.0,-3.0,-2.0,0.0,-1.0,-3.0,-1.0,0.9765625,-0.017578125,0.19921875,-2.6219512195121952,-0.6707317073170732,0.426829268292683
10_46_53_609,-2.0,-1.0,1.0,0.0,-3.0,-2.0,-1.0,-1.0,0.97509765625,-0.0087890625,0.20068359375,-3.353658536585366,-0.7317073170731708,0.6707317073170732
10_46_53_609,-2.0,0.0,0.0,-3.0,0.0,-3.0,-2.0,-1.0,0.9736328125,-0.0009765625,0.1953125,-2.5,-1.1585365853658538,0.0
10_46_53_609,1.0,1.0,-3.0,3.0,2.0,1.0,-2.0,0.0,0.970703125,-0.00830078125,0.1962890625,-1.0365853658536586,-1.7682926829268295,-0.1829268292682927
10_46_53_609,-1.0,0.0,-1.0,-2.0,-1.0,2.0,0.0,-1.0,0.96728515625,-0.015625,0.18994140625,-1.0975609756097562,-2.5,-0.3658536585365854
10_46_53_609,-1.0,-4.0,2.0,1.0,1.0,-1.0,0.0,-2.0,0.96142578125,-0.0126953125,0.1923828125,-2.073170731707317,-3.2926829268292686,-0.30487804878048785
10_46_53_609,1.0,-4.0,-4.0,-4.0,-2.0,0.0,2.0,0.0,0.95703125,-0.001953125,0.19775390625,-2.1951219512195124,-4.085365853658537,-0.1829268292682927
10_46_53_609,-2.0,-3.0,-1.0,0.0,0.0,-2.0,0.0,-2.0,0.96337890625,-0.00439453125,0.20703125,3.8414634146341466,-4.390243902439025,0.3658536585365854
10_46_53_609,-1.0,1.0,1.0,-2.0,-1.0,-2.0,2.0,2.0,0.96484375,-0.017578125,0.216796875,3.353658536585366,-3.7195121951219514,0.9756097560975611
10_46_53_661,-3.0,-1.0,0.0,-1.0,-4.0,-1.0,-2.0,-3.0,0.97509765625,-0.0087890625,0.20068359375,-3.353658536585366,-0.7317073170731708,0.6707317073170732
10_46_53_661,-1.0,-2.0,-3.0,-2.0,0.0,-1.0,-3.0,-1.0,0.9736328125,-0.0009765625,0.1953125,-2.5,-1.1585365853658538,0.0
10_46_53_661,-2.0,-1.0,1.0,0.0,-3.0,-2.0,-1.0,-1.0,0.970703125,-0.00830078125,0.1962890625,-1.0365853658536586,-1.7682926829268295,-0.1829268292682927
10_46_53_661,-2.0,0.0,0.0,-3.0,0.0,-3.0,-2.0,-1.0,0.96728515625,-0.015625,0.18994140625,-1.0975609756097562,-2.5,-0.3658536585365854
10_46_53_661,1.0,1.0,-3.0,3.0,2.0,1.0,-2.0,0.0,0.96142578125,-0.0126953125,0.1923828125,-2.073170731707317,-3.2926829268292686,-0.30487804878048785
10_46_53_661,-1.0,0.0,-1.0,-2.0,-1.0,2.0,0.0,-1.0,0.95703125,-0.001953125,0.19775390625,-2.1951219512195124,-4.085365853658537,-0.1829268292682927
10_46_53_661,-1.0,-4.0,2.0,1.0,1.0,-1.0,0.0,-2.0,0.96337890625,-0.00439453125,0.20703125,3.8414634146341466,-4.390243902439025,0.3658536585365854
10_46_53_661,1.0,-4.0,-4.0,-4.0,-2.0,0.0,2.0,0.0,0.96484375,-0.017578125,0.216796875,3.353658536585366,-3.7195121951219514,0.9756097560975611
10_46_53_719,-1.0,-2.0,-3.0,1.0,-2.0,-3.0,1.0,1.0,0.97119140625,-0.01611328125,0.1982421875,0.7317073170731708,-0.7317073170731708,-0.12195121951219513
10_46_53_719,0.0,3.0,1.0,0.0,-1.0,-2.0,-2.0,-1.0,0.9775390625,-0.02392578125,0.201171875,-0.7317073170731708,-0.6707317073170732,0.1829268292682927
10_46_53_719,0.0,-2.0,-3.0,-2.0,-3.0,0.0,-4.0,1.0,0.9765625,-0.017578125,0.19921875,-2.6219512195121952,-0.6707317073170732,0.426829268292683
10_46_53_719,0.0,2.0,6.0,2.0,2.0,-2.0,-2.0,-3.0,0.97509765625,-0.0087890625,0.20068359375,-3.353658536585366,-0.7317073170731708,0.6707317073170732
10_46_53_719,2.0,-1.0,-3.0,0.0,-1.0,0.0,-2.0,-2.0,0.9736328125,-0.0009765625,0.1953125,-2.5,-1.1585365853658538,0.0
10_46_53_719,0.0,0.0,2.0,-1.0,-2.0,0.0,-2.0,-1.0,0.970703125,-0.00830078125,0.1962890625,-1.0365853658536586,-1.7682926829268295,-0.1829268292682927
10_46_53_719,-7.0,-2.0,-4.0,-1.0,-1.0,1.0,-1.0,2.0,0.96728515625,-0.015625,0.18994140625,-1.0975609756097562,-2.5,-0.3658536585365854
10_46_53_719,0.0,-3.0,0.0,0.0,0.0,-1.0,-1.0,-1.0,0.96142578125,-0.0126953125,0.1923828125,-2.073170731707317,-3.2926829268292686,-0.30487804878048785
10_46_53_719,2.0,-3.0,0.0,-3.0,-1.0,-2.0,-2.0,-1.0,0.95703125,-0.001953125,0.19775390625,-2.1951219512195124,-4.085365853658537,-0.1829268292682927
10_46_53_761,-3.0,-1.0,-1.0,-1.0,-3.0,-2.0,-3.0,-3.0,0.97705078125,-0.01708984375,0.19921875,-0.06097560975609757,0.06097560975609757,-0.6097560975609757
10_46_53_761,-5.0,0.0,-1.0,0.0,-2.0,-2.0,1.0,1.0,0.97412109375,-0.02392578125,0.197265625,-0.24390243902439027,0.06097560975609757,-0.6097560975609757
10_46_53_761,3.0,-2.0,-2.0,1.0,0.0,-4.0,-1.0,1.0,0.96826171875,-0.029296875,0.1953125,-1.402439024390244,-0.06097560975609757,-0.5487804878048781
10_46_53_761,-1.0,-1.0,-2.0,0.0,1.0,-2.0,-3.0,-2.0,0.96142578125,-0.0126953125,0.19091796875,-3.353658536585366,-0.7317073170731708,-0.24390243902439027
10_46_53_761,2.0,-1.0,2.0,0.0,-1.0,-2.0,-1.0,0.0,0.9599609375,-0.0126953125,0.18896484375,-1.707317073170732,-1.0365853658536586,-0.1829268292682927
10_46_53_761,0.0,1.0,-3.0,-3.0,-2.0,2.0,-3.0,-1.0,0.96337890625,-0.0146484375,0.1953125,0.30487804878048785,-0.9146341463414634,-0.12195121951219513
10_46_53_761,0.0,0.0,-1.0,-2.0,0.0,-4.0,-2.0,-2.0,0.97119140625,-0.01611328125,0.1982421875,0.7317073170731708,-0.7317073170731708,-0.12195121951219513
10_46_53_761,3.0,1.0,2.0,2.0,0.0,1.0,0.0,-2.0,0.9775390625,-0.02392578125,0.201171875,-0.7317073170731708,-0.6707317073170732,0.1829268292682927
10_46_53_761,-1.0,-4.0,2.0,-2.0,0.0,3.0,-3.0,2.0,0.9765625,-0.017578125,0.19921875,-2.6219512195121952,-0.6707317073170732,0.426829268292683
10_46_53_761,-2.0,1.0,0.0,-4.0,0.0,-1.0,0.0,0.0,0.97509765625,-0.0087890625,0.20068359375,-3.353658536585366,-0.7317073170731708,0.6707317073170732
10_46_53_818,-3.0,-1.0,-1.0,-1.0,-3.0,-2.0,-3.0,-3.0,0.96826171875,-0.029296875,0.1953125,-1.402439024390244,-0.06097560975609757,-0.5487804878048781
10_46_53_818,-5.0,0.0,-1.0,0.0,-2.0,-2.0,1.0,1.0,0.96142578125,-0.0126953125,0.19091796875,-3.353658536585366,-0.7317073170731708,-0.24390243902439027
10_46_53_818,3.0,-2.0,-2.0,1.0,0.0,-4.0,-1.0,1.0,0.9599609375,-0.0126953125,0.18896484375,-1.707317073170732,-1.0365853658536586,-0.1829268292682927
10_46_53_818,-1.0,-1.0,-2.0,0.0,1.0,-2.0,-3.0,-2.0,0.96337890625,-0.0146484375,0.1953125,0.30487804878048785,-0.9146341463414634,-0.12195121951219513
10_46_53_818,2.0,-1.0,2.0,0.0,-1.0,-2.0,-1.0,0.0,0.97119140625,-0.01611328125,0.1982421875,0.7317073170731708,-0.7317073170731708,-0.12195121951219513
10_46_53_818,0.0,1.0,-3.0,-3.0,-2.0,2.0,-3.0,-1.0,0.9775390625,-0.02392578125,0.201171875,-0.7317073170731708,-0.6707317073170732,0.1829268292682927
10_46_53_818,0.0,0.0,-1.0,-2.0,0.0,-4.0,-2.0,-2.0,0.9765625,-0.017578125,0.19921875,-2.6219512195121952,-0.6707317073170732,0.426829268292683
10_46_53_818,3.0,1.0,2.0,2.0,0.0,1.0,0.0,-2.0,0.97509765625,-0.0087890625,0.20068359375,-3.353658536585366,-0.7317073170731708,0.6707317073170732
10_46_53_876,-1.0,-2.0,2.0,-1.0,3.0,0.0,-1.0,0.0,0.970703125,-0.02783203125,0.20263671875,0.9146341463414634,-0.6707317073170732,-0.6097560975609757
10_46_53_876,-2.0,-4.0,-5.0,1.0,-1.0,-2.0,0.0,-2.0,0.974609375,-0.029296875,0.2060546875,0.12195121951219513,-0.24390243902439027,-0.48780487804878053
10_46_53_876,0.0,1.0,-5.0,1.0,0.0,-3.0,-1.0,-1.0,0.97705078125,-0.01708984375,0.19921875,-0.06097560975609757,0.06097560975609757,-0.6097560975609757
10_46_53_876,1.0,-2.0,-2.0,-2.0,0.0,0.0,1.0,-3.0,0.97412109375,-0.02392578125,0.197265625,-0.24390243902439027,0.06097560975609757,-0.6097560975609757
10_46_53_876,0.0,0.0,4.0,3.0,-2.0,0.0,-3.0,-3.0,0.96826171875,-0.029296875,0.1953125,-1.402439024390244,-0.06097560975609757,-0.5487804878048781
10_46_53_876,-2.0,1.0,0.0,-3.0,-2.0,-2.0,-1.0,-2.0,0.96142578125,-0.0126953125,0.19091796875,-3.353658536585366,-0.7317073170731708,-0.24390243902439027
10_46_53_876,3.0,-3.0,4.0,-1.0,-1.0,-2.0,-2.0,-1.0,0.9599609375,-0.0126953125,0.18896484375,-1.707317073170732,-1.0365853658536586,-0.1829268292682927
10_46_53_876,0.0,0.0,0.0,-1.0,0.0,0.0,-2.0,0.0,0.96337890625,-0.0146484375,0.1953125,0.30487804878048785,-0.9146341463414634,-0.12195121951219513
10_46_53_876,-3.0,-1.0,-1.0,-1.0,-3.0,-2.0,-3.0,-3.0,0.97119140625,-0.01611328125,0.1982421875,0.7317073170731708,-0.7317073170731708,-0.12195121951219513
10_46_53_876,-5.0,0.0,-1.0,0.0,-2.0,-2.0,1.0,1.0,0.9775390625,-0.02392578125,0.201171875,-0.7317073170731708,-0.6707317073170732,0.1829268292682927
10_46_53_917,-4.0,2.0,2.0,-1.0,0.0,0.0,-1.0,-1.0,0.974609375,-0.029296875,0.2060546875,0.12195121951219513,-0.24390243902439027,-0.48780487804878053
10_46_53_917,-1.0,-2.0,2.0,-1.0,3.0,0.0,-1.0,0.0,0.97705078125,-0.01708984375,0.19921875,-0.06097560975609757,0.06097560975609757,-0.6097560975609757
10_46_53_917,-2.0,-4.0,-5.0,1.0,-1.0,-2.0,0.0,-2.0,0.97412109375,-0.02392578125,0.197265625,-0.24390243902439027,0.06097560975609757,-0.6097560975609757
10_46_53_917,0.0,1.0,-5.0,1.0,0.0,-3.0,-1.0,-1.0,0.96826171875,-0.029296875,0.1953125,-1.402439024390244,-0.06097560975609757,-0.5487804878048781
10_46_53_917,1.0,-2.0,-2.0,-2.0,0.0,0.0,1.0,-3.0,0.96142578125,-0.0126953125,0.19091796875,-3.353658536585366,-0.7317073170731708,-0.24390243902439027
10_46_53_917,0.0,0.0,4.0,3.0,-2.0,0.0,-3.0,-3.0,0.9599609375,-0.0126953125,0.18896484375,-1.707317073170732,-1.0365853658536586,-0.1829268292682927
10_46_53_917,-2.0,1.0,0.0,-3.0,-2.0,-2.0,-1.0,-2.0,0.96337890625,-0.0146484375,0.1953125,0.30487804878048785,-0.9146341463414634,-0.12195121951219513
10_46_53_917,3.0,-3.0,4.0,-1.0,-1.0,-2.0,-2.0,-1.0,0.97119140625,-0.01611328125,0.1982421875,0.7317073170731708,-0.7317073170731708,-0.12195121951219513
10_46_53_917,0.0,0.0,0.0,-1.0,0.0,0.0,-2.0,0.0,0.9775390625,-0.02392578125,0.201171875,-0.7317073170731708,-0.6707317073170732,0.1829268292682927
10_46_53_969,1.0,-6.0,2.0,4.0,-6.0,-1.0,2.0,-2.0,0.96240234375,-0.01953125,0.1923828125,-1.3414634146341464,1.7682926829268295,0.6707317073170732
10_46_53_969,-4.0,-1.0,-1.0,-1.0,-2.0,2.0,-1.0,-4.0,0.970703125,-0.02783203125,0.20263671875,0.9146341463414634,-0.6707317073170732,-0.6097560975609757
10_46_53_969,-1.0,-1.0,-2.0,0.0,-1.0,-2.0,-1.0,-1.0,0.974609375,-0.029296875,0.2060546875,0.12195121951219513,-0.24390243902439027,-0.48780487804878053
10_46_53_969,1.0,1.0,-1.0,2.0,-1.0,0.0,2.0,-1.0,0.97705078125,-0.01708984375,0.19921875,-0.06097560975609757,0.06097560975609757,-0.6097560975609757
10_46_53_969,-1.0,-4.0,0.0,1.0,-3.0,0.0,-2.0,-1.0,0.97412109375,-0.02392578125,0.197265625,-0.24390243902439027,0.06097560975609757,-0.6097560975609757
10_46_53_969,0.0,-3.0,-2.0,-3.0,0.0,-2.0,1.0,0.0,0.96826171875,-0.029296875,0.1953125,-1.402439024390244,-0.06097560975609757,-0.5487804878048781
10_46_53_969,-1.0,-2.0,-1.0,1.0,-2.0,-1.0,-1.0,1.0,0.96142578125,-0.0126953125,0.19091796875,-3.353658536585366,-0.7317073170731708,-0.24390243902439027
10_46_53_969,-4.0,2.0,2.0,-1.0,0.0,0.0,-1.0,-1.0,0.9599609375,-0.0126953125,0.18896484375,-1.707317073170732,-1.0365853658536586,-0.1829268292682927
10_46_53_969,-1.0,-2.0,2.0,-1.0,3.0,0.0,-1.0,0.0,0.96337890625,-0.0146484375,0.1953125,0.30487804878048785,-0.9146341463414634,-0.12195121951219513
10_46_53_969,-2.0,-4.0,-5.0,1.0,-1.0,-2.0,0.0,-2.0,0.97119140625,-0.01611328125,0.1982421875,0.7317073170731708,-0.7317073170731708,-0.12195121951219513
10_46_54_097,2.0,-3.0,1.0,-3.0,-3.0,1.0,-5.0,1.0,0.96240234375,-0.01953125,0.1923828125,-1.3414634146341464,1.7682926829268295,0.6707317073170732
10_46_54_097,-3.0,0.0,-1.0,-3.0,-1.0,2.0,-1.0,0.0,0.970703125,-0.02783203125,0.20263671875,0.9146341463414634,-0.6707317073170732,-0.6097560975609757
10_46_54_097,1.0,-6.0,2.0,4.0,-6.0,-1.0,2.0,-2.0,0.974609375,-0.029296875,0.2060546875,0.12195121951219513,-0.24390243902439027,-0.48780487804878053
10_46_54_097,-4.0,-1.0,-1.0,-1.0,-2.0,2.0,-1.0,-4.0,0.97705078125,-0.01708984375,0.19921875,-0.06097560975609757,0.06097560975609757,-0.6097560975609757
10_46_54_097,-1.0,-1.0,-2.0,0.0,-1.0,-2.0,-1.0,-1.0,0.97412109375,-0.02392578125,0.197265625,-0.24390243902439027,0.06097560975609757,-0.6097560975609757
10_46_54_097,1.0,1.0,-1.0,2.0,-1.0,0.0,2.0,-1.0,0.96826171875,-0.029296875,0.1953125,-1.402439024390244,-0.06097560975609757,-0.5487804878048781
10_46_54_097,-1.0,-4.0,0.0,1.0,-3.0,0.0,-2.0,-1.0,0.96142578125,-0.0126953125,0.19091796875,-3.353658536585366,-0.7317073170731708,-0.24390243902439027
10_46_54_097,0.0,-3.0,-2.0,-3.0,0.0,-2.0,1.0,0.0,0.9599609375,-0.0126953125,0.18896484375,-1.707317073170732,-1.0365853658536586,-0.1829268292682927
10_46_54_097,-1.0,-2.0,-1.0,1.0,-2.0,-1.0,-1.0,1.0,0.96337890625,-0.0146484375,0.1953125,0.30487804878048785,-0.9146341463414634,-0.12195121951219513
10_46_54_097,-4.0,2.0,2.0,-1.0,0.0,0.0,-1.0,-1.0,0.97119140625,-0.01611328125,0.1982421875,0.7317073170731708,-0.7317073170731708,-0.12195121951219513
10_46_54_128,-2.0,-3.0,1.0,-4.0,0.0,-1.0,2.0,0.0,0.970703125,-0.02783203125,0.20263671875,0.9146341463414634,-0.6707317073170732,-0.6097560975609757
10_46_54_128,-6.0,-1.0,-4.0,0.0,-4.0,1.0,1.0,-4.0,0.974609375,-0.029296875,0.2060546875,0.12195121951219513,-0.24390243902439027,-0.48780487804878053
10_46_54_128,2.0,-3.0,1.0,-3.0,-3.0,1.0,-5.0,1.0,0.97705078125,-0.01708984375,0.19921875,-0.06097560975609757,0.06097560975609757,-0.6097560975609757
10_46_54_128,-3.0,0.0,-1.0,-3.0,-1.0,2.0,-1.0,0.0,0.97412109375,-0.02392578125,0.197265625,-0.24390243902439027,0.06097560975609757,-0.6097560975609757
10_46_54_128,1.0,-6.0,2.0,4.0,-6.0,-1.0,2.0,-2.0,0.96826171875,-0.029296875,0.1953125,-1.402439024390244,-0.06097560975609757,-0.5487804878048781
10_46_54_128,-4.0,-1.0,-1.0,-1.0,-2.0,2.0,-1.0,-4.0,0.96142578125,-0.0126953125,0.19091796875,-3.353658536585366,-0.7317073170731708,-0.24390243902439027
10_46_54_178,0.0,-2.0,2.0,0.0,-1.0,-2.0,-1.0,-1.0,0.970703125,-0.02490234375,0.2001953125,-0.426829268292683,2.9268292682926833,0.5487804878048781
10_46_54_178,1.0,1.0,-1.0,1.0,-2.0,-1.0,-1.0,0.0,0.96240234375,-0.01953125,0.1923828125,-1.3414634146341464,1.7682926829268295,0.6707317073170732
10_46_54_178,-2.0,-1.0,1.0,0.0,0.0,-2.0,1.0,1.0,0.970703125,-0.02783203125,0.20263671875,0.9146341463414634,-0.6707317073170732,-0.6097560975609757
10_46_54_178,-3.0,-1.0,1.0,0.0,-1.0,-2.0,-1.0,0.0,0.974609375,-0.029296875,0.2060546875,0.12195121951219513,-0.24390243902439027,-0.48780487804878053
10_46_54_178,-1.0,-1.0,4.0,2.0,0.0,2.0,2.0,-1.0,0.97705078125,-0.01708984375,0.19921875,-0.06097560975609757,0.06097560975609757,-0.6097560975609757
10_46_54_178,-2.0,-3.0,1.0,-4.0,0.0,-1.0,2.0,0.0,0.97412109375,-0.02392578125,0.197265625,-0.24390243902439027,0.06097560975609757,-0.6097560975609757
10_46_54_178,-6.0,-1.0,-4.0,0.0,-4.0,1.0,1.0,-4.0,0.96826171875,-0.029296875,0.1953125,-1.402439024390244,-0.06097560975609757,-0.5487804878048781
10_46_54_341,-2.0,-4.0,1.0,-4.0,-1.0,0.0,-1.0,2.0,0.96240234375,-0.01953125,0.1923828125,-1.3414634146341464,1.7682926829268295,0.6707317073170732
10_46_54_341,0.0,-2.0,2.0,0.0,-1.0,-2.0,-1.0,-1.0,0.970703125,-0.02783203125,0.20263671875,0.9146341463414634,-0.6707317073170732,-0.6097560975609757
10_46_54_341,1.0,1.0,-1.0,1.0,-2.0,-1.0,-1.0,0.0,0.974609375,-0.029296875,0.2060546875,0.12195121951219513,-0.24390243902439027,-0.48780487804878053
10_46_54_341,-2.0,-1.0,1.0,0.0,0.0,-2.0,1.0,1.0,0.97705078125,-0.01708984375,0.19921875,-0.06097560975609757,0.06097560975609757,-0.6097560975609757
10_46_54_341,-3.0,-1.0,1.0,0.0,-1.0,-2.0,-1.0,0.0,0.97412109375,-0.02392578125,0.197265625,-0.24390243902439027,0.06097560975609757,-0.6097560975609757
10_46_54_341,-1.0,-1.0,4.0,2.0,0.0,2.0,2.0,-1.0,0.96826171875,-0.029296875,0.1953125,-1.402439024390244,-0.06097560975609757,-0.5487804878048781
10_46_54_432,-1.0,0.0,0.0,-2.0,0.0,1.0,-6.0,-2.0,0.970703125,-0.02490234375,0.2001953125,-0.426829268292683,2.9268292682926833,0.5487804878048781
10_46_54_432,1.0,-2.0,2.0,4.0,-5.0,1.0,-1.0,1.0,0.96240234375,-0.01953125,0.1923828125,-1.3414634146341464,1.7682926829268295,0.6707317073170732
10_46_54_432,-2.0,-4.0,1.0,-4.0,-1.0,0.0,-1.0,2.0,0.970703125,-0.02783203125,0.20263671875,0.9146341463414634,-0.6707317073170732,-0.6097560975609757
10_46_54_432,0.0,-2.0,2.0,0.0,-1.0,-2.0,-1.0,-1.0,0.974609375,-0.029296875,0.2060546875,0.12195121951219513,-0.24390243902439027,-0.48780487804878053
10_46_54_432,1.0,1.0,-1.0,1.0,-2.0,-1.0,-1.0,0.0,0.97705078125,-0.01708984375,0.19921875,-0.06097560975609757,0.06097560975609757,-0.6097560975609757
10_46_54_432,-2.0,-1.0,1.0,0.0,0.0,-2.0,1.0,1.0,0.97412109375,-0.02392578125,0.197265625,-0.24390243902439027,0.06097560975609757,-0.6097560975609757
10_46_54_496,-1.0,-1.0,-1.0,-2.0,-3.0,-1.0,-2.0,-5.0,0.97802734375,0.00341796875,0.18798828125,-3.9024390243902443,4.75609756097561,0.6707317073170732
10_46_54_496,-1.0,-2.0,0.0,-3.0,-1.0,-1.0,-1.0,-4.0,0.970703125,-0.02490234375,0.2001953125,-0.426829268292683,2.9268292682926833,0.5487804878048781
10_46_54_496,0.0,-2.0,-2.0,-6.0,0.0,1.0,-1.0,-2.0,0.96240234375,-0.01953125,0.1923828125,-1.3414634146341464,1.7682926829268295,0.6707317073170732
10_46_54_496,0.0,0.0,-2.0,-1.0,-1.0,-3.0,2.0,-3.0,0.970703125,-0.02783203125,0.20263671875,0.9146341463414634,-0.6707317073170732,-0.6097560975609757
10_46_54_496,-2.0,-4.0,0.0,-2.0,-1.0,-5.0,-2.0,-2.0,0.974609375,-0.029296875,0.2060546875,0.12195121951219513,-0.24390243902439027,-0.48780487804878053
10_46_54_496,-1.0,0.0,0.0,-2.0,0.0,1.0,-6.0,-2.0,0.97705078125,-0.01708984375,0.19921875,-0.06097560975609757,0.06097560975609757,-0.6097560975609757
10_46_54_496,1.0,-2.0,2.0,4.0,-5.0,1.0,-1.0,1.0,0.97412109375,-0.02392578125,0.197265625,-0.24390243902439027,0.06097560975609757,-0.6097560975609757
10_46_54_600,0.0,1.0,0.0,-1.0,2.0,0.0,0.0,1.0,0.96435546875,-0.0400390625,0.24365234375,-7.621951219512196,7.560975609756098,3.9024390243902443
10_46_54_600,2.0,1.0,-3.0,-1.0,-1.0,0.0,0.0,-2.0,0.96923828125,-0.04052734375,0.21826171875,-9.207317073170733,5.182926829268293,1.1585365853658538
10_46_54_600,-3.0,-2.0,-2.0,-1.0,-2.0,-2.0,-4.0,-3.0,0.9619140625,-0.02490234375,0.203125,-13.963414634146343,2.5609756097560976,0.6097560975609757
10_46_54_600,0.0,-1.0,-4.0,0.0,-3.0,0.0,-1.0,-3.0,0.97314453125,-0.009765625,0.1953125,-9.51219512195122,5.914634146341464,1.2804878048780488
10_46_54_600,-3.0,0.0,-1.0,2.0,1.0,0.0,-1.0,-1.0,0.97802734375,0.00341796875,0.18798828125,-3.9024390243902443,4.75609756097561,0.6707317073170732
10_46_54_600,-1.0,-1.0,-1.0,-2.0,-3.0,-1.0,-2.0,-5.0,0.970703125,-0.02490234375,0.2001953125,-0.426829268292683,2.9268292682926833,0.5487804878048781
10_46_54_600,-1.0,-2.0,0.0,-3.0,-1.0,-1.0,-1.0,-4.0,0.96240234375,-0.01953125,0.1923828125,-1.3414634146341464,1.7682926829268295,0.6707317073170732
10_46_54_600,0.0,-2.0,-2.0,-6.0,0.0,1.0,-1.0,-2.0,0.970703125,-0.02783203125,0.20263671875,0.9146341463414634,-0.6707317073170732,-0.6097560975609757
10_46_54_600,0.0,0.0,-2.0,-1.0,-1.0,-3.0,2.0,-3.0,0.974609375,-0.029296875,0.2060546875,0.12195121951219513,-0.24390243902439027,-0.48780487804878053
10_46_54_600,-2.0,-4.0,0.0,-2.0,-1.0,-5.0,-2.0,-2.0,0.97705078125,-0.01708984375,0.19921875,-0.06097560975609757,0.06097560975609757,-0.6097560975609757
10_46_54_630,1.0,-3.0,-3.0,1.0,-4.0,-2.0,-2.0,-2.0,0.93212890625,-0.1103515625,0.29052734375,-0.7926829268292683,17.439024390243905,7.500000000000001
10_46_54_630,-3.0,-3.0,2.0,2.0,1.0,1.0,0.0,2.0,0.96435546875,-0.0400390625,0.24365234375,-7.621951219512196,7.560975609756098,3.9024390243902443
10_46_54_630,-2.0,-4.0,1.0,2.0,-1.0,-6.0,1.0,-3.0,0.96923828125,-0.04052734375,0.21826171875,-9.207317073170733,5.182926829268293,1.1585365853658538
10_46_54_630,-2.0,-3.0,-1.0,2.0,-2.0,-4.0,-1.0,0.0,0.9619140625,-0.02490234375,0.203125,-13.963414634146343,2.5609756097560976,0.6097560975609757
10_46_54_630,-1.0,-1.0,1.0,1.0,-1.0,1.0,-3.0,-4.0,0.97314453125,-0.009765625,0.1953125,-9.51219512195122,5.914634146341464,1.2804878048780488
10_46_54_630,-2.0,0.0,-4.0,-5.0,-2.0,3.0,-4.0,-3.0,0.97802734375,0.00341796875,0.18798828125,-3.9024390243902443,4.75609756097561,0.6707317073170732
10_46_54_630,1.0,-1.0,2.0,1.0,1.0,-1.0,-1.0,-2.0,0.970703125,-0.02490234375,0.2001953125,-0.426829268292683,2.9268292682926833,0.5487804878048781
10_46_54_630,-1.0,-1.0,1.0,1.0,0.0,1.0,-2.0,0.0,0.96240234375,-0.01953125,0.1923828125,-1.3414634146341464,1.7682926829268295,0.6707317073170732
10_46_54_689,-2.0,-10.0,2.0,-1.0,2.0,-4.0,-1.0,-1.0,0.94873046875,-0.037109375,0.2802734375,-14.085365853658537,15.731707317073171,3.2926829268292686
10_46_54_689,1.0,-2.0,-3.0,-2.0,0.0,-6.0,-1.0,-2.0,0.9150390625,-0.0673828125,0.25,1.3414634146341464,14.634146341463415,4.451219512195122
10_46_54_689,-3.0,-5.0,3.0,0.0,0.0,-3.0,-1.0,-2.0,0.93212890625,-0.1103515625,0.29052734375,-0.7926829268292683,17.439024390243905,7.500000000000001
10_46_54_689,1.0,-3.0,-3.0,1.0,-4.0,-2.0,-2.0,-2.0,0.96435546875,-0.0400390625,0.24365234375,-7.621951219512196,7.560975609756098,3.9024390243902443
10_46_54_689,-3.0,-3.0,2.0,2.0,1.0,1.0,0.0,2.0,0.96923828125,-0.04052734375,0.21826171875,-9.207317073170733,5.182926829268293,1.1585365853658538
10_46_54_689,-2.0,-4.0,1.0,2.0,-1.0,-6.0,1.0,-3.0,0.9619140625,-0.02490234375,0.203125,-13.963414634146343,2.5609756097560976,0.6097560975609757
10_46_54_689,-2.0,-3.0,-1.0,2.0,-2.0,-4.0,-1.0,0.0,0.97314453125,-0.009765625,0.1953125,-9.51219512195122,5.914634146341464,1.2804878048780488
10_46_54_689,-1.0,-1.0,1.0,1.0,-1.0,1.0,-3.0,-4.0,0.97802734375,0.00341796875,0.18798828125,-3.9024390243902443,4.75609756097561,0.6707317073170732
10_46_54_689,-2.0,0.0,-4.0,-5.0,-2.0,3.0,-4.0,-3.0,0.970703125,-0.02490234375,0.2001953125,-0.426829268292683,2.9268292682926833,0.5487804878048781
10_46_54_751,0.0,-3.0,3.0,-3.0,-1.0,1.0,-5.0,-1.0,0.94873046875,-0.037109375,0.2802734375,-14.085365853658537,15.731707317073171,3.2926829268292686
10_46_54_751,-3.0,-5.0,-4.0,1.0,-4.0,1.0,2.0,-1.0,0.9150390625,-0.0673828125,0.25,1.3414634146341464,14.634146341463415,4.451219512195122
10_46_54_751,2.0,2.0,6.0,0.0,0.0,0.0,-1.0,-1.0,0.93212890625,-0.1103515625,0.29052734375,-0.7926829268292683,17.439024390243905,7.500000000000001
10_46_54_751,-1.0,6.0,1.0,5.0,1.0,1.0,-4.0,-2.0,0.96435546875,-0.0400390625,0.24365234375,-7.621951219512196,7.560975609756098,3.9024390243902443
10_46_54_751,-2.0,-10.0,2.0,-1.0,2.0,-4.0,-1.0,-1.0,0.96923828125,-0.04052734375,0.21826171875,-9.207317073170733,5.182926829268293,1.1585365853658538
10_46_54_751,1.0,-2.0,-3.0,-2.0,0.0,-6.0,-1.0,-2.0,0.9619140625,-0.02490234375,0.203125,-13.963414634146343,2.5609756097560976,0.6097560975609757
10_46_54_751,-3.0,-5.0,3.0,0.0,0.0,-3.0,-1.0,-2.0,0.97314453125,-0.009765625,0.1953125,-9.51219512195122,5.914634146341464,1.2804878048780488
10_46_54_877,-1.0,0.0,0.0,-7.0,-6.0,-2.0,3.0,0.0,0.9560546875,-0.052734375,0.35498046875,-11.097560975609756,9.695121951219512,-1.524390243902439
10_46_54_877,-2.0,1.0,2.0,3.0,-4.0,-1.0,0.0,-1.0,0.97265625,-0.06787109375,0.3349609375,-8.841463414634147,14.939024390243905,1.7682926829268295
10_46_54_877,-4.0,-2.0,1.0,-5.0,-3.0,0.0,-3.0,0.0,0.962890625,-0.05908203125,0.32421875,-10.182926829268293,17.195121951219512,3.353658536585366
10_46_54_877,2.0,22.0,1.0,-2.0,-1.0,-2.0,-1.0,-1.0,0.95458984375,-0.05078125,0.3076171875,-13.170731707317074,17.5609756097561,4.146341463414634
10_46_54_877,-2.0,-8.0,-1.0,1.0,-1.0,-4.0,-2.0,0.0,0.94873046875,-0.037109375,0.2802734375,-14.085365853658537,15.731707317073171,3.2926829268292686
10_46_54_877,0.0,-3.0,3.0,-3.0,-1.0,1.0,-5.0,-1.0,0.9150390625,-0.0673828125,0.25,1.3414634146341464,14.634146341463415,4.451219512195122
10_46_54_877,-3.0,-5.0,-4.0,1.0,-4.0,1.0,2.0,-1.0,0.93212890625,-0.1103515625,0.29052734375,-0.7926829268292683,17.439024390243905,7.500000000000001
10_46_54_877,2.0,2.0,6.0,0.0,0.0,0.0,-1.0,-1.0,0.96435546875,-0.0400390625,0.24365234375,-7.621951219512196,7.560975609756098,3.9024390243902443
10_46_54_877,-1.0,6.0,1.0,5.0,1.0,1.0,-4.0,-2.0,0.96923828125,-0.04052734375,0.21826171875,-9.207317073170733,5.182926829268293,1.1585365853658538
10_46_54_877,-2.0,-10.0,2.0,-1.0,2.0,-4.0,-1.0,-1.0,0.9619140625,-0.02490234375,0.203125,-13.963414634146343,2.5609756097560976,0.6097560975609757
10_46_54_924,-2.0,-3.0,-8.0,-6.0,-2.0,-1.0,-1.0,0.0,0.9560546875,-0.052734375,0.35498046875,-11.097560975609756,9.695121951219512,-1.524390243902439
10_46_54_924,-1.0,3.0,1.0,2.0,2.0,2.0,-1.0,2.0,0.97265625,-0.06787109375,0.3349609375,-8.841463414634147,14.939024390243905,1.7682926829268295
10_46_54_924,-1.0,0.0,0.0,-7.0,-6.0,-2.0,3.0,0.0,0.962890625,-0.05908203125,0.32421875,-10.182926829268293,17.195121951219512,3.353658536585366
10_46_54_924,-2.0,1.0,2.0,3.0,-4.0,-1.0,0.0,-1.0,0.95458984375,-0.05078125,0.3076171875,-13.170731707317074,17.5609756097561,4.146341463414634
10_46_54_924,-4.0,-2.0,1.0,-5.0,-3.0,0.0,-3.0,0.0,0.94873046875,-0.037109375,0.2802734375,-14.085365853658537,15.731707317073171,3.2926829268292686
10_46_54_924,2.0,22.0,1.0,-2.0,-1.0,-2.0,-1.0,-1.0,0.9150390625,-0.0673828125,0.25,1.3414634146341464,14.634146341463415,4.451219512195122
10_46_54_924,-2.0,-8.0,-1.0,1.0,-1.0,-4.0,-2.0,0.0,0.93212890625,-0.1103515625,0.29052734375,-0.7926829268292683,17.439024390243905,7.500000000000001
10_46_54_924,0.0,-3.0,3.0,-3.0,-1.0,1.0,-5.0,-1.0,0.96435546875,-0.0400390625,0.24365234375,-7.621951219512196,7.560975609756098,3.9024390243902443
10_46_54_924,-3.0,-5.0,-4.0,1.0,-4.0,1.0,2.0,-1.0,0.96923828125,-0.04052734375,0.21826171875,-9.207317073170733,5.182926829268293,1.1585365853658538
10_46_54_924,2.0,2.0,6.0,0.0,0.0,0.0,-1.0,-1.0,0.9619140625,-0.02490234375,0.203125,-13.963414634146343,2.5609756097560976,0.6097560975609757
10_46_54_978,-1.0,3.0,0.0,-1.0,-2.0,-3.0,-3.0,-3.0,0.91455078125,-0.04052734375,0.37646484375,-10.426829268292684,5.365853658536586,-3.1097560975609757
10_46_54_978,1.0,-7.0,1.0,4.0,-2.0,1.0,-4.0,-1.0,0.9560546875,-0.052734375,0.35498046875,-11.097560975609756,9.695121951219512,-1.524390243902439
10_46_54_978,-2.0,-3.0,-8.0,-6.0,-2.0,-1.0,-1.0,0.0,0.97265625,-0.06787109375,0.3349609375,-8.841463414634147,14.939024390243905,1.7682926829268295
10_46_54_978,-1.0,3.0,1.0,2.0,2.0,2.0,-1.0,2.0,0.962890625,-0.05908203125,0.32421875,-10.182926829268293,17.195121951219512,3.353658536585366
10_46_54_978,-1.0,0.0,0.0,-7.0,-6.0,-2.0,3.0,0.0,0.95458984375,-0.05078125,0.3076171875,-13.170731707317074,17.5609756097561,4.146341463414634
10_46_54_978,-2.0,1.0,2.0,3.0,-4.0,-1.0,0.0,-1.0,0.94873046875,-0.037109375,0.2802734375,-14.085365853658537,15.731707317073171,3.2926829268292686
10_46_54_978,-4.0,-2.0,1.0,-5.0,-3.0,0.0,-3.0,0.0,0.9150390625,-0.0673828125,0.25,1.3414634146341464,14.634146341463415,4.451219512195122
10_46_54_978,2.0,22.0,1.0,-2.0,-1.0,-2.0,-1.0,-1.0,0.93212890625,-0.1103515625,0.29052734375,-0.7926829268292683,17.439024390243905,7.500000000000001
10_46_54_978,-2.0,-8.0,-1.0,1.0,-1.0,-4.0,-2.0,0.0,0.96435546875,-0.0400390625,0.24365234375,-7.621951219512196,7.560975609756098,3.9024390243902443
10_46_54_978,0.0,-3.0,3.0,-3.0,-1.0,1.0,-5.0,-1.0,0.96923828125,-0.04052734375,0.21826171875,-9.207317073170733,5.182926829268293,1.1585365853658538
10_46_55_028,-1.0,-5.0,-7.0,-6.0,1.0,1.0,-1.0,0.0,0.91455078125,-0.04052734375,0.37646484375,-10.426829268292684,5.365853658536586,-3.1097560975609757
10_46_55_028,-1.0,-2.0,6.0,1.0,3.0,-3.0,-1.0,-1.0,0.9560546875,-0.052734375,0.35498046875,-11.097560975609756,9.695121951219512,-1.524390243902439
10_46_55_028,-1.0,3.0,0.0,-1.0,-2.0,-3.0,-3.0,-3.0,0.97265625,-0.06787109375,0.3349609375,-8.841463414634147,14.939024390243905,1.7682926829268295
10_46_55_028,1.0,-7.0,1.0,4.0,-2.0,1.0,-4.0,-1.0,0.962890625,-0.05908203125,0.32421875,-10.182926829268293,17.195121951219512,3.353658536585366
10_46_55_028,-2.0,-3.0,-8.0,-6.0,-2.0,-1.0,-1.0,0.0,0.95458984375,-0.05078125,0.3076171875,-13.170731707317074,17.5609756097561,4.146341463414634
10_46_55_028,-1.0,3.0,1.0,2.0,2.0,2.0,-1.0,2.0,0.94873046875,-0.037109375,0.2802734375,-14.085365853658537,15.731707317073171,3.2926829268292686
10_46_55_028,-1.0,0.0,0.0,-7.0,-6.0,-2.0,3.0,0.0,0.9150390625,-0.0673828125,0.25,1.3414634146341464,14.634146341463415,4.451219512195122
10_46_55_028,-2.0,1.0,2.0,3.0,-4.0,-1.0,0.0,-1.0,0.93212890625,-0.1103515625,0.29052734375,-0.7926829268292683,17.439024390243905,7.500000000000001
10_46_55_028,-4.0,-2.0,1.0,-5.0,-3.0,0.0,-3.0,0.0,0.96435546875,-0.0400390625,0.24365234375,-7.621951219512196,7.560975609756098,3.9024390243902443
10_46_55_028,2.0,22.0,1.0,-2.0,-1.0,-2.0,-1.0,-1.0,0.96923828125,-0.04052734375,0.21826171875,-9.207317073170733,5.182926829268293,1.1585365853658538
10_46_55_079,-1.0,-5.0,-7.0,-6.0,1.0,1.0,-1.0,0.0,0.97265625,-0.06787109375,0.3349609375,-8.841463414634147,14.939024390243905,1.7682926829268295
10_46_55_079,-1.0,-2.0,6.0,1.0,3.0,-3.0,-1.0,-1.0,0.962890625,-0.05908203125,0.32421875,-10.182926829268293,17.195121951219512,3.353658536585366
10_46_55_079,-1.0,3.0,0.0,-1.0,-2.0,-3.0,-3.0,-3.0,0.95458984375,-0.05078125,0.3076171875,-13.170731707317074,17.5609756097561,4.146341463414634
10_46_55_079,1.0,-7.0,1.0,4.0,-2.0,1.0,-4.0,-1.0,0.94873046875,-0.037109375,0.2802734375,-14.085365853658537,15.731707317073171,3.2926829268292686
10_46_55_079,-2.0,-3.0,-8.0,-6.0,-2.0,-1.0,-1.0,0.0,0.9150390625,-0.0673828125,0.25,1.3414634146341464,14.634146341463415,4.451219512195122
10_46_55_079,-1.0,3.0,1.0,2.0,2.0,2.0,-1.0,2.0,0.93212890625,-0.1103515625,0.29052734375,-0.7926829268292683,17.439024390243905,7.500000000000001
10_46_55_079,-1.0,0.0,0.0,-7.0,-6.0,-2.0,3.0,0.0,0.96435546875,-0.0400390625,0.24365234375,-7.621951219512196,7.560975609756098,3.9024390243902443
10_46_55_079,-2.0,1.0,2.0,3.0,-4.0,-1.0,0.0,-1.0,0.96923828125,-0.04052734375,0.21826171875,-9.207317073170733,5.182926829268293,1.1585365853658538
10_46_55_129,-4.0,-3.0,36.0,12.0,1.0,0.0,0.0,0.0,0.83935546875,-0.0791015625,0.451171875,1.8902439024390245,3.4756097560975614,-2.0121951219512195
10_46_55_129,0.0,-1.0,-1.0,-10.0,0.0,-1.0,1.0,-2.0,0.85009765625,-0.0546875,0.4345703125,-9.573170731707318,-3.963414634146342,-8.170731707317074
10_46_55_129,0.0,20.0,8.0,1.0,-2.0,-3.0,0.0,-1.0,0.91455078125,-0.04052734375,0.37646484375,-10.426829268292684,5.365853658536586,-3.1097560975609757
10_46_55_129,1.0,0.0,2.0,1.0,0.0,1.0,3.0,1.0,0.9560546875,-0.052734375,0.35498046875,-11.097560975609756,9.695121951219512,-1.524390243902439
10_46_55_129,-3.0,-3.0,-6.0,-1.0,0.0,-2.0,-1.0,-1.0,0.97265625,-0.06787109375,0.3349609375,-8.841463414634147,14.939024390243905,1.7682926829268295
10_46_55_129,0.0,-7.0,-1.0,-4.0,1.0,-1.0,2.0,-2.0,0.962890625,-0.05908203125,0.32421875,-10.182926829268293,17.195121951219512,3.353658536585366
10_46_55_129,-4.0,-3.0,-2.0,-5.0,-2.0,-1.0,0.0,-1.0,0.95458984375,-0.05078125,0.3076171875,-13.170731707317074,17.5609756097561,4.146341463414634
10_46_55_129,-1.0,-2.0,1.0,-3.0,-2.0,-1.0,-1.0,-1.0,0.94873046875,-0.037109375,0.2802734375,-14.085365853658537,15.731707317073171,3.2926829268292686
10_46_55_129,-1.0,-5.0,-7.0,-6.0,1.0,1.0,-1.0,0.0,0.9150390625,-0.0673828125,0.25,1.3414634146341464,14.634146341463415,4.451219512195122
10_46_55_129,-1.0,-2.0,6.0,1.0,3.0,-3.0,-1.0,-1.0,0.93212890625,-0.1103515625,0.29052734375,-0.7926829268292683,17.439024390243905,7.500000000000001
10_46_55_197,2.0,-10.0,-27.0,-4.0,-1.0,0.0,-2.0,2.0,0.83935546875,-0.0791015625,0.451171875,1.8902439024390245,3.4756097560975614,-2.0121951219512195
10_46_55_197,0.0,20.0,15.0,3.0,-1.0,0.0,2.0,-1.0,0.85009765625,-0.0546875,0.4345703125,-9.573170731707318,-3.963414634146342,-8.170731707317074
10_46_55_197,-4.0,-3.0,36.0,12.0,1.0,0.0,0.0,0.0,0.91455078125,-0.04052734375,0.37646484375,-10.426829268292684,5.365853658536586,-3.1097560975609757
10_46_55_197,0.0,-1.0,-1.0,-10.0,0.0,-1.0,1.0,-2.0,0.9560546875,-0.052734375,0.35498046875,-11.097560975609756,9.695121951219512,-1.524390243902439
10_46_55_197,0.0,20.0,8.0,1.0,-2.0,-3.0,0.0,-1.0,0.97265625,-0.06787109375,0.3349609375,-8.841463414634147,14.939024390243905,1.7682926829268295
10_46_55_197,1.0,0.0,2.0,1.0,0.0,1.0,3.0,1.0,0.962890625,-0.05908203125,0.32421875,-10.182926829268293,17.195121951219512,3.353658536585366
10_46_55_197,-3.0,-3.0,-6.0,-1.0,0.0,-2.0,-1.0,-1.0,0.95458984375,-0.05078125,0.3076171875,-13.170731707317074,17.5609756097561,4.146341463414634
10_46_55_197,0.0,-7.0,-1.0,-4.0,1.0,-1.0,2.0,-2.0,0.94873046875,-0.037109375,0.2802734375,-14.085365853658537,15.731707317073171,3.2926829268292686
10_46_55_197,-4.0,-3.0,-2.0,-5.0,-2.0,-1.0,0.0,-1.0,0.9150390625,-0.0673828125,0.25,1.3414634146341464,14.634146341463415,4.451219512195122
10_46_55_197,-1.0,-2.0,1.0,-3.0,-2.0,-1.0,-1.0,-1.0,0.93212890625,-0.1103515625,0.29052734375,-0.7926829268292683,17.439024390243905,7.500000000000001
10_46_55_239,-4.0,0.0,-9.0,3.0,-4.0,-3.0,0.0,-2.0,0.8115234375,-0.09765625,0.51123046875,9.329268292682928,11.036585365853659,5.3048780487804885
10_46_55_239,-1.0,-6.0,-22.0,-3.0,1.0,-1.0,-3.0,2.0,0.833984375,-0.14208984375,0.5185546875,5.914634146341464,4.451219512195122,0.24390243902439027
10_46_55_239,1.0,4.0,14.0,4.0,-1.0,0.0,-1.0,-2.0,0.83935546875,-0.0791015625,0.451171875,1.8902439024390245,3.4756097560975614,-2.0121951219512195
10_46_55_239,0.0,3.0,-2.0,-8.0,-3.0,-1.0,-4.0,-1.0,0.85009765625,-0.0546875,0.4345703125,-9.573170731707318,-3.963414634146342,-8.170731707317074
10_46_55_239,2.0,-10.0,-27.0,-4.0,-1.0,0.0,-2.0,2.0,0.91455078125,-0.04052734375,0.37646484375,-10.426829268292684,5.365853658536586,-3.1097560975609757
