Timestamps,channel_1,channel_2,channel_3,channel_4,channel_5,channel_6,channel_7,channel_8,ACC_X,ACC_Y,ACC_Z,GYR_X,GYR_Y,GYR_Z
18_00_47_976,0.0,0.0,0.0,0.0,0.0,0.0,0.0,0.0,0.0,0.0,0.0,0.0,0.0,0.0
18_00_47_976,0.0,0.0,0.0,0.0,0.0,0.0,0.0,0.0,0.0,0.0,0.0,0.0,0.0,0.0
18_00_47_976,0.0,0.0,0.0,0.0,0.0,0.0,0.0,0.0,0.0,0.0,0.0,0.0,0.0,0.0
18_00_47_976,0.0,0.0,0.0,0.0,0.0,0.0,0.0,0.0,0.0,0.0,0.0,0.0,0.0,0.0
18_00_47_976,0.0,0.0,0.0,0.0,0.0,0.0,0.0,0.0,0.0,0.0,0.0,0.0,0.0,0.0
18_00_47_976,0.0,0.0,0.0,0.0,0.0,0.0,0.0,0.0,0.0,0.0,0.0,0.0,0.0,0.0
18_00_47_976,0.0,0.0,0.0,0.0,0.0,0.0,0.0,0.0,0.0,0.0,0.0,0.0,0.0,0.0
18_00_47_976,0.0,0.0,0.0,0.0,0.0,0.0,0.0,0.0,0.0,0.0,0.0,0.0,0.0,0.0
18_00_47_976,0.0,0.0,0.0,0.0,0.0,0.0,0.0,0.0,0.0,0.0,0.0,0.0,0.0,0.0
18_00_47_976,0.0,0.0,0.0,0.0,0.0,0.0,0.0,0.0,0.0,0.0,0.0,0.0,0.0,0.0
18_00_50_400,0.0,3.0,4.0,-5.0,-2.0,1.0,1.0,2.0,0.0,0.0,0.0,0.0,0.0,0.0
18_00_50_400,2.0,1.0,-5.0,-3.0,1.0,-6.0,0.0,2.0,0.0,0.0,0.0,0.0,0.0,0.0
18_00_50_400,-2.0,-4.0,0.0,-3.0,1.0,-3.0,-1.0,-3.0,0.0,0.0,0.0,0.0,0.0,0.0
18_00_50_400,-3.0,-1.0,-1.0,-3.0,0.0,-4.0,-1.0,-3.0,0.0,0.0,0.0,0.0,0.0,0.0
18_00_50_400,0.0,-5.0,-5.0,-2.0,-1.0,2.0,-1.0,-2.0,0.0,0.0,0.0,0.0,0.0,0.0
18_00_50_400,0.0,0.0,0.0,0.0,0.0,0.0,0.0,0.0,0.0,0.0,0.0,0.0,0.0,0.0
18_00_50_400,0.0,0.0,0.0,0.0,0.0,0.0,0.0,0.0,0.0,0.0,0.0,0.0,0.0,0.0
18_00_50_400,0.0,0.0,0.0,0.0,0.0,0.0,0.0,0.0,0.0,0.0,0.0,0.0,0.0,0.0
18_00_50_400,0.0,0.0,0.0,0.0,0.0,0.0,0.0,0.0,0.0,0.0,0.0,0.0,0.0,0.0
18_00_50_447,-3.0,-3.0,-4.0,2.0,3.0,1.0,-1.0,0.0,0.94775390625,-0.04931640625,0.24072265625,-1.7682926829268295,0.3658536585365854,-0.12195121951219513
18_00_50_447,1.0,-1.0,-2.0,0.0,-3.0,-3.0,-1.0,-2.0,0.94775390625,-0.04931640625,0.24072265625,-1.7682926829268295,0.3658536585365854,-0.12195121951219513
18_00_50_447,-2.0,3.0,1.0,-2.0,0.0,-4.0,-3.0,-1.0,0.94970703125,-0.052734375,0.24755859375,-2.1341463414634148,1.0365853658536586,0.24390243902439027
18_00_50_447,-4.0,-2.0,-3.0,1.0,-2.0,2.0,-2.0,-1.0,0.951171875,-0.05029296875,0.24365234375,-2.987804878048781,1.402439024390244,0.48780487804878053
18_00_50_447,0.0,-1.0,-3.0,-1.0,0.0,1.0,-2.0,0.0,0.0,0.0,0.0,0.0,0.0,0.0
18_00_50_447,0.0,3.0,4.0,-5.0,-2.0,1.0,1.0,2.0,0.0,0.0,0.0,0.0,0.0,0.0
18_00_50_447,2.0,1.0,-5.0,-3.0,1.0,-6.0,0.0,2.0,0.0,0.0,0.0,0.0,0.0,0.0
18_00_50_447,-2.0,-4.0,0.0,-3.0,1.0,-3.0,-1.0,-3.0,0.0,0.0,0.0,0.0,0.0,0.0
18_00_50_447,-3.0,-1.0,-1.0,-3.0,0.0,-4.0,-1.0,-3.0,0.0,0.0,0.0,0.0,0.0,0.0
18_00_50_447,0.0,-5.0,-5.0,-2.0,-1.0,2.0,-1.0,-2.0,0.0,0.0,0.0,0.0,0.0,0.0
18_00_50_498,1.0,0.0,4.0,2.0,-3.0,-2.0,-7.0,-1.0,0.94873046875,-0.0478515625,0.23876953125,-2.0121951219512195,0.06097560975609757,-0.30487804878048785
18_00_50_498,0.0,-7.0,-11.0,2.0,-6.0,-2.0,1.0,-1.0,0.94775390625,-0.04931640625,0.24072265625,-1.7682926829268295,0.3658536585365854,-0.12195121951219513
18_00_50_498,-1.0,1.0,-4.0,0.0,-3.0,-3.0,1.0,-2.0,0.94775390625,-0.04931640625,0.24072265625,-1.7682926829268295,0.3658536585365854,-0.12195121951219513
18_00_50_498,0.0,-1.0,-1.0,-4.0,0.0,1.0,-3.0,2.0,0.94970703125,-0.052734375,0.24755859375,-2.1341463414634148,1.0365853658536586,0.24390243902439027
18_00_50_498,4.0,0.0,2.0,4.0,1.0,0.0,-5.0,-4.0,0.951171875,-0.05029296875,0.24365234375,-2.987804878048781,1.402439024390244,0.48780487804878053
18_00_50_498,-3.0,-3.0,-4.0,2.0,3.0,1.0,-1.0,0.0,0.0,0.0,0.0,0.0,0.0,0.0
18_00_50_498,1.0,-1.0,-2.0,0.0,-3.0,-3.0,-1.0,-2.0,0.0,0.0,0.0,0.0,0.0,0.0
18_00_50_498,-2.0,3.0,1.0,-2.0,0.0,-4.0,-3.0,-1.0,0.0,0.0,0.0,0.0,0.0,0.0
18_00_50_498,-4.0,-2.0,-3.0,1.0,-2.0,2.0,-2.0,-1.0,0.0,0.0,0.0,0.0,0.0,0.0
18_00_50_545,-2.0,-7.0,-10.0,-4.0,-4.0,-6.0,-5.0,2.0,0.50537109375,-0.2041015625,-0.17578125,3.8414634146341466,0.12195121951219513,-0.5487804878048781
18_00_50_545,3.0,-6.0,2.0,-3.0,1.0,2.0,-1.0,0.0,0.65283203125,-0.103515625,-0.27978515625,-1.707317073170732,0.9756097560975611,0.7317073170731708
18_00_50_545,-1.0,-6.0,-4.0,-8.0,-4.0,-6.0,-4.0,-1.0,1.1435546875,-0.0244140625,0.29736328125,-5.3048780487804885,0.6707317073170732,1.0365853658536586
18_00_50_545,-1.0,3.0,2.0,4.0,0.0,-1.0,-3.0,-7.0,0.94873046875,-0.0478515625,0.23876953125,-2.0121951219512195,0.06097560975609757,-0.30487804878048785
18_00_50_545,0.0,-2.0,-3.0,-3.0,-7.0,-5.0,-5.0,-5.0,0.94775390625,-0.04931640625,0.24072265625,-1.7682926829268295,0.3658536585365854,-0.12195121951219513
18_00_50_545,1.0,-2.0,-5.0,2.0,0.0,-2.0,-2.0,-3.0,0.94775390625,-0.04931640625,0.24072265625,-1.7682926829268295,0.3658536585365854,-0.12195121951219513
18_00_50_545,-1.0,-5.0,1.0,0.0,-1.0,1.0,-1.0,-4.0,0.94970703125,-0.052734375,0.24755859375,-2.1341463414634148,1.0365853658536586,0.24390243902439027
18_00_50_545,2.0,-4.0,-1.0,-3.0,1.0,-4.0,1.0,0.0,0.951171875,-0.05029296875,0.24365234375,-2.987804878048781,1.402439024390244,0.48780487804878053
18_00_50_545,3.0,-3.0,1.0,-3.0,1.0,-2.0,1.0,2.0,0.0,0.0,0.0,0.0,0.0,0.0
18_00_50_545,-3.0,0.0,-1.0,6.0,1.0,-1.0,-4.0,0.0,0.0,0.0,0.0,0.0,0.0,0.0
18_00_50_600,-4.0,-6.0,-6.0,2.0,-3.0,-3.0,-1.0,-1.0,1.50390625,0.14013671875,0.828125,-5.548780487804878,0.24390243902439027,2.5609756097560976
18_00_50_600,-1.0,2.0,5.0,-11.0,-5.0,-3.0,-2.0,0.0,1.21728515625,0.0234375,0.7548828125,-1.524390243902439,-0.06097560975609757,0.9756097560975611
18_00_50_600,-1.0,0.0,-3.0,0.0,-1.0,0.0,1.0,0.0,0.50537109375,-0.2041015625,-0.17578125,3.8414634146341466,0.12195121951219513,-0.5487804878048781
18_00_50_600,-4.0,-2.0,8.0,-3.0,-1.0,1.0,-2.0,-1.0,0.65283203125,-0.103515625,-0.27978515625,-1.707317073170732,0.9756097560975611,0.7317073170731708
18_00_50_600,-3.0,1.0,-4.0,4.0,-3.0,-3.0,-2.0,-1.0,1.1435546875,-0.0244140625,0.29736328125,-5.3048780487804885,0.6707317073170732,1.0365853658536586
18_00_50_600,-1.0,-4.0,-2.0,-8.0,-4.0,1.0,-3.0,-1.0,0.94873046875,-0.0478515625,0.23876953125,-2.0121951219512195,0.06097560975609757,-0.30487804878048785
18_00_50_600,1.0,-3.0,2.0,3.0,0.0,-5.0,1.0,-4.0,0.94775390625,-0.04931640625,0.24072265625,-1.7682926829268295,0.3658536585365854,-0.12195121951219513
18_00_50_600,-4.0,-4.0,4.0,-5.0,0.0,1.0,1.0,-2.0,0.94775390625,-0.04931640625,0.24072265625,-1.7682926829268295,0.3658536585365854,-0.12195121951219513
18_00_50_600,0.0,-2.0,-4.0,4.0,-1.0,1.0,0.0,-1.0,0.94970703125,-0.052734375,0.24755859375,-2.1341463414634148,1.0365853658536586,0.24390243902439027
18_00_50_649,-2.0,1.0,10.0,-8.0,1.0,3.0,-2.0,-1.0,1.4951171875,0.1259765625,0.9443359375,-1.0365853658536586,-1.3414634146341464,2.5
18_00_50_649,-3.0,2.0,4.0,2.0,1.0,-5.0,-4.0,0.0,0.85791015625,-0.1005859375,0.33203125,4.390243902439025,-1.8902439024390245,0.5487804878048781
18_00_50_649,0.0,2.0,7.0,-8.0,-4.0,1.0,-4.0,1.0,0.384765625,-0.236328125,-0.4658203125,6.036585365853659,-1.5853658536585367,1.402439024390244
18_00_50_649,-3.0,2.0,-3.0,5.0,0.0,-1.0,1.0,-3.0,0.9013671875,-0.048828125,-0.04931640625,-1.0365853658536586,-0.06097560975609757,1.829268292682927
18_00_50_649,-6.0,1.0,-1.0,-3.0,-4.0,2.0,-6.0,-1.0,1.50390625,0.14013671875,0.828125,-5.548780487804878,0.24390243902439027,2.5609756097560976
18_00_50_649,6.0,0.0,1.0,-4.0,-3.0,-2.0,-1.0,2.0,1.21728515625,0.0234375,0.7548828125,-1.524390243902439,-0.06097560975609757,0.9756097560975611
18_00_50_649,-5.0,5.0,6.0,-7.0,-2.0,2.0,-6.0,-5.0,0.50537109375,-0.2041015625,-0.17578125,3.8414634146341466,0.12195121951219513,-0.5487804878048781
18_00_50_649,1.0,-2.0,1.0,1.0,1.0,-1.0,0.0,0.0,0.65283203125,-0.103515625,-0.27978515625,-1.707317073170732,0.9756097560975611,0.7317073170731708
18_00_50_649,-4.0,-1.0,8.0,0.0,1.0,0.0,0.0,0.0,1.1435546875,-0.0244140625,0.29736328125,-5.3048780487804885,0.6707317073170732,1.0365853658536586
18_00_50_649,-2.0,-5.0,-5.0,0.0,0.0,-3.0,-4.0,-2.0,0.94873046875,-0.0478515625,0.23876953125,-2.0121951219512195,0.06097560975609757,-0.30487804878048785
18_00_50_702,4.0,4.0,6.0,5.0,4.0,6.0,2.0,0.0,0.85791015625,-0.1005859375,0.33203125,4.390243902439025,-1.8902439024390245,0.5487804878048781
18_00_50_702,-4.0,3.0,3.0,-3.0,0.0,5.0,-2.0,-2.0,0.384765625,-0.236328125,-0.4658203125,6.036585365853659,-1.5853658536585367,1.402439024390244
18_00_50_702,2.0,-5.0,-6.0,2.0,0.0,7.0,1.0,4.0,0.9013671875,-0.048828125,-0.04931640625,-1.0365853658536586,-0.06097560975609757,1.829268292682927
18_00_50_702,-2.0,1.0,10.0,-8.0,1.0,3.0,-2.0,-1.0,1.50390625,0.14013671875,0.828125,-5.548780487804878,0.24390243902439027,2.5609756097560976
18_00_50_702,-3.0,2.0,4.0,2.0,1.0,-5.0,-4.0,0.0,1.21728515625,0.0234375,0.7548828125,-1.524390243902439,-0.06097560975609757,0.9756097560975611
18_00_50_702,0.0,2.0,7.0,-8.0,-4.0,1.0,-4.0,1.0,0.50537109375,-0.2041015625,-0.17578125,3.8414634146341466,0.12195121951219513,-0.5487804878048781
18_00_50_702,-3.0,2.0,-3.0,5.0,0.0,-1.0,1.0,-3.0,0.65283203125,-0.103515625,-0.27978515625,-1.707317073170732,0.9756097560975611,0.7317073170731708
18_00_50_755,-3.0,0.0,3.0,-1.0,-3.0,-2.0,-2.0,3.0,0.4287109375,-0.21533203125,-0.47412109375,7.987804878048781,-3.353658536585366,0.1829268292682927
18_00_50_755,5.0,-2.0,-7.0,4.0,3.0,2.0,4.0,-1.0,1.1513671875,0.0361328125,0.27880859375,0.426829268292683,-1.9512195121951221,3.4756097560975614
18_00_50_755,-8.0,0.0,0.0,-3.0,0.0,-1.0,-4.0,-1.0,1.4951171875,0.1259765625,0.9443359375,-1.0365853658536586,-1.3414634146341464,2.5
18_00_50_755,7.0,-2.0,-2.0,1.0,2.0,-3.0,1.0,1.0,0.85791015625,-0.1005859375,0.33203125,4.390243902439025,-1.8902439024390245,0.5487804878048781
18_00_50_755,-4.0,5.0,7.0,-5.0,-1.0,-2.0,2.0,1.0,0.384765625,-0.236328125,-0.4658203125,6.036585365853659,-1.5853658536585367,1.402439024390244
18_00_50_755,4.0,4.0,6.0,5.0,4.0,6.0,2.0,0.0,0.9013671875,-0.048828125,-0.04931640625,-1.0365853658536586,-0.06097560975609757,1.829268292682927
18_00_50_755,-4.0,3.0,3.0,-3.0,0.0,5.0,-2.0,-2.0,1.50390625,0.14013671875,0.828125,-5.548780487804878,0.24390243902439027,2.5609756097560976
18_00_50_755,2.0,-5.0,-6.0,2.0,0.0,7.0,1.0,4.0,1.21728515625,0.0234375,0.7548828125,-1.524390243902439,-0.06097560975609757,0.9756097560975611
18_00_50_755,-2.0,1.0,10.0,-8.0,1.0,3.0,-2.0,-1.0,0.50537109375,-0.2041015625,-0.17578125,3.8414634146341466,0.12195121951219513,-0.5487804878048781
18_00_50_755,-3.0,2.0,4.0,2.0,1.0,-5.0,-4.0,0.0,0.65283203125,-0.103515625,-0.27978515625,-1.707317073170732,0.9756097560975611,0.7317073170731708
18_00_50_800,6.0,-9.0,-11.0,-3.0,-4.0,-3.0,1.0,-4.0,0.634765625,-0.17431640625,0.01611328125,5.975609756097562,-1.0365853658536586,-2.1341463414634148
18_00_50_800,-1.0,0.0,-3.0,-4.0,-4.0,-3.0,-2.0,-1.0,1.46826171875,0.107421875,0.927734375,0.12195121951219513,-2.0121951219512195,0.12195121951219513
18_00_50_800,-1.0,-3.0,-1.0,1.0,1.0,-2.0,2.0,-4.0,0.70361328125,-0.15625,0.12646484375,8.292682926829269,-3.8414634146341466,-1.0975609756097562
18_00_50_800,-5.0,1.0,6.0,-4.0,2.0,2.0,-2.0,2.0,0.4287109375,-0.21533203125,-0.47412109375,7.987804878048781,-3.353658536585366,0.1829268292682927
18_00_50_800,2.0,-3.0,-12.0,6.0,0.0,0.0,0.0,-2.0,1.1513671875,0.0361328125,0.27880859375,0.426829268292683,-1.9512195121951221,3.4756097560975614
18_00_50_800,1.0,-2.0,2.0,3.0,-3.0,-2.0,4.0,3.0,1.4951171875,0.1259765625,0.9443359375,-1.0365853658536586,-1.3414634146341464,2.5
18_00_50_800,7.0,-5.0,-9.0,-1.0,-7.0,-5.0,3.0,0.0,0.85791015625,-0.1005859375,0.33203125,4.390243902439025,-1.8902439024390245,0.5487804878048781
18_00_50_800,1.0,1.0,3.0,-3.0,-1.0,-1.0,-1.0,-1.0,0.384765625,-0.236328125,-0.4658203125,6.036585365853659,-1.5853658536585367,1.402439024390244
18_00_50_800,5.0,-6.0,-7.0,0.0,-4.0,-2.0,0.0,1.0,0.9013671875,-0.048828125,-0.04931640625,-1.0365853658536586,-0.06097560975609757,1.829268292682927
18_00_50_866,-2.0,-1.0,0.0,0.0,-1.0,-4.0,0.0,0.0,1.43212890625,0.09619140625,0.92529296875,-0.6707317073170732,0.7317073170731708,-0.30487804878048785
18_00_50_866,0.0,-4.0,-3.0,3.0,-1.0,-4.0,6.0,3.0,0.634765625,-0.17431640625,0.01611328125,5.975609756097562,-1.0365853658536586,-2.1341463414634148
18_00_50_866,-4.0,0.0,-3.0,3.0,0.0,-3.0,-1.0,0.0,1.46826171875,0.107421875,0.927734375,0.12195121951219513,-2.0121951219512195,0.12195121951219513
18_00_50_866,6.0,-9.0,-11.0,-3.0,-4.0,-3.0,1.0,-4.0,0.70361328125,-0.15625,0.12646484375,8.292682926829269,-3.8414634146341466,-1.0975609756097562
18_00_50_866,-1.0,0.0,-3.0,-4.0,-4.0,-3.0,-2.0,-1.0,0.4287109375,-0.21533203125,-0.47412109375,7.987804878048781,-3.353658536585366,0.1829268292682927
18_00_50_866,-1.0,-3.0,-1.0,1.0,1.0,-2.0,2.0,-4.0,1.1513671875,0.0361328125,0.27880859375,0.426829268292683,-1.9512195121951221,3.4756097560975614
18_00_50_866,-5.0,1.0,6.0,-4.0,2.0,2.0,-2.0,2.0,1.4951171875,0.1259765625,0.9443359375,-1.0365853658536586,-1.3414634146341464,2.5
18_00_50_866,2.0,-3.0,-12.0,6.0,0.0,0.0,0.0,-2.0,0.85791015625,-0.1005859375,0.33203125,4.390243902439025,-1.8902439024390245,0.5487804878048781
18_00_50_866,1.0,-2.0,2.0,3.0,-3.0,-2.0,4.0,3.0,0.384765625,-0.236328125,-0.4658203125,6.036585365853659,-1.5853658536585367,1.402439024390244
18_00_50_866,7.0,-5.0,-9.0,-1.0,-7.0,-5.0,3.0,0.0,0.9013671875,-0.048828125,-0.04931640625,-1.0365853658536586,-0.06097560975609757,1.829268292682927
18_00_50_907,-4.0,0.0,2.0,5.0,-2.0,1.0,0.0,-1.0,1.21533203125,0.0693359375,0.3603515625,3.2926829268292686,3.231707317073171,-0.30487804878048785
18_00_50_907,-3.0,-8.0,-10.0,4.0,-4.0,-5.0,-3.0,0.0,1.4580078125,0.09716796875,0.95849609375,5.670731707317073,2.378048780487805,0.7926829268292683
18_00_50_907,-8.0,-3.0,-2.0,1.0,0.0,0.0,-3.0,-6.0,0.4541015625,-0.1875,-0.44970703125,7.195121951219513,1.402439024390244,0.48780487804878053
18_00_50_907,1.0,0.0,0.0,-9.0,-7.0,-6.0,-5.0,-8.0,1.26513671875,0.08837890625,0.44287109375,-1.3414634146341464,2.1341463414634148,1.4634146341463417
18_00_50_907,-3.0,4.0,-1.0,-1.0,-2.0,-1.0,-1.0,-3.0,1.43212890625,0.09619140625,0.92529296875,-0.6707317073170732,0.7317073170731708,-0.30487804878048785
18_00_50_907,0.0,-3.0,-1.0,-3.0,-1.0,1.0,0.0,-3.0,0.634765625,-0.17431640625,0.01611328125,5.975609756097562,-1.0365853658536586,-2.1341463414634148
18_00_50_907,2.0,3.0,-3.0,6.0,-1.0,-5.0,-2.0,0.0,1.46826171875,0.107421875,0.927734375,0.12195121951219513,-2.0121951219512195,0.12195121951219513
18_00_50_907,2.0,-2.0,-7.0,-7.0,-1.0,3.0,1.0,-2.0,0.70361328125,-0.15625,0.12646484375,8.292682926829269,-3.8414634146341466,-1.0975609756097562
18_00_50_907,-4.0,2.0,2.0,0.0,-1.0,-1.0,-2.0,1.0,0.4287109375,-0.21533203125,-0.47412109375,7.987804878048781,-3.353658536585366,0.1829268292682927
18_00_50_907,2.0,-1.0,-13.0,1.0,-1.0,0.0,5.0,0.0,1.1513671875,0.0361328125,0.27880859375,0.426829268292683,-1.9512195121951221,3.4756097560975614
18_00_50_959,-1.0,2.0,3.0,-5.0,-4.0,-1.0,-1.0,0.0,0.4365234375,-0.18115234375,-0.47412109375,5.975609756097562,3.1707317073170733,-1.7682926829268295
18_00_50_959,-1.0,2.0,-4.0,0.0,-3.0,-4.0,-4.0,-3.0,1.21533203125,0.0693359375,0.3603515625,3.2926829268292686,3.231707317073171,-0.30487804878048785
18_00_50_959,1.0,0.0,8.0,-5.0,-3.0,-1.0,-3.0,-2.0,1.4580078125,0.09716796875,0.95849609375,5.670731707317073,2.378048780487805,0.7926829268292683
18_00_50_959,-5.0,1.0,-2.0,0.0,0.0,0.0,-1.0,-3.0,0.4541015625,-0.1875,-0.44970703125,7.195121951219513,1.402439024390244,0.48780487804878053
18_00_50_959,-5.0,-1.0,4.0,-4.0,0.0,2.0,2.0,1.0,1.26513671875,0.08837890625,0.44287109375,-1.3414634146341464,2.1341463414634148,1.4634146341463417
18_00_50_959,0.0,-2.0,-6.0,6.0,-2.0,-1.0,-3.0,-4.0,1.43212890625,0.09619140625,0.92529296875,-0.6707317073170732,0.7317073170731708,-0.30487804878048785
18_00_50_959,-2.0,-5.0,-1.0,-8.0,-2.0,-2.0,-3.0,1.0,0.634765625,-0.17431640625,0.01611328125,5.975609756097562,-1.0365853658536586,-2.1341463414634148
18_00_50_959,-1.0,0.0,-1.0,0.0,-1.0,-4.0,-2.0,-2.0,1.46826171875,0.107421875,0.927734375,0.12195121951219513,-2.0121951219512195,0.12195121951219513
18_00_50_959,-2.0,-3.0,-2.0,-10.0,-3.0,1.0,0.0,-2.0,0.70361328125,-0.15625,0.12646484375,8.292682926829269,-3.8414634146341466,-1.0975609756097562
18_00_51_005,-1.0,0.0,-2.0,2.0,1.0,-6.0,-1.0,0.0,0.37646484375,-0.20654296875,-0.4716796875,3.780487804878049,6.2804878048780495,1.1585365853658538
18_00_51_005,-6.0,2.0,10.0,-9.0,-2.0,7.0,-3.0,-1.0,1.08984375,0.033203125,0.18896484375,-4.2682926829268295,6.2804878048780495,1.8902439024390245
18_00_51_005,-5.0,1.0,1.0,1.0,-2.0,1.0,-2.0,-3.0,1.521484375,0.1376953125,0.94921875,-6.7682926829268295,5.0,2.1951219512195124
18_00_51_005,-7.0,-1.0,3.0,-1.0,1.0,0.0,-7.0,0.0,0.7666015625,-0.11279296875,0.20703125,1.7682926829268295,3.5975609756097566,-0.7317073170731708
18_00_51_005,-3.0,-4.0,-6.0,0.0,2.0,-4.0,4.0,-2.0,0.4365234375,-0.18115234375,-0.47412109375,5.975609756097562,3.1707317073170733,-1.7682926829268295
18_00_51_005,-2.0,2.0,12.0,-11.0,1.0,1.0,-6.0,2.0,1.21533203125,0.0693359375,0.3603515625,3.2926829268292686,3.231707317073171,-0.30487804878048785
18_00_51_005,-5.0,-3.0,3.0,1.0,0.0,-7.0,-3.0,-1.0,1.4580078125,0.09716796875,0.95849609375,5.670731707317073,2.378048780487805,0.7926829268292683
18_00_51_005,0.0,-1.0,6.0,-5.0,-3.0,3.0,-1.0,5.0,0.4541015625,-0.1875,-0.44970703125,7.195121951219513,1.402439024390244,0.48780487804878053
18_00_51_005,1.0,-4.0,-3.0,5.0,-1.0,-3.0,0.0,-1.0,1.26513671875,0.08837890625,0.44287109375,-1.3414634146341464,2.1341463414634148,1.4634146341463417
18_00_51_005,-1.0,2.0,3.0,-5.0,-4.0,-1.0,-1.0,0.0,1.43212890625,0.09619140625,0.92529296875,-0.6707317073170732,0.7317073170731708,-0.30487804878048785
18_00_51_058,5.0,3.0,-4.0,-3.0,2.0,0.0,3.0,-2.0,0.7939453125,-0.03662109375,-0.13330078125,-3.5975609756097566,7.195121951219513,4.390243902439025
18_00_51_058,-5.0,3.0,8.0,-3.0,-2.0,-3.0,-2.0,0.0,1.5,0.1728515625,0.88671875,-7.500000000000001,8.048780487804878,5.609756097560976
18_00_51_058,2.0,5.0,5.0,4.0,6.0,5.0,1.0,0.0,0.9296875,-0.03515625,0.44970703125,0.24390243902439027,6.646341463414635,1.7682926829268295
18_00_51_058,-6.0,0.0,10.0,-3.0,-2.0,1.0,-3.0,-1.0,0.37646484375,-0.20654296875,-0.4716796875,3.780487804878049,6.2804878048780495,1.1585365853658538
18_00_51_058,1.0,-6.0,-6.0,7.0,0.0,2.0,9.0,0.0,1.08984375,0.033203125,0.18896484375,-4.2682926829268295,6.2804878048780495,1.8902439024390245
18_00_51_058,-6.0,2.0,2.0,-6.0,-2.0,4.0,-3.0,-1.0,1.521484375,0.1376953125,0.94921875,-6.7682926829268295,5.0,2.1951219512195124
18_00_51_058,-4.0,-1.0,1.0,-1.0,-1.0,-3.0,-2.0,-1.0,0.7666015625,-0.11279296875,0.20703125,1.7682926829268295,3.5975609756097566,-0.7317073170731708
18_00_51_058,-2.0,5.0,6.0,-10.0,2.0,1.0,-1.0,-1.0,0.4365234375,-0.18115234375,-0.47412109375,5.975609756097562,3.1707317073170733,-1.7682926829268295
18_00_51_058,-3.0,-3.0,0.0,-4.0,-2.0,1.0,2.0,1.0,1.21533203125,0.0693359375,0.3603515625,3.2926829268292686,3.231707317073171,-0.30487804878048785
18_00_51_058,-4.0,3.0,5.0,-4.0,-4.0,0.0,-4.0,0.0,1.4580078125,0.09716796875,0.95849609375,5.670731707317073,2.378048780487805,0.7926829268292683
18_00_51_111,-3.0,4.0,7.0,-6.0,2.0,1.0,-5.0,-1.0,0.9296875,-0.03515625,0.44970703125,0.24390243902439027,6.646341463414635,1.7682926829268295
18_00_51_111,2.0,-6.0,-7.0,2.0,-4.0,-2.0,0.0,-1.0,0.37646484375,-0.20654296875,-0.4716796875,3.780487804878049,6.2804878048780495,1.1585365853658538
18_00_51_111,-4.0,2.0,0.0,2.0,-1.0,4.0,-3.0,0.0,1.08984375,0.033203125,0.18896484375,-4.2682926829268295,6.2804878048780495,1.8902439024390245
18_00_51_111,5.0,3.0,-4.0,-3.0,2.0,0.0,3.0,-2.0,1.521484375,0.1376953125,0.94921875,-6.7682926829268295,5.0,2.1951219512195124
18_00_51_111,-5.0,3.0,8.0,-3.0,-2.0,-3.0,-2.0,0.0,0.7666015625,-0.11279296875,0.20703125,1.7682926829268295,3.5975609756097566,-0.7317073170731708
18_00_51_111,2.0,5.0,5.0,4.0,6.0,5.0,1.0,0.0,0.4365234375,-0.18115234375,-0.47412109375,5.975609756097562,3.1707317073170733,-1.7682926829268295
18_00_51_111,-6.0,0.0,10.0,-3.0,-2.0,1.0,-3.0,-1.0,1.21533203125,0.0693359375,0.3603515625,3.2926829268292686,3.231707317073171,-0.30487804878048785
18_00_51_159,-3.0,0.0,4.0,-1.0,-2.0,-1.0,0.0,0.0,1.375,0.1181640625,0.6435546875,-2.987804878048781,2.987804878048781,4.573170731707317
18_00_51_159,1.0,-5.0,-6.0,2.0,-3.0,-3.0,-3.0,0.0,1.24951171875,0.0302734375,0.802734375,-0.853658536585366,4.329268292682928,4.085365853658537
18_00_51_159,-1.0,1.0,-5.0,4.0,2.0,-3.0,-1.0,-4.0,0.41064453125,-0.21044921875,-0.3056640625,2.8658536585365857,5.487804878048781,4.024390243902439
18_00_51_159,1.0,0.0,-12.0,1.0,1.0,-5.0,2.0,0.0,0.7939453125,-0.03662109375,-0.13330078125,-3.5975609756097566,7.195121951219513,4.390243902439025
18_00_51_159,-1.0,1.0,3.0,-4.0,-2.0,2.0,-3.0,2.0,1.5,0.1728515625,0.88671875,-7.500000000000001,8.048780487804878,5.609756097560976
18_00_51_159,3.0,-7.0,-4.0,-1.0,2.0,-2.0,-1.0,0.0,0.9296875,-0.03515625,0.44970703125,0.24390243902439027,6.646341463414635,1.7682926829268295
18_00_51_159,-5.0,0.0,-3.0,2.0,-3.0,-3.0,-3.0,-3.0,0.37646484375,-0.20654296875,-0.4716796875,3.780487804878049,6.2804878048780495,1.1585365853658538
18_00_51_159,2.0,-1.0,-10.0,10.0,0.0,-5.0,2.0,-3.0,1.08984375,0.033203125,0.18896484375,-4.2682926829268295,6.2804878048780495,1.8902439024390245
18_00_51_159,-1.0,0.0,1.0,-4.0,2.0,-1.0,-4.0,-3.0,1.521484375,0.1376953125,0.94921875,-6.7682926829268295,5.0,2.1951219512195124
18_00_51_213,-1.0,0.0,-3.0,-7.0,-3.0,0.0,2.0,-1.0,1.0693359375,0.02099609375,0.203125,-3.536585365853659,-4.2682926829268295,1.0365853658536586
18_00_51_213,-4.0,-4.0,-2.0,3.0,-4.0,1.0,-1.0,-4.0,1.45751953125,0.12451171875,0.9541015625,-3.536585365853659,-3.963414634146342,2.0121951219512195
18_00_51_213,3.0,-4.0,-12.0,3.0,2.0,-1.0,1.0,-3.0,0.62451171875,-0.1513671875,0.06201171875,5.853658536585367,-2.8658536585365857,0.48780487804878053
18_00_51_213,-3.0,-1.0,1.0,2.0,-3.0,-3.0,-3.0,-1.0,0.5029296875,-0.1552734375,-0.39453125,5.0,-0.5487804878048781,1.5853658536585367
18_00_51_213,4.0,-7.0,-1.0,-7.0,-4.0,-2.0,-1.0,1.0,1.375,0.1181640625,0.6435546875,-2.987804878048781,2.987804878048781,4.573170731707317
18_00_51_213,-3.0,3.0,0.0,1.0,3.0,2.0,0.0,-1.0,1.24951171875,0.0302734375,0.802734375,-0.853658536585366,4.329268292682928,4.085365853658537
18_00_51_213,5.0,-3.0,-6.0,-1.0,1.0,-2.0,3.0,-3.0,0.41064453125,-0.21044921875,-0.3056640625,2.8658536585365857,5.487804878048781,4.024390243902439
18_00_51_213,-4.0,0.0,0.0,3.0,0.0,-1.0,-3.0,0.0,0.7939453125,-0.03662109375,-0.13330078125,-3.5975609756097566,7.195121951219513,4.390243902439025
18_00_51_213,1.0,-3.0,-11.0,2.0,0.0,-1.0,-1.0,-3.0,1.5,0.1728515625,0.88671875,-7.500000000000001,8.048780487804878,5.609756097560976
18_00_51_213,-1.0,2.0,0.0,-2.0,1.0,2.0,-1.0,-1.0,0.9296875,-0.03515625,0.44970703125,0.24390243902439027,6.646341463414635,1.7682926829268295
18_00_51_266,-1.0,0.0,-3.0,-7.0,-3.0,0.0,2.0,-1.0,1.45751953125,0.12451171875,0.9541015625,-3.536585365853659,-3.963414634146342,2.0121951219512195
18_00_51_266,-4.0,-4.0,-2.0,3.0,-4.0,1.0,-1.0,-4.0,0.62451171875,-0.1513671875,0.06201171875,5.853658536585367,-2.8658536585365857,0.48780487804878053
18_00_51_266,3.0,-4.0,-12.0,3.0,2.0,-1.0,1.0,-3.0,0.5029296875,-0.1552734375,-0.39453125,5.0,-0.5487804878048781,1.5853658536585367
18_00_51_266,-3.0,-1.0,1.0,2.0,-3.0,-3.0,-3.0,-1.0,1.375,0.1181640625,0.6435546875,-2.987804878048781,2.987804878048781,4.573170731707317
18_00_51_266,4.0,-7.0,-1.0,-7.0,-4.0,-2.0,-1.0,1.0,1.24951171875,0.0302734375,0.802734375,-0.853658536585366,4.329268292682928,4.085365853658537
18_00_51_266,-3.0,3.0,0.0,1.0,3.0,2.0,0.0,-1.0,0.41064453125,-0.21044921875,-0.3056640625,2.8658536585365857,5.487804878048781,4.024390243902439
18_00_51_266,5.0,-3.0,-6.0,-1.0,1.0,-2.0,3.0,-3.0,0.7939453125,-0.03662109375,-0.13330078125,-3.5975609756097566,7.195121951219513,4.390243902439025
18_00_51_266,-4.0,0.0,0.0,3.0,0.0,-1.0,-3.0,0.0,1.5,0.1728515625,0.88671875,-7.500000000000001,8.048780487804878,5.609756097560976
18_00_51_309,-1.0,1.0,6.0,-9.0,-4.0,-1.0,-4.0,0.0,0.46533203125,-0.2216796875,-0.27001953125,1.1585365853658538,-4.634146341463415,-3.7195121951219514
18_00_51_309,-1.0,-1.0,2.0,6.0,0.0,0.0,-2.0,3.0,1.50732421875,0.154296875,0.85546875,-6.52439024390244,-4.146341463414634,-0.9756097560975611
18_00_51_309,-5.0,-6.0,0.0,1.0,-1.0,-2.0,-1.0,0.0,0.9658203125,-0.05615234375,0.47998046875,1.5853658536585367,-5.548780487804878,-2.0121951219512195
18_00_51_309,-4.0,-2.0,-7.0,0.0,1.0,-1.0,1.0,-3.0,0.3662109375,-0.228515625,-0.466796875,4.451219512195122,-5.853658536585367,-2.073170731707317
18_00_51_309,-1.0,0.0,1.0,-7.0,-2.0,2.0,-3.0,1.0,1.0693359375,0.02099609375,0.203125,-3.536585365853659,-4.2682926829268295,1.0365853658536586
18_00_51_309,-2.0,-1.0,7.0,0.0,-1.0,-3.0,-1.0,-3.0,1.45751953125,0.12451171875,0.9541015625,-3.536585365853659,-3.963414634146342,2.0121951219512195
18_00_51_309,-4.0,1.0,-1.0,-8.0,-4.0,-4.0,-1.0,-6.0,0.62451171875,-0.1513671875,0.06201171875,5.853658536585367,-2.8658536585365857,0.48780487804878053
18_00_51_309,-4.0,1.0,-1.0,-1.0,1.0,2.0,-1.0,2.0,0.5029296875,-0.1552734375,-0.39453125,5.0,-0.5487804878048781,1.5853658536585367
18_00_51_309,4.0,0.0,-4.0,0.0,-3.0,-1.0,-4.0,-4.0,1.375,0.1181640625,0.6435546875,-2.987804878048781,2.987804878048781,4.573170731707317
18_00_51_309,-3.0,-4.0,-4.0,2.0,0.0,-1.0,-3.0,-3.0,1.24951171875,0.0302734375,0.802734375,-0.853658536585366,4.329268292682928,4.085365853658537
18_00_51_361,-3.0,-5.0,-5.0,3.0,1.0,-3.0,-2.0,-2.0,1.3291015625,0.03466796875,0.81787109375,-4.817073170731708,-3.353658536585366,-1.829268292682927
18_00_51_361,-3.0,-2.0,3.0,-9.0,2.0,1.0,2.0,-2.0,0.46533203125,-0.2216796875,-0.27001953125,1.1585365853658538,-4.634146341463415,-3.7195121951219514
18_00_51_361,4.0,-1.0,2.0,-1.0,-2.0,-1.0,-1.0,1.0,1.50732421875,0.154296875,0.85546875,-6.52439024390244,-4.146341463414634,-0.9756097560975611
18_00_51_361,-1.0,1.0,6.0,-9.0,-4.0,-1.0,-4.0,0.0,0.9658203125,-0.05615234375,0.47998046875,1.5853658536585367,-5.548780487804878,-2.0121951219512195
18_00_51_361,-1.0,-1.0,2.0,6.0,0.0,0.0,-2.0,3.0,0.3662109375,-0.228515625,-0.466796875,4.451219512195122,-5.853658536585367,-2.073170731707317
18_00_51_361,-5.0,-6.0,0.0,1.0,-1.0,-2.0,-1.0,0.0,1.0693359375,0.02099609375,0.203125,-3.536585365853659,-4.2682926829268295,1.0365853658536586
18_00_51_361,-4.0,-2.0,-7.0,0.0,1.0,-1.0,1.0,-3.0,1.45751953125,0.12451171875,0.9541015625,-3.536585365853659,-3.963414634146342,2.0121951219512195
18_00_51_361,-1.0,0.0,1.0,-7.0,-2.0,2.0,-3.0,1.0,0.62451171875,-0.1513671875,0.06201171875,5.853658536585367,-2.8658536585365857,0.48780487804878053
18_00_51_361,-2.0,-1.0,7.0,0.0,-1.0,-3.0,-1.0,-3.0,0.5029296875,-0.1552734375,-0.39453125,5.0,-0.5487804878048781,1.5853658536585367
18_00_51_415,-4.0,4.0,-1.0,-1.0,-4.0,-1.0,-2.0,-3.0,1.513671875,0.12353515625,0.93408203125,-6.52439024390244,-0.1829268292682927,0.0
18_00_51_415,-5.0,-4.0,-6.0,1.0,4.0,0.0,-4.0,1.0,0.70703125,-0.15478515625,0.10986328125,2.378048780487805,-1.8902439024390245,-1.7682926829268295
18_00_51_415,-5.0,5.0,8.0,-6.0,0.0,0.0,-5.0,1.0,0.50146484375,-0.18701171875,-0.44775390625,1.524390243902439,-2.5609756097560976,-1.8902439024390245
18_00_51_415,0.0,-1.0,0.0,-2.0,-3.0,-1.0,-4.0,-1.0,1.37353515625,0.09423828125,0.55810546875,-6.829268292682928,-1.9512195121951221,-0.30487804878048785
18_00_51_415,-4.0,5.0,10.0,-6.0,-2.0,0.0,-1.0,-2.0,1.3291015625,0.03466796875,0.81787109375,-4.817073170731708,-3.353658536585366,-1.829268292682927
18_00_51_415,1.0,0.0,-5.0,3.0,-1.0,-3.0,1.0,-1.0,0.46533203125,-0.2216796875,-0.27001953125,1.1585365853658538,-4.634146341463415,-3.7195121951219514
18_00_51_415,-3.0,-1.0,6.0,-4.0,0.0,2.0,-1.0,-1.0,1.50732421875,0.154296875,0.85546875,-6.52439024390244,-4.146341463414634,-0.9756097560975611
18_00_51_415,1.0,0.0,-3.0,-4.0,2.0,1.0,-4.0,0.0,0.9658203125,-0.05615234375,0.47998046875,1.5853658536585367,-5.548780487804878,-2.0121951219512195
18_00_51_415,2.0,8.0,11.0,-12.0,-3.0,-1.0,-3.0,-1.0,0.3662109375,-0.228515625,-0.466796875,4.451219512195122,-5.853658536585367,-2.073170731707317
18_00_51_415,1.0,-1.0,3.0,5.0,-2.0,-1.0,2.0,-3.0,1.0693359375,0.02099609375,0.203125,-3.536585365853659,-4.2682926829268295,1.0365853658536586
18_00_51_466,2.0,-3.0,-12.0,1.0,1.0,-4.0,0.0,-3.0,0.38916015625,-0.24658203125,-0.43896484375,2.5,-0.1829268292682927,-1.2195121951219514
18_00_51_466,-1.0,8.0,8.0,-4.0,-2.0,0.0,-5.0,0.0,1.0263671875,0.0,0.1044921875,-5.060975609756098,0.9146341463414634,2.25609756097561
18_00_51_466,7.0,-3.0,-6.0,3.0,-2.0,-1.0,-3.0,0.0,1.513671875,0.12353515625,0.93408203125,-6.52439024390244,-0.1829268292682927,0.0
18_00_51_466,-4.0,4.0,7.0,0.0,3.0,2.0,-1.0,0.0,0.70703125,-0.15478515625,0.10986328125,2.378048780487805,-1.8902439024390245,-1.7682926829268295
18_00_51_466,0.0,-1.0,-11.0,10.0,-2.0,-3.0,3.0,2.0,0.50146484375,-0.18701171875,-0.44775390625,1.524390243902439,-2.5609756097560976,-1.8902439024390245
18_00_51_466,-2.0,3.0,4.0,3.0,-1.0,1.0,-5.0,-1.0,1.37353515625,0.09423828125,0.55810546875,-6.829268292682928,-1.9512195121951221,-0.30487804878048785
18_00_51_466,3.0,-1.0,-1.0,2.0,2.0,-3.0,5.0,-6.0,1.3291015625,0.03466796875,0.81787109375,-4.817073170731708,-3.353658536585366,-1.829268292682927
18_00_51_466,-5.0,-2.0,8.0,-2.0,-1.0,2.0,-1.0,-1.0,0.46533203125,-0.2216796875,-0.27001953125,1.1585365853658538,-4.634146341463415,-3.7195121951219514
18_00_51_466,-1.0,5.0,9.0,5.0,5.0,6.0,-1.0,-1.0,1.50732421875,0.154296875,0.85546875,-6.52439024390244,-4.146341463414634,-0.9756097560975611
18_00_51_517,-1.0,6.0,-6.0,-2.0,2.0,-2.0,-2.0,-3.0,0.6572265625,-0.12451171875,-0.291015625,-1.707317073170732,1.0975609756097562,2.5
18_00_51_517,4.0,-9.0,-7.0,2.0,0.0,0.0,1.0,-1.0,1.48583984375,0.13037109375,0.8095703125,-5.731707317073171,1.4634146341463417,3.048780487804878
18_00_51_517,-3.0,0.0,3.0,-5.0,-2.0,-5.0,-3.0,0.0,1.07421875,-0.05126953125,0.60302734375,0.06097560975609757,-0.06097560975609757,0.24390243902439027
18_00_51_517,2.0,-2.0,-8.0,-2.0,-1.0,-2.0,5.0,1.0,0.38916015625,-0.24658203125,-0.43896484375,2.5,-0.1829268292682927,-1.2195121951219514
18_00_51_517,0.0,-1.0,3.0,-1.0,0.0,1.0,-1.0,-1.0,1.0263671875,0.0,0.1044921875,-5.060975609756098,0.9146341463414634,2.25609756097561
18_00_51_517,4.0,-2.0,-15.0,6.0,-1.0,-1.0,-3.0,-1.0,1.513671875,0.12353515625,0.93408203125,-6.52439024390244,-0.1829268292682927,0.0
18_00_51_517,-6.0,-1.0,-1.0,1.0,-3.0,-4.0,-3.0,-1.0,0.70703125,-0.15478515625,0.10986328125,2.378048780487805,-1.8902439024390245,-1.7682926829268295
18_00_51_517,2.0,-3.0,-12.0,1.0,1.0,-4.0,0.0,-3.0,0.50146484375,-0.18701171875,-0.44775390625,1.524390243902439,-2.5609756097560976,-1.8902439024390245
18_00_51_517,-1.0,8.0,8.0,-4.0,-2.0,0.0,-5.0,0.0,1.37353515625,0.09423828125,0.55810546875,-6.829268292682928,-1.9512195121951221,-0.30487804878048785
18_00_51_517,7.0,-3.0,-6.0,3.0,-2.0,-1.0,-3.0,0.0,1.3291015625,0.03466796875,0.81787109375,-4.817073170731708,-3.353658536585366,-1.829268292682927
18_00_51_562,-6.0,19.0,2.0,-5.0,-8.0,-4.0,1.0,2.0,1.27587890625,0.0888671875,0.4482421875,-13.841463414634148,5.731707317073171,7.621951219512196
18_00_51_562,-2.0,-10.0,0.0,-8.0,-3.0,0.0,0.0,0.0,1.3974609375,0.11962890625,0.91357421875,-9.390243902439025,2.5609756097560976,6.646341463414635
18_00_51_562,-1.0,-21.0,-6.0,-1.0,0.0,-1.0,-3.0,1.0,0.5322265625,-0.1962890625,-0.142578125,0.30487804878048785,0.12195121951219513,2.3170731707317076
18_00_51_562,3.0,0.0,-4.0,14.0,3.0,-1.0,3.0,0.0,0.6572265625,-0.12451171875,-0.291015625,-1.707317073170732,1.0975609756097562,2.5
18_00_51_562,-4.0,3.0,1.0,2.0,0.0,-2.0,-3.0,-4.0,1.48583984375,0.13037109375,0.8095703125,-5.731707317073171,1.4634146341463417,3.048780487804878
18_00_51_562,4.0,-8.0,-12.0,-6.0,-4.0,1.0,5.0,0.0,1.07421875,-0.05126953125,0.60302734375,0.06097560975609757,-0.06097560975609757,0.24390243902439027
18_00_51_562,-6.0,-1.0,3.0,-1.0,-2.0,-5.0,-3.0,0.0,0.38916015625,-0.24658203125,-0.43896484375,2.5,-0.1829268292682927,-1.2195121951219514
18_00_51_562,3.0,-1.0,-6.0,-4.0,0.0,-5.0,1.0,-1.0,1.0263671875,0.0,0.1044921875,-5.060975609756098,0.9146341463414634,2.25609756097561
18_00_51_562,-4.0,-8.0,-1.0,-2.0,-2.0,1.0,-1.0,-1.0,1.513671875,0.12353515625,0.93408203125,-6.52439024390244,-0.1829268292682927,0.0
18_00_51_562,0.0,-5.0,-13.0,9.0,-5.0,-4.0,0.0,-1.0,0.70703125,-0.15478515625,0.10986328125,2.378048780487805,-1.8902439024390245,-1.7682926829268295
18_00_51_612,-7.0,-5.0,5.0,0.0,14.0,1.0,3.0,0.0,1.5263671875,0.18359375,1.01123046875,-18.597560975609756,11.951219512195124,11.707317073170733
18_00_51_612,8.0,18.0,0.0,-15.0,-2.0,0.0,4.0,1.0,0.85986328125,-0.06494140625,0.4267578125,-4.634146341463415,6.890243902439025,6.341463414634147
18_00_51_612,-1.0,2.0,-7.0,18.0,-7.0,-1.0,-3.0,0.0,0.4267578125,-0.2001953125,-0.4228515625,-5.182926829268293,5.731707317073171,5.975609756097562
18_00_51_612,-6.0,-23.0,-16.0,-3.0,-5.0,-4.0,6.0,-6.0,1.27587890625,0.0888671875,0.4482421875,-13.841463414634148,5.731707317073171,7.621951219512196
18_00_51_612,3.0,20.0,-2.0,-3.0,8.0,-4.0,-7.0,-1.0,1.3974609375,0.11962890625,0.91357421875,-9.390243902439025,2.5609756097560976,6.646341463414635
18_00_51_612,5.0,-3.0,4.0,-2.0,6.0,2.0,-1.0,3.0,0.5322265625,-0.1962890625,-0.142578125,0.30487804878048785,0.12195121951219513,2.3170731707317076
18_00_51_612,1.0,3.0,9.0,1.0,-7.0,0.0,-2.0,2.0,0.6572265625,-0.12451171875,-0.291015625,-1.707317073170732,1.0975609756097562,2.5
18_00_51_612,3.0,-1.0,-3.0,4.0,-8.0,-7.0,2.0,1.0,1.48583984375,0.13037109375,0.8095703125,-5.731707317073171,1.4634146341463417,3.048780487804878
18_00_51_612,-4.0,-9.0,-4.0,-15.0,2.0,0.0,-1.0,0.0,1.07421875,-0.05126953125,0.60302734375,0.06097560975609757,-0.06097560975609757,0.24390243902439027
18_00_51_612,10.0,-28.0,-10.0,12.0,2.0,-2.0,1.0,-3.0,0.38916015625,-0.24658203125,-0.43896484375,2.5,-0.1829268292682927,-1.2195121951219514
18_00_51_680,-7.0,-5.0,-2.0,-3.0,-2.0,-5.0,2.0,-2.0,1.5263671875,0.18359375,1.01123046875,-18.597560975609756,11.951219512195124,11.707317073170733
18_00_51_680,4.0,-6.0,-7.0,-6.0,-2.0,2.0,-2.0,-1.0,0.85986328125,-0.06494140625,0.4267578125,-4.634146341463415,6.890243902439025,6.341463414634147
18_00_51_680,-7.0,-5.0,5.0,0.0,14.0,1.0,3.0,0.0,0.4267578125,-0.2001953125,-0.4228515625,-5.182926829268293,5.731707317073171,5.975609756097562
18_00_51_680,8.0,18.0,0.0,-15.0,-2.0,0.0,4.0,1.0,1.27587890625,0.0888671875,0.4482421875,-13.841463414634148,5.731707317073171,7.621951219512196
18_00_51_680,-1.0,2.0,-7.0,18.0,-7.0,-1.0,-3.0,0.0,1.3974609375,0.11962890625,0.91357421875,-9.390243902439025,2.5609756097560976,6.646341463414635
18_00_51_680,-6.0,-23.0,-16.0,-3.0,-5.0,-4.0,6.0,-6.0,0.5322265625,-0.1962890625,-0.142578125,0.30487804878048785,0.12195121951219513,2.3170731707317076
18_00_51_680,3.0,20.0,-2.0,-3.0,8.0,-4.0,-7.0,-1.0,0.6572265625,-0.12451171875,-0.291015625,-1.707317073170732,1.0975609756097562,2.5
18_00_51_680,5.0,-3.0,4.0,-2.0,6.0,2.0,-1.0,3.0,1.48583984375,0.13037109375,0.8095703125,-5.731707317073171,1.4634146341463417,3.048780487804878
18_00_51_680,1.0,3.0,9.0,1.0,-7.0,0.0,-2.0,2.0,1.07421875,-0.05126953125,0.60302734375,0.06097560975609757,-0.06097560975609757,0.24390243902439027
18_00_51_680,3.0,-1.0,-3.0,4.0,-8.0,-7.0,2.0,1.0,0.38916015625,-0.24658203125,-0.43896484375,2.5,-0.1829268292682927,-1.2195121951219514
18_00_51_717,-4.0,-1.0,2.0,-3.0,-6.0,0.0,0.0,-2.0,0.8974609375,-0.08154296875,0.4873046875,-20.30487804878049,35.0,15.853658536585368
18_00_51_717,3.0,3.0,-1.0,3.0,7.0,2.0,0.0,3.0,0.9072265625,-0.0224609375,0.36865234375,-22.5609756097561,26.58536585365854,17.073170731707318
18_00_51_717,6.0,-2.0,3.0,1.0,-4.0,-3.0,-2.0,1.0,1.41162109375,0.14306640625,0.759765625,-25.670731707317074,24.878048780487806,16.402439024390244
18_00_51_717,-2.0,-7.0,-4.0,-12.0,-2.0,-3.0,0.0,-2.0,0.427734375,-0.1455078125,-0.06201171875,-17.195121951219512,18.231707317073173,14.207317073170733
18_00_51_717,6.0,4.0,-10.0,3.0,1.0,0.0,-5.0,-1.0,0.76123046875,-0.02392578125,-0.0166015625,-17.804878048780488,15.121951219512196,14.02439024390244
18_00_51_717,-9.0,7.0,1.0,-11.0,-8.0,-1.0,-3.0,0.0,1.5263671875,0.18359375,1.01123046875,-18.597560975609756,11.951219512195124,11.707317073170733
18_00_51_717,3.0,3.0,-1.0,8.0,1.0,2.0,2.0,1.0,0.85986328125,-0.06494140625,0.4267578125,-4.634146341463415,6.890243902439025,6.341463414634147
18_00_51_717,-2.0,-6.0,-5.0,-6.0,0.0,-8.0,-2.0,-4.0,0.4267578125,-0.2001953125,-0.4228515625,-5.182926829268293,5.731707317073171,5.975609756097562
18_00_51_717,-2.0,-2.0,0.0,2.0,-10.0,3.0,-4.0,-1.0,1.27587890625,0.0888671875,0.4482421875,-13.841463414634148,5.731707317073171,7.621951219512196
18_00_51_717,3.0,-2.0,8.0,-8.0,-6.0,-1.0,-1.0,-2.0,1.3974609375,0.11962890625,0.91357421875,-9.390243902439025,2.5609756097560976,6.646341463414635
18_00_51_772,-1.0,1.0,-1.0,-5.0,4.0,2.0,0.0,-1.0,0.86572265625,-0.1259765625,0.48046875,-10.0,34.451219512195124,17.134146341463417
18_00_51_772,1.0,-7.0,5.0,16.0,5.0,-2.0,-4.0,0.0,0.8974609375,-0.08154296875,0.4873046875,-20.30487804878049,35.0,15.853658536585368
18_00_51_772,-2.0,-3.0,-2.0,-7.0,-5.0,-4.0,4.0,2.0,0.9072265625,-0.0224609375,0.36865234375,-22.5609756097561,26.58536585365854,17.073170731707318
18_00_51_772,-1.0,-5.0,-4.0,-3.0,7.0,0.0,-5.0,-4.0,1.41162109375,0.14306640625,0.759765625,-25.670731707317074,24.878048780487806,16.402439024390244
18_00_51_772,0.0,-7.0,4.0,4.0,2.0,-1.0,-2.0,-5.0,0.427734375,-0.1455078125,-0.06201171875,-17.195121951219512,18.231707317073173,14.207317073170733
18_00_51_772,-3.0,6.0,-4.0,-3.0,-2.0,0.0,-1.0,-1.0,0.76123046875,-0.02392578125,-0.0166015625,-17.804878048780488,15.121951219512196,14.02439024390244
18_00_51_772,-4.0,-1.0,2.0,-3.0,-6.0,0.0,0.0,-2.0,1.5263671875,0.18359375,1.01123046875,-18.597560975609756,11.951219512195124,11.707317073170733
18_00_51_772,3.0,3.0,-1.0,3.0,7.0,2.0,0.0,3.0,0.85986328125,-0.06494140625,0.4267578125,-4.634146341463415,6.890243902439025,6.341463414634147
18_00_51_772,6.0,-2.0,3.0,1.0,-4.0,-3.0,-2.0,1.0,0.4267578125,-0.2001953125,-0.4228515625,-5.182926829268293,5.731707317073171,5.975609756097562
18_00_51_772,-2.0,-7.0,-4.0,-12.0,-2.0,-3.0,0.0,-2.0,1.27587890625,0.0888671875,0.4482421875,-13.841463414634148,5.731707317073171,7.621951219512196
18_00_51_817,6.0,1.0,8.0,17.0,1.0,-1.0,0.0,-7.0,0.8330078125,-0.09033203125,0.46875,4.207317073170732,37.31707317073171,19.146341463414636
18_00_51_817,-6.0,1.0,-4.0,0.0,0.0,-1.0,-2.0,-1.0,0.83447265625,-0.10302734375,0.4736328125,5.731707317073171,35.54878048780488,18.475609756097562
18_00_51_817,-2.0,-2.0,1.0,1.0,-8.0,3.0,3.0,-2.0,0.84423828125,-0.12646484375,0.47802734375,0.9146341463414634,35.1829268292683,17.621951219512198
18_00_51_817,-5.0,2.0,1.0,-8.0,13.0,-5.0,-2.0,-1.0,0.86572265625,-0.1259765625,0.48046875,-10.0,34.451219512195124,17.134146341463417
18_00_51_817,4.0,-10.0,-5.0,6.0,-9.0,-2.0,2.0,-2.0,0.8974609375,-0.08154296875,0.4873046875,-20.30487804878049,35.0,15.853658536585368
18_00_51_817,-7.0,-1.0,-3.0,-4.0,-1.0,-3.0,2.0,-2.0,0.9072265625,-0.0224609375,0.36865234375,-22.5609756097561,26.58536585365854,17.073170731707318
18_00_51_817,-2.0,-1.0,3.0,-2.0,-5.0,-1.0,-3.0,0.0,1.41162109375,0.14306640625,0.759765625,-25.670731707317074,24.878048780487806,16.402439024390244
18_00_51_817,3.0,-2.0,-3.0,4.0,15.0,-2.0,-2.0,-4.0,0.427734375,-0.1455078125,-0.06201171875,-17.195121951219512,18.231707317073173,14.207317073170733
18_00_51_817,-7.0,-1.0,-2.0,-5.0,-15.0,1.0,1.0,1.0,0.76123046875,-0.02392578125,-0.0166015625,-17.804878048780488,15.121951219512196,14.02439024390244
18_00_51_817,-1.0,3.0,-3.0,0.0,0.0,0.0,-4.0,1.0,1.5263671875,0.18359375,1.01123046875,-18.597560975609756,11.951219512195124,11.707317073170733
18_00_51_874,-1.0,0.0,4.0,2.0,2.0,-5.0,0.0,-1.0,0.84619140625,-0.18798828125,0.4443359375,16.70731707317073,43.90243902439025,22.743902439024392
18_00_51_874,-2.0,3.0,3.0,2.0,-2.0,-4.0,-3.0,-1.0,0.81787109375,-0.1376953125,0.4482421875,10.060975609756099,39.87804878048781,21.585365853658537
18_00_51_874,-4.0,0.0,-3.0,-3.0,0.0,-2.0,0.0,1.0,0.8212890625,-0.11474609375,0.45361328125,5.487804878048781,39.51219512195122,20.365853658536587
18_00_51_874,-4.0,-1.0,-5.0,-3.0,-4.0,-3.0,0.0,-4.0,0.8330078125,-0.09033203125,0.46875,4.207317073170732,37.31707317073171,19.146341463414636
18_00_51_874,0.0,0.0,-3.0,-3.0,-4.0,-3.0,-3.0,0.0,0.83447265625,-0.10302734375,0.4736328125,5.731707317073171,35.54878048780488,18.475609756097562
18_00_51_874,1.0,-4.0,2.0,-1.0,3.0,0.0,0.0,-2.0,0.84423828125,-0.12646484375,0.47802734375,0.9146341463414634,35.1829268292683,17.621951219512198
18_00_51_874,0.0,-1.0,-2.0,-6.0,-2.0,-4.0,2.0,-1.0,0.86572265625,-0.1259765625,0.48046875,-10.0,34.451219512195124,17.134146341463417
18_00_51_874,0.0,-1.0,-4.0,6.0,0.0,-1.0,-1.0,-4.0,0.8974609375,-0.08154296875,0.4873046875,-20.30487804878049,35.0,15.853658536585368
18_00_51_874,5.0,1.0,0.0,-4.0,-1.0,-1.0,2.0,0.0,0.9072265625,-0.0224609375,0.36865234375,-22.5609756097561,26.58536585365854,17.073170731707318
18_00_51_874,-12.0,-27.0,-4.0,-6.0,-9.0,0.0,-4.0,-1.0,1.41162109375,0.14306640625,0.759765625,-25.670731707317074,24.878048780487806,16.402439024390244
18_00_51_927,-3.0,-1.0,0.0,1.0,-7.0,-4.0,-1.0,-3.0,0.884765625,-0.2236328125,0.474609375,27.439024390243905,44.69512195121952,23.902439024390247
18_00_51_927,3.0,4.0,-3.0,3.0,2.0,1.0,0.0,-1.0,0.85791015625,-0.21826171875,0.46435546875,22.98780487804878,45.426829268292686,24.573170731707318
18_00_51_927,-2.0,-3.0,7.0,0.0,7.0,2.0,-2.0,-2.0,0.84619140625,-0.18798828125,0.4443359375,16.70731707317073,43.90243902439025,22.743902439024392
18_00_51_927,2.0,1.0,-1.0,0.0,4.0,-2.0,-1.0,-3.0,0.81787109375,-0.1376953125,0.4482421875,10.060975609756099,39.87804878048781,21.585365853658537
18_00_51_927,2.0,-1.0,4.0,1.0,-1.0,2.0,1.0,-5.0,0.8212890625,-0.11474609375,0.45361328125,5.487804878048781,39.51219512195122,20.365853658536587
18_00_51_927,0.0,-6.0,2.0,-7.0,-1.0,1.0,0.0,-1.0,0.8330078125,-0.09033203125,0.46875,4.207317073170732,37.31707317073171,19.146341463414636
18_00_51_927,-1.0,0.0,4.0,2.0,2.0,-5.0,0.0,-1.0,0.83447265625,-0.10302734375,0.4736328125,5.731707317073171,35.54878048780488,18.475609756097562
18_00_51_927,-2.0,3.0,3.0,2.0,-2.0,-4.0,-3.0,-1.0,0.84423828125,-0.12646484375,0.47802734375,0.9146341463414634,35.1829268292683,17.621951219512198
18_00_51_927,-4.0,0.0,-3.0,-3.0,0.0,-2.0,0.0,1.0,0.86572265625,-0.1259765625,0.48046875,-10.0,34.451219512195124,17.134146341463417
18_00_51_927,-4.0,-1.0,-5.0,-3.0,-4.0,-3.0,0.0,-4.0,0.8974609375,-0.08154296875,0.4873046875,-20.30487804878049,35.0,15.853658536585368
18_00_51_975,-3.0,-3.0,0.0,1.0,34.0,1.0,0.0,-4.0,0.9189453125,-0.240234375,0.4609375,23.963414634146343,37.926829268292686,22.31707317073171
18_00_51_975,-1.0,-3.0,-7.0,8.0,-28.0,-5.0,0.0,-1.0,0.912109375,-0.22119140625,0.48193359375,27.31707317073171,41.890243902439025,23.78048780487805
18_00_51_975,4.0,-4.0,-4.0,-8.0,-5.0,-2.0,-1.0,1.0,0.884765625,-0.2236328125,0.474609375,27.439024390243905,44.69512195121952,23.902439024390247
18_00_51_975,1.0,1.0,2.0,-2.0,1.0,0.0,-5.0,0.0,0.85791015625,-0.21826171875,0.46435546875,22.98780487804878,45.426829268292686,24.573170731707318
18_00_51_975,-2.0,2.0,-1.0,-6.0,-3.0,2.0,3.0,-3.0,0.84619140625,-0.18798828125,0.4443359375,16.70731707317073,43.90243902439025,22.743902439024392
18_00_51_975,-2.0,4.0,1.0,1.0,-2.0,-3.0,-2.0,2.0,0.81787109375,-0.1376953125,0.4482421875,10.060975609756099,39.87804878048781,21.585365853658537
18_00_51_975,-1.0,-3.0,-1.0,-1.0,1.0,1.0,2.0,-3.0,0.8212890625,-0.11474609375,0.45361328125,5.487804878048781,39.51219512195122,20.365853658536587
18_00_51_975,3.0,6.0,-5.0,1.0,-1.0,1.0,0.0,-1.0,0.8330078125,-0.09033203125,0.46875,4.207317073170732,37.31707317073171,19.146341463414636
18_00_51_975,-3.0,-1.0,0.0,1.0,-7.0,-4.0,-1.0,-3.0,0.83447265625,-0.10302734375,0.4736328125,5.731707317073171,35.54878048780488,18.475609756097562
18_00_51_975,3.0,4.0,-3.0,3.0,2.0,1.0,0.0,-1.0,0.84423828125,-0.12646484375,0.47802734375,0.9146341463414634,35.1829268292683,17.621951219512198
18_00_52_026,-1.0,0.0,9.0,-4.0,0.0,2.0,-6.0,-6.0,0.85791015625,-0.20751953125,0.42724609375,16.28048780487805,31.219512195121954,21.402439024390247
18_00_52_026,0.0,-3.0,-29.0,-2.0,0.0,-3.0,-3.0,0.0,0.8701171875,-0.2041015625,0.45068359375,20.30487804878049,33.71951219512196,21.585365853658537
18_00_52_026,-4.0,1.0,12.0,2.0,-3.0,-1.0,2.0,0.0,0.9189453125,-0.240234375,0.4609375,23.963414634146343,37.926829268292686,22.31707317073171
18_00_52_026,2.0,-1.0,-9.0,0.0,-1.0,-1.0,-1.0,1.0,0.912109375,-0.22119140625,0.48193359375,27.31707317073171,41.890243902439025,23.78048780487805
18_00_52_026,1.0,3.0,5.0,0.0,1.0,0.0,-1.0,-3.0,0.884765625,-0.2236328125,0.474609375,27.439024390243905,44.69512195121952,23.902439024390247
18_00_52_026,-2.0,-20.0,2.0,-3.0,0.0,1.0,-3.0,0.0,0.85791015625,-0.21826171875,0.46435546875,22.98780487804878,45.426829268292686,24.573170731707318
18_00_52_026,2.0,0.0,7.0,-1.0,0.0,0.0,-1.0,-1.0,0.84619140625,-0.18798828125,0.4443359375,16.70731707317073,43.90243902439025,22.743902439024392
18_00_52_026,-2.0,0.0,-9.0,-3.0,1.0,-2.0,2.0,-3.0,0.81787109375,-0.1376953125,0.4482421875,10.060975609756099,39.87804878048781,21.585365853658537
18_00_52_026,0.0,0.0,2.0,-2.0,-12.0,0.0,-5.0,-4.0,0.8212890625,-0.11474609375,0.45361328125,5.487804878048781,39.51219512195122,20.365853658536587
18_00_52_026,5.0,-3.0,4.0,-3.0,-9.0,2.0,-1.0,1.0,0.8330078125,-0.09033203125,0.46875,4.207317073170732,37.31707317073171,19.146341463414636
18_00_52_078,0.0,-1.0,2.0,3.0,-1.0,-1.0,0.0,-4.0,0.833984375,-0.27392578125,0.431640625,26.58536585365854,27.621951219512198,18.597560975609756
18_00_52_078,-8.0,-2.0,-2.0,0.0,-2.0,-3.0,-1.0,-1.0,0.828125,-0.28466796875,0.43505859375,20.30487804878049,30.000000000000004,19.32926829268293
18_00_52_078,6.0,-2.0,9.0,-3.0,-2.0,-3.0,-3.0,-1.0,0.83837890625,-0.25146484375,0.42724609375,14.634146341463415,31.09756097560976,20.426829268292686
18_00_52_078,1.0,2.0,-5.0,-2.0,-1.0,0.0,4.0,0.0,0.85791015625,-0.20751953125,0.42724609375,16.28048780487805,31.219512195121954,21.402439024390247
18_00_52_078,-1.0,0.0,5.0,4.0,0.0,2.0,-2.0,-1.0,0.8701171875,-0.2041015625,0.45068359375,20.30487804878049,33.71951219512196,21.585365853658537
18_00_52_078,-4.0,3.0,3.0,2.0,0.0,-2.0,-1.0,2.0,0.9189453125,-0.240234375,0.4609375,23.963414634146343,37.926829268292686,22.31707317073171
18_00_52_078,2.0,-4.0,1.0,-1.0,-2.0,-2.0,2.0,-3.0,0.912109375,-0.22119140625,0.48193359375,27.31707317073171,41.890243902439025,23.78048780487805
18_00_52_078,-1.0,3.0,-12.0,-4.0,-1.0,2.0,1.0,3.0,0.884765625,-0.2236328125,0.474609375,27.439024390243905,44.69512195121952,23.902439024390247
18_00_52_078,1.0,1.0,5.0,-5.0,0.0,-3.0,-5.0,1.0,0.85791015625,-0.21826171875,0.46435546875,22.98780487804878,45.426829268292686,24.573170731707318
18_00_52_078,-5.0,-2.0,-1.0,-1.0,0.0,2.0,-2.0,-2.0,0.84619140625,-0.18798828125,0.4443359375,16.70731707317073,43.90243902439025,22.743902439024392
18_00_52_130,-4.0,-3.0,0.0,4.0,-3.0,-3.0,-1.0,-3.0,0.845703125,-0.26611328125,0.44580078125,30.000000000000004,22.25609756097561,17.134146341463417
18_00_52_130,-1.0,-2.0,-9.0,-4.0,-2.0,-2.0,-1.0,1.0,0.83447265625,-0.27099609375,0.44384765625,27.926829268292686,25.792682926829272,17.134146341463417
18_00_52_130,1.0,0.0,-8.0,3.0,-3.0,-1.0,2.0,2.0,0.833984375,-0.27392578125,0.431640625,26.58536585365854,27.621951219512198,18.597560975609756
18_00_52_130,-3.0,1.0,10.0,-3.0,0.0,2.0,-2.0,-1.0,0.828125,-0.28466796875,0.43505859375,20.30487804878049,30.000000000000004,19.32926829268293
18_00_52_130,0.0,20.0,17.0,-5.0,-1.0,1.0,-3.0,-3.0,0.83837890625,-0.25146484375,0.42724609375,14.634146341463415,31.09756097560976,20.426829268292686
18_00_52_130,-3.0,-4.0,-23.0,3.0,-4.0,-3.0,-4.0,1.0,0.85791015625,-0.20751953125,0.42724609375,16.28048780487805,31.219512195121954,21.402439024390247
18_00_52_130,1.0,-9.0,19.0,1.0,-5.0,-5.0,-2.0,0.0,0.8701171875,-0.2041015625,0.45068359375,20.30487804878049,33.71951219512196,21.585365853658537
18_00_52_130,-5.0,0.0,2.0,-2.0,-5.0,-3.0,0.0,-1.0,0.9189453125,-0.240234375,0.4609375,23.963414634146343,37.926829268292686,22.31707317073171
18_00_52_130,0.0,-1.0,3.0,0.0,-1.0,-1.0,-2.0,-3.0,0.912109375,-0.22119140625,0.48193359375,27.31707317073171,41.890243902439025,23.78048780487805
18_00_52_130,1.0,-6.0,-5.0,-1.0,0.0,2.0,-1.0,-5.0,0.884765625,-0.2236328125,0.474609375,27.439024390243905,44.69512195121952,23.902439024390247
18_00_52_180,2.0,-7.0,-13.0,0.0,-3.0,-2.0,0.0,3.0,0.82177734375,-0.2529296875,0.44775390625,25.792682926829272,14.756097560975611,15.30487804878049
18_00_52_180,-2.0,-1.0,2.0,0.0,-1.0,2.0,0.0,0.0,0.841796875,-0.263671875,0.443359375,29.512195121951223,17.926829268292686,15.79268292682927
18_00_52_180,4.0,2.0,-10.0,-1.0,1.0,4.0,-4.0,-5.0,0.845703125,-0.26611328125,0.44580078125,30.000000000000004,22.25609756097561,17.134146341463417
18_00_52_180,-3.0,-3.0,15.0,3.0,-4.0,-8.0,4.0,2.0,0.83447265625,-0.27099609375,0.44384765625,27.926829268292686,25.792682926829272,17.134146341463417
18_00_52_180,-1.0,9.0,9.0,-7.0,-5.0,-2.0,-4.0,-3.0,0.833984375,-0.27392578125,0.431640625,26.58536585365854,27.621951219512198,18.597560975609756
18_00_52_180,0.0,-4.0,-31.0,-3.0,-4.0,-1.0,-1.0,0.0,0.828125,-0.28466796875,0.43505859375,20.30487804878049,30.000000000000004,19.32926829268293
18_00_52_180,-4.0,-3.0,0.0,4.0,-3.0,-3.0,-1.0,-3.0,0.83837890625,-0.25146484375,0.42724609375,14.634146341463415,31.09756097560976,20.426829268292686
18_00_52_180,-1.0,-2.0,-9.0,-4.0,-2.0,-2.0,-1.0,1.0,0.85791015625,-0.20751953125,0.42724609375,16.28048780487805,31.219512195121954,21.402439024390247
18_00_52_180,1.0,0.0,-8.0,3.0,-3.0,-1.0,2.0,2.0,0.8701171875,-0.2041015625,0.45068359375,20.30487804878049,33.71951219512196,21.585365853658537
18_00_52_180,-3.0,1.0,10.0,-3.0,0.0,2.0,-2.0,-1.0,0.9189453125,-0.240234375,0.4609375,23.963414634146343,37.926829268292686,22.31707317073171
18_00_52_226,-1.0,1.0,-12.0,-4.0,0.0,-1.0,1.0,2.0,0.82177734375,-0.2529296875,0.44775390625,25.792682926829272,14.756097560975611,15.30487804878049
18_00_52_226,1.0,1.0,5.0,0.0,1.0,3.0,-3.0,-3.0,0.841796875,-0.263671875,0.443359375,29.512195121951223,17.926829268292686,15.79268292682927
18_00_52_226,-1.0,-9.0,-11.0,0.0,0.0,-1.0,-3.0,1.0,0.845703125,-0.26611328125,0.44580078125,30.000000000000004,22.25609756097561,17.134146341463417
18_00_52_226,-1.0,-3.0,-4.0,1.0,-5.0,-4.0,3.0,1.0,0.83447265625,-0.27099609375,0.44384765625,27.926829268292686,25.792682926829272,17.134146341463417
18_00_52_226,3.0,0.0,-8.0,-6.0,2.0,5.0,-2.0,-1.0,0.833984375,-0.27392578125,0.431640625,26.58536585365854,27.621951219512198,18.597560975609756
18_00_52_226,-1.0,4.0,3.0,1.0,0.0,-4.0,-5.0,-2.0,0.828125,-0.28466796875,0.43505859375,20.30487804878049,30.000000000000004,19.32926829268293
18_00_52_226,3.0,0.0,-6.0,0.0,-4.0,-2.0,2.0,-2.0,0.83837890625,-0.25146484375,0.42724609375,14.634146341463415,31.09756097560976,20.426829268292686
18_00_52_226,-4.0,-6.0,-5.0,-4.0,1.0,9.0,5.0,-2.0,0.85791015625,-0.20751953125,0.42724609375,16.28048780487805,31.219512195121954,21.402439024390247
18_00_52_283,0.0,0.0,-1.0,-3.0,-10.0,38.0,0.0,0.0,0.7685546875,-0.21533203125,0.52685546875,23.04878048780488,-8.048780487804878,2.6219512195121952
18_00_52_283,-2.0,1.0,12.0,-3.0,1.0,1.0,-1.0,-2.0,0.75341796875,-0.19970703125,0.4794921875,20.79268292682927,-2.7439024390243905,4.390243902439025
18_00_52_283,2.0,-6.0,-13.0,-1.0,-4.0,-10.0,-1.0,2.0,0.763671875,-0.203125,0.4560546875,21.646341463414636,0.6097560975609757,4.451219512195122
18_00_52_283,2.0,3.0,-1.0,-1.0,3.0,10.0,7.0,-1.0,0.75634765625,-0.19970703125,0.46435546875,26.463414634146343,2.378048780487805,6.158536585365854
18_00_52_283,-2.0,1.0,0.0,-2.0,0.0,5.0,-2.0,-2.0,0.7607421875,-0.2001953125,0.45166015625,27.865853658536587,5.426829268292684,8.353658536585366
18_00_52_283,-2.0,-1.0,-1.0,-1.0,1.0,-7.0,-5.0,1.0,0.78076171875,-0.240234375,0.439453125,27.012195121951223,8.292682926829269,13.475609756097562
18_00_52_283,0.0,2.0,-1.0,-6.0,-5.0,1.0,0.0,2.0,0.8125,-0.2626953125,0.43994140625,26.09756097560976,11.158536585365855,14.817073170731708
18_00_52_283,1.0,-3.0,-3.0,1.0,1.0,1.0,-2.0,-1.0,0.82177734375,-0.2529296875,0.44775390625,25.792682926829272,14.756097560975611,15.30487804878049
18_00_52_283,3.0,6.0,-5.0,-1.0,-3.0,-6.0,-1.0,-2.0,0.841796875,-0.263671875,0.443359375,29.512195121951223,17.926829268292686,15.79268292682927
18_00_52_283,-2.0,0.0,0.0,1.0,5.0,2.0,-4.0,-3.0,0.845703125,-0.26611328125,0.44580078125,30.000000000000004,22.25609756097561,17.134146341463417
18_00_52_345,2.0,-3.0,-4.0,-4.0,-1.0,-4.0,-3.0,0.0,0.7685546875,-0.21533203125,0.52685546875,23.04878048780488,-8.048780487804878,2.6219512195121952
18_00_52_345,0.0,-5.0,2.0,2.0,1.0,-1.0,3.0,-2.0,0.75341796875,-0.19970703125,0.4794921875,20.79268292682927,-2.7439024390243905,4.390243902439025
18_00_52_345,0.0,0.0,-1.0,-3.0,-10.0,38.0,0.0,0.0,0.763671875,-0.203125,0.4560546875,21.646341463414636,0.6097560975609757,4.451219512195122
18_00_52_345,-2.0,1.0,12.0,-3.0,1.0,1.0,-1.0,-2.0,0.75634765625,-0.19970703125,0.46435546875,26.463414634146343,2.378048780487805,6.158536585365854
18_00_52_345,2.0,-6.0,-13.0,-1.0,-4.0,-10.0,-1.0,2.0,0.7607421875,-0.2001953125,0.45166015625,27.865853658536587,5.426829268292684,8.353658536585366
18_00_52_345,2.0,3.0,-1.0,-1.0,3.0,10.0,7.0,-1.0,0.78076171875,-0.240234375,0.439453125,27.012195121951223,8.292682926829269,13.475609756097562
18_00_52_345,-2.0,1.0,0.0,-2.0,0.0,5.0,-2.0,-2.0,0.8125,-0.2626953125,0.43994140625,26.09756097560976,11.158536585365855,14.817073170731708
18_00_52_345,-2.0,-1.0,-1.0,-1.0,1.0,-7.0,-5.0,1.0,0.82177734375,-0.2529296875,0.44775390625,25.792682926829272,14.756097560975611,15.30487804878049
18_00_52_345,0.0,2.0,-1.0,-6.0,-5.0,1.0,0.0,2.0,0.841796875,-0.263671875,0.443359375,29.512195121951223,17.926829268292686,15.79268292682927
18_00_52_345,1.0,-3.0,-3.0,1.0,1.0,1.0,-2.0,-1.0,0.845703125,-0.26611328125,0.44580078125,30.000000000000004,22.25609756097561,17.134146341463417
18_00_52_397,1.0,-4.0,-9.0,-2.0,-1.0,-2.0,1.0,-2.0,0.81103515625,-0.11328125,0.49365234375,0.7317073170731708,-15.000000000000002,-13.109756097560977
18_00_52_397,-6.0,6.0,-4.0,-1.0,-3.0,-3.0,0.0,-6.0,0.83251953125,-0.11962890625,0.49951171875,25.670731707317074,-14.02439024390244,-14.26829268292683
18_00_52_397,2.0,-3.0,-6.0,-4.0,1.0,-1.0,3.0,3.0,0.79541015625,-0.1796875,0.50927734375,30.182926829268297,-12.80487804878049,-4.024390243902439
18_00_52_397,-3.0,-7.0,4.0,5.0,-3.0,0.0,-3.0,1.0,0.7685546875,-0.21533203125,0.52685546875,23.04878048780488,-8.048780487804878,2.6219512195121952
18_00_52_397,-4.0,-1.0,-2.0,-4.0,-5.0,2.0,-1.0,-1.0,0.75341796875,-0.19970703125,0.4794921875,20.79268292682927,-2.7439024390243905,4.390243902439025
18_00_52_397,1.0,-1.0,8.0,11.0,2.0,1.0,0.0,1.0,0.763671875,-0.203125,0.4560546875,21.646341463414636,0.6097560975609757,4.451219512195122
18_00_52_397,3.0,2.0,-1.0,-2.0,0.0,-3.0,0.0,0.0,0.75634765625,-0.19970703125,0.46435546875,26.463414634146343,2.378048780487805,6.158536585365854
18_00_52_397,-3.0,1.0,-2.0,0.0,-2.0,-2.0,0.0,1.0,0.7607421875,-0.2001953125,0.45166015625,27.865853658536587,5.426829268292684,8.353658536585366
18_00_52_397,-2.0,-3.0,0.0,-1.0,0.0,-2.0,0.0,0.0,0.78076171875,-0.240234375,0.439453125,27.012195121951223,8.292682926829269,13.475609756097562
18_00_52_440,2.0,-2.0,2.0,0.0,-2.0,-2.0,2.0,0.0,0.9189453125,-0.1650390625,0.47314453125,-0.5487804878048781,-13.841463414634148,-18.10975609756098
18_00_52_440,-4.0,-6.0,-5.0,1.0,2.0,-3.0,0.0,-4.0,0.8818359375,-0.1826171875,0.4912109375,-4.51219512195122,-14.817073170731708,-15.487804878048783
18_00_52_440,-3.0,2.0,-1.0,2.0,2.0,2.0,-2.0,-1.0,0.87548828125,-0.16650390625,0.45947265625,-2.9268292682926833,-15.30487804878049,-14.085365853658537
18_00_52_440,-3.0,-1.0,-2.0,-4.0,2.0,-4.0,1.0,2.0,0.81103515625,-0.11328125,0.49365234375,0.7317073170731708,-15.000000000000002,-13.109756097560977
18_00_52_440,-1.0,-2.0,2.0,2.0,-1.0,-3.0,-2.0,-1.0,0.83251953125,-0.11962890625,0.49951171875,25.670731707317074,-14.02439024390244,-14.26829268292683
18_00_52_440,5.0,-4.0,1.0,-1.0,-5.0,-3.0,2.0,3.0,0.79541015625,-0.1796875,0.50927734375,30.182926829268297,-12.80487804878049,-4.024390243902439
18_00_52_440,-6.0,-3.0,3.0,0.0,2.0,1.0,0.0,4.0,0.7685546875,-0.21533203125,0.52685546875,23.04878048780488,-8.048780487804878,2.6219512195121952
18_00_52_440,1.0,-4.0,-9.0,-2.0,-1.0,-2.0,1.0,-2.0,0.75341796875,-0.19970703125,0.4794921875,20.79268292682927,-2.7439024390243905,4.390243902439025
18_00_52_440,-6.0,6.0,-4.0,-1.0,-3.0,-3.0,0.0,-6.0,0.763671875,-0.203125,0.4560546875,21.646341463414636,0.6097560975609757,4.451219512195122
18_00_52_440,2.0,-3.0,-6.0,-4.0,1.0,-1.0,3.0,3.0,0.75634765625,-0.19970703125,0.46435546875,26.463414634146343,2.378048780487805,6.158536585365854
18_00_52_496,2.0,-1.0,0.0,4.0,-4.0,0.0,-1.0,0.0,0.73681640625,0.0322265625,0.44970703125,-23.658536585365855,-19.085365853658537,-17.682926829268293
18_00_52_496,5.0,-3.0,-1.0,-2.0,-1.0,2.0,-4.0,-3.0,0.75830078125,0.05859375,0.439453125,-11.097560975609756,-17.378048780487806,-15.426829268292684
18_00_52_496,-4.0,2.0,-3.0,2.0,1.0,-4.0,0.0,3.0,0.82958984375,-0.00146484375,0.42333984375,3.780487804878049,-17.195121951219512,-16.951219512195124
18_00_52_496,2.0,-2.0,2.0,2.0,-1.0,-9.0,-6.0,-1.0,0.85595703125,-0.109375,0.458984375,8.78048780487805,-15.060975609756099,-16.951219512195124
18_00_52_496,-2.0,-6.0,-5.0,-7.0,-1.0,2.0,-4.0,-2.0,0.9189453125,-0.1650390625,0.47314453125,-0.5487804878048781,-13.841463414634148,-18.10975609756098
18_00_52_496,-5.0,-1.0,2.0,-1.0,-4.0,-14.0,-2.0,-2.0,0.8818359375,-0.1826171875,0.4912109375,-4.51219512195122,-14.817073170731708,-15.487804878048783
18_00_52_496,-4.0,-4.0,0.0,-4.0,1.0,-1.0,-1.0,-2.0,0.87548828125,-0.16650390625,0.45947265625,-2.9268292682926833,-15.30487804878049,-14.085365853658537
18_00_52_496,-2.0,-9.0,-6.0,4.0,4.0,0.0,1.0,1.0,0.81103515625,-0.11328125,0.49365234375,0.7317073170731708,-15.000000000000002,-13.109756097560977
18_00_52_496,3.0,9.0,-4.0,-2.0,-1.0,1.0,3.0,3.0,0.83251953125,-0.11962890625,0.49951171875,25.670731707317074,-14.02439024390244,-14.26829268292683
18_00_52_496,7.0,-7.0,7.0,8.0,0.0,-1.0,-2.0,-1.0,0.79541015625,-0.1796875,0.50927734375,30.182926829268297,-12.80487804878049,-4.024390243902439
18_00_52_548,-6.0,-1.0,1.0,1.0,5.0,-1.0,2.0,-2.0,0.72900390625,0.0205078125,0.46533203125,-25.853658536585368,-23.29268292682927,-24.146341463414636
18_00_52_548,15.0,-2.0,-5.0,4.0,-4.0,-1.0,-4.0,-2.0,0.73681640625,0.0322265625,0.44970703125,-23.658536585365855,-19.085365853658537,-17.682926829268293
18_00_52_548,-3.0,5.0,-3.0,2.0,-1.0,-1.0,1.0,8.0,0.75830078125,0.05859375,0.439453125,-11.097560975609756,-17.378048780487806,-15.426829268292684
18_00_52_548,6.0,-5.0,-1.0,-3.0,-1.0,-5.0,-3.0,-13.0,0.82958984375,-0.00146484375,0.42333984375,3.780487804878049,-17.195121951219512,-16.951219512195124
18_00_52_548,-7.0,-2.0,1.0,-1.0,-3.0,-1.0,4.0,1.0,0.85595703125,-0.109375,0.458984375,8.78048780487805,-15.060975609756099,-16.951219512195124
18_00_52_548,1.0,-5.0,-4.0,0.0,-1.0,1.0,-2.0,0.0,0.9189453125,-0.1650390625,0.47314453125,-0.5487804878048781,-13.841463414634148,-18.10975609756098
18_00_52_548,-3.0,-3.0,-6.0,1.0,-4.0,0.0,0.0,-2.0,0.8818359375,-0.1826171875,0.4912109375,-4.51219512195122,-14.817073170731708,-15.487804878048783
18_00_52_548,-6.0,2.0,3.0,-2.0,-1.0,-5.0,-1.0,-3.0,0.87548828125,-0.16650390625,0.45947265625,-2.9268292682926833,-15.30487804878049,-14.085365853658537
18_00_52_548,5.0,-3.0,-4.0,-2.0,4.0,2.0,-1.0,0.0,0.81103515625,-0.11328125,0.49365234375,0.7317073170731708,-15.000000000000002,-13.109756097560977
18_00_52_597,-1.0,-3.0,-4.0,2.0,-5.0,0.0,-1.0,-1.0,0.85693359375,-0.0908203125,0.45263671875,-8.414634146341465,-10.853658536585368,-27.500000000000004
18_00_52_597,-1.0,-1.0,-2.0,1.0,-2.0,-2.0,1.0,-3.0,0.8466796875,-0.12109375,0.43408203125,-17.5609756097561,-16.585365853658537,-29.87804878048781
18_00_52_597,22.0,-1.0,0.0,2.0,0.0,0.0,1.0,4.0,0.771484375,-0.04345703125,0.4482421875,-25.243902439024392,-23.719512195121954,-30.487804878048784
18_00_52_597,1.0,1.0,6.0,6.0,1.0,2.0,0.0,2.0,0.72900390625,0.0205078125,0.46533203125,-25.853658536585368,-23.29268292682927,-24.146341463414636
18_00_52_597,-7.0,-3.0,4.0,-1.0,-7.0,-9.0,-2.0,0.0,0.73681640625,0.0322265625,0.44970703125,-23.658536585365855,-19.085365853658537,-17.682926829268293
18_00_52_597,-6.0,-4.0,-8.0,0.0,-5.0,0.0,0.0,-26.0,0.75830078125,0.05859375,0.439453125,-11.097560975609756,-17.378048780487806,-15.426829268292684
18_00_52_597,-27.0,-1.0,-4.0,-1.0,-3.0,-1.0,2.0,-3.0,0.82958984375,-0.00146484375,0.42333984375,3.780487804878049,-17.195121951219512,-16.951219512195124
18_00_52_597,4.0,0.0,-3.0,4.0,2.0,1.0,2.0,-1.0,0.85595703125,-0.109375,0.458984375,8.78048780487805,-15.060975609756099,-16.951219512195124
18_00_52_597,10.0,2.0,1.0,-2.0,0.0,-1.0,-1.0,3.0,0.9189453125,-0.1650390625,0.47314453125,-0.5487804878048781,-13.841463414634148,-18.10975609756098
18_00_52_644,11.0,-11.0,-2.0,-7.0,4.0,2.0,2.0,-3.0,0.91259765625,0.02001953125,0.419921875,-5.731707317073171,-10.121951219512196,-12.560975609756099
18_00_52_644,-29.0,35.0,21.0,1.0,-8.0,-22.0,-13.0,-10.0,0.8662109375,0.03271484375,0.40087890625,-0.3658536585365854,-8.719512195121952,-20.914634146341466
18_00_52_644,24.0,-12.0,-8.0,2.0,0.0,8.0,2.0,15.0,0.830078125,0.00927734375,0.43994140625,1.0365853658536586,-6.829268292682928,-27.865853658536587
18_00_52_644,16.0,7.0,1.0,1.0,3.0,-12.0,3.0,-2.0,0.85693359375,-0.0908203125,0.45263671875,-8.414634146341465,-10.853658536585368,-27.500000000000004
18_00_52_644,13.0,-5.0,5.0,-2.0,2.0,1.0,-2.0,4.0,0.8466796875,-0.12109375,0.43408203125,-17.5609756097561,-16.585365853658537,-29.87804878048781
18_00_52_644,-28.0,-5.0,2.0,-4.0,-1.0,0.0,-2.0,-23.0,0.771484375,-0.04345703125,0.4482421875,-25.243902439024392,-23.719512195121954,-30.487804878048784
18_00_52_644,4.0,-4.0,-1.0,-1.0,0.0,0.0,4.0,12.0,0.72900390625,0.0205078125,0.46533203125,-25.853658536585368,-23.29268292682927,-24.146341463414636
18_00_52_644,3.0,-5.0,-6.0,-4.0,3.0,-4.0,-8.0,-5.0,0.73681640625,0.0322265625,0.44970703125,-23.658536585365855,-19.085365853658537,-17.682926829268293
18_00_52_644,3.0,-4.0,0.0,0.0,2.0,3.0,-1.0,-20.0,0.75830078125,0.05859375,0.439453125,-11.097560975609756,-17.378048780487806,-15.426829268292684
18_00_52_644,0.0,3.0,-1.0,-3.0,-6.0,-2.0,0.0,2.0,0.82958984375,-0.00146484375,0.42333984375,3.780487804878049,-17.195121951219512,-16.951219512195124
18_00_52_700,6.0,-1.0,-1.0,-4.0,-1.0,19.0,1.0,-3.0,0.94384765625,0.017578125,0.4189453125,-5.7926829268292686,-7.560975609756098,-1.524390243902439
18_00_52_700,-14.0,-10.0,-8.0,-4.0,0.0,-12.0,-4.0,-12.0,0.93603515625,0.01904296875,0.44189453125,-10.0,-11.219512195121952,-5.609756097560976
18_00_52_700,2.0,2.0,2.0,8.0,2.0,-7.0,0.0,12.0,0.91259765625,0.02001953125,0.419921875,-5.731707317073171,-10.121951219512196,-12.560975609756099
18_00_52_700,-24.0,-5.0,-1.0,0.0,3.0,-3.0,-4.0,-28.0,0.8662109375,0.03271484375,0.40087890625,-0.3658536585365854,-8.719512195121952,-20.914634146341466
18_00_52_700,8.0,-1.0,-4.0,12.0,0.0,-1.0,1.0,14.0,0.830078125,0.00927734375,0.43994140625,1.0365853658536586,-6.829268292682928,-27.865853658536587
18_00_52_700,-17.0,-2.0,4.0,18.0,0.0,0.0,-2.0,-1.0,0.85693359375,-0.0908203125,0.45263671875,-8.414634146341465,-10.853658536585368,-27.500000000000004
18_00_52_700,11.0,-11.0,-2.0,-7.0,4.0,2.0,2.0,-3.0,0.8466796875,-0.12109375,0.43408203125,-17.5609756097561,-16.585365853658537,-29.87804878048781
18_00_52_700,-29.0,35.0,21.0,1.0,-8.0,-22.0,-13.0,-10.0,0.771484375,-0.04345703125,0.4482421875,-25.243902439024392,-23.719512195121954,-30.487804878048784
18_00_52_700,24.0,-12.0,-8.0,2.0,0.0,8.0,2.0,15.0,0.72900390625,0.0205078125,0.46533203125,-25.853658536585368,-23.29268292682927,-24.146341463414636
18_00_52_700,16.0,7.0,1.0,1.0,3.0,-12.0,3.0,-2.0,0.73681640625,0.0322265625,0.44970703125,-23.658536585365855,-19.085365853658537,-17.682926829268293
18_00_52_752,5.0,-1.0,34.0,-6.0,-5.0,-1.0,1.0,-11.0,0.84912109375,0.11328125,0.43994140625,-11.646341463414634,-8.048780487804878,5.548780487804878
18_00_52_752,-7.0,0.0,-9.0,23.0,3.0,12.0,0.0,-19.0,0.90380859375,0.1396484375,0.4833984375,-4.207317073170732,-2.378048780487805,3.1097560975609757
18_00_52_752,23.0,17.0,3.0,-8.0,-3.0,6.0,-3.0,17.0,0.9287109375,0.06103515625,0.46630859375,-1.6463414634146343,-4.573170731707317,2.5609756097560976
18_00_52_752,-17.0,-9.0,12.0,0.0,8.0,-6.0,-1.0,-8.0,0.94384765625,0.017578125,0.4189453125,-5.7926829268292686,-7.560975609756098,-1.524390243902439
18_00_52_752,-2.0,-2.0,0.0,-14.0,15.0,2.0,-1.0,-2.0,0.93603515625,0.01904296875,0.44189453125,-10.0,-11.219512195121952,-5.609756097560976
18_00_52_752,-15.0,0.0,-2.0,1.0,-34.0,-8.0,-1.0,5.0,0.91259765625,0.02001953125,0.419921875,-5.731707317073171,-10.121951219512196,-12.560975609756099
18_00_52_752,-12.0,-6.0,-15.0,-1.0,0.0,-1.0,-1.0,-30.0,0.8662109375,0.03271484375,0.40087890625,-0.3658536585365854,-8.719512195121952,-20.914634146341466
18_00_52_752,-26.0,-1.0,14.0,15.0,2.0,-2.0,0.0,0.0,0.830078125,0.00927734375,0.43994140625,1.0365853658536586,-6.829268292682928,-27.865853658536587
18_00_52_752,-4.0,-4.0,-6.0,-4.0,-3.0,0.0,-4.0,0.0,0.85693359375,-0.0908203125,0.45263671875,-8.414634146341465,-10.853658536585368,-27.500000000000004
18_00_52_752,19.0,1.0,-5.0,-6.0,4.0,3.0,1.0,-1.0,0.8466796875,-0.12109375,0.43408203125,-17.5609756097561,-16.585365853658537,-29.87804878048781
18_00_52_797,-50.0,-5.0,-2.0,-1.0,-7.0,-1.0,-26.0,-5.0,0.93017578125,0.08203125,0.4375,6.707317073170732,5.0,11.585365853658537
18_00_52_797,-7.0,3.0,-3.0,-6.0,-3.0,3.0,34.0,11.0,0.947265625,0.03662109375,0.41552734375,-14.207317073170733,-3.1707317073170733,8.048780487804878
18_00_52_797,-16.0,-12.0,-6.0,-18.0,-13.0,-4.0,46.0,1.0,0.85205078125,0.0908203125,0.4130859375,-18.414634146341466,-10.487804878048781,3.8414634146341466
18_00_52_797,50.0,0.0,11.0,-6.0,-24.0,-6.0,-51.0,6.0,0.84912109375,0.11328125,0.43994140625,-11.646341463414634,-8.048780487804878,5.548780487804878
18_00_52_797,-82.0,-15.0,-5.0,-1.0,-4.0,-13.0,9.0,-42.0,0.90380859375,0.1396484375,0.4833984375,-4.207317073170732,-2.378048780487805,3.1097560975609757
18_00_52_797,16.0,-6.0,-12.0,29.0,40.0,10.0,-9.0,7.0,0.9287109375,0.06103515625,0.46630859375,-1.6463414634146343,-4.573170731707317,2.5609756097560976
18_00_52_797,23.0,-3.0,-9.0,-9.0,11.0,0.0,-6.0,40.0,0.94384765625,0.017578125,0.4189453125,-5.7926829268292686,-7.560975609756098,-1.524390243902439
18_00_52_797,13.0,8.0,12.0,-6.0,2.0,-8.0,35.0,-6.0,0.93603515625,0.01904296875,0.44189453125,-10.0,-11.219512195121952,-5.609756097560976
18_00_52_797,1.0,8.0,20.0,-10.0,-1.0,-8.0,3.0,5.0,0.91259765625,0.02001953125,0.419921875,-5.731707317073171,-10.121951219512196,-12.560975609756099
18_00_52_797,2.0,-13.0,-41.0,-15.0,-1.0,-3.0,1.0,-1.0,0.8662109375,0.03271484375,0.40087890625,-0.3658536585365854,-8.719512195121952,-20.914634146341466
18_00_52_851,2.0,1.0,7.0,7.0,8.0,1.0,9.0,-7.0,0.86767578125,0.14794921875,0.41552734375,8.414634146341465,7.01219512195122,9.573170731707318
18_00_52_851,-6.0,-5.0,-9.0,7.0,9.0,4.0,8.0,6.0,0.93017578125,0.08203125,0.4375,6.707317073170732,5.0,11.585365853658537
18_00_52_851,-25.0,-8.0,2.0,21.0,16.0,-2.0,-50.0,-22.0,0.947265625,0.03662109375,0.41552734375,-14.207317073170733,-3.1707317073170733,8.048780487804878
18_00_52_851,23.0,1.0,-4.0,-12.0,-11.0,0.0,-5.0,4.0,0.85205078125,0.0908203125,0.4130859375,-18.414634146341466,-10.487804878048781,3.8414634146341466
18_00_52_851,-50.0,-5.0,-2.0,-1.0,-7.0,-1.0,-26.0,-5.0,0.84912109375,0.11328125,0.43994140625,-11.646341463414634,-8.048780487804878,5.548780487804878
18_00_52_851,-7.0,3.0,-3.0,-6.0,-3.0,3.0,34.0,11.0,0.90380859375,0.1396484375,0.4833984375,-4.207317073170732,-2.378048780487805,3.1097560975609757
18_00_52_851,-16.0,-12.0,-6.0,-18.0,-13.0,-4.0,46.0,1.0,0.9287109375,0.06103515625,0.46630859375,-1.6463414634146343,-4.573170731707317,2.5609756097560976
18_00_52_851,50.0,0.0,11.0,-6.0,-24.0,-6.0,-51.0,6.0,0.94384765625,0.017578125,0.4189453125,-5.7926829268292686,-7.560975609756098,-1.524390243902439
18_00_52_851,-82.0,-15.0,-5.0,-1.0,-4.0,-13.0,9.0,-42.0,0.93603515625,0.01904296875,0.44189453125,-10.0,-11.219512195121952,-5.609756097560976
18_00_52_851,16.0,-6.0,-12.0,29.0,40.0,10.0,-9.0,7.0,0.91259765625,0.02001953125,0.419921875,-5.731707317073171,-10.121951219512196,-12.560975609756099
18_00_52_905,-53.0,-1.0,17.0,-18.0,24.0,-1.0,84.0,8.0,0.84521484375,-0.046875,0.5078125,-16.03658536585366,12.256097560975611,19.75609756097561
18_00_52_905,41.0,4.0,42.0,43.0,10.0,5.0,25.0,-23.0,0.841796875,-0.0712890625,0.48779296875,-16.097560975609756,7.439024390243903,17.682926829268293
18_00_52_905,21.0,-10.0,-87.0,-7.0,-48.0,0.0,-10.0,-32.0,0.87548828125,-0.1220703125,0.44482421875,-23.29268292682927,-0.5487804878048781,11.951219512195124
18_00_52_905,-30.0,3.0,54.0,-41.0,13.0,3.0,3.0,10.0,0.80224609375,0.05126953125,0.4296875,-8.109756097560977,1.9512195121951221,6.52439024390244
18_00_52_905,33.0,2.0,8.0,26.0,3.0,-10.0,-14.0,4.0,0.86767578125,0.14794921875,0.41552734375,8.414634146341465,7.01219512195122,9.573170731707318
18_00_52_905,5.0,-34.0,-13.0,12.0,1.0,9.0,-91.0,40.0,0.93017578125,0.08203125,0.4375,6.707317073170732,5.0,11.585365853658537
18_00_52_905,-77.0,-13.0,-13.0,28.0,-1.0,-7.0,83.0,-22.0,0.947265625,0.03662109375,0.41552734375,-14.207317073170733,-3.1707317073170733,8.048780487804878
18_00_52_905,-25.0,3.0,4.0,-18.0,27.0,-3.0,63.0,-6.0,0.85205078125,0.0908203125,0.4130859375,-18.414634146341466,-10.487804878048781,3.8414634146341466
18_00_52_905,6.0,5.0,10.0,5.0,12.0,1.0,-44.0,0.0,0.84912109375,0.11328125,0.43994140625,-11.646341463414634,-8.048780487804878,5.548780487804878
18_00_52_905,59.0,3.0,2.0,-8.0,-41.0,-5.0,-4.0,20.0,0.90380859375,0.1396484375,0.4833984375,-4.207317073170732,-2.378048780487805,3.1097560975609757
18_00_52_954,36.0,-2.0,14.0,18.0,13.0,4.0,-47.0,-11.0,0.86181640625,-0.0703125,0.46728515625,-18.719512195121954,16.646341463414636,15.060975609756099
18_00_52_954,0.0,-5.0,-31.0,-5.0,2.0,-6.0,37.0,19.0,0.9248046875,-0.0517578125,0.4873046875,-21.03658536585366,17.134146341463417,19.634146341463417
18_00_52_954,-6.0,-1.0,26.0,-6.0,-24.0,-9.0,127.0,20.0,0.84521484375,-0.046875,0.5078125,-16.03658536585366,12.256097560975611,19.75609756097561
18_00_52_954,-2.0,4.0,-18.0,-37.0,-12.0,-5.0,-48.0,-24.0,0.841796875,-0.0712890625,0.48779296875,-16.097560975609756,7.439024390243903,17.682926829268293
18_00_52_954,-5.0,4.0,12.0,48.0,-20.0,3.0,-37.0,0.0,0.87548828125,-0.1220703125,0.44482421875,-23.29268292682927,-0.5487804878048781,11.951219512195124
18_00_52_954,4.0,-4.0,27.0,7.0,74.0,11.0,13.0,19.0,0.80224609375,0.05126953125,0.4296875,-8.109756097560977,1.9512195121951221,6.52439024390244
18_00_52_954,-8.0,-5.0,-14.0,-21.0,21.0,-19.0,-61.0,-34.0,0.86767578125,0.14794921875,0.41552734375,8.414634146341465,7.01219512195122,9.573170731707318
18_00_52_954,-3.0,-10.0,-24.0,-27.0,-97.0,-53.0,-12.0,27.0,0.93017578125,0.08203125,0.4375,6.707317073170732,5.0,11.585365853658537
18_00_52_954,14.0,-5.0,8.0,-8.0,-15.0,99.0,10.0,4.0,0.947265625,0.03662109375,0.41552734375,-14.207317073170733,-3.1707317073170733,8.048780487804878
18_00_52_954,3.0,-1.0,11.0,15.0,-5.0,24.0,32.0,13.0,0.85205078125,0.0908203125,0.4130859375,-18.414634146341466,-10.487804878048781,3.8414634146341466
18_00_53_003,35.0,-1.0,-2.0,-47.0,11.0,-49.0,-5.0,6.0,0.876953125,-0.068359375,0.4716796875,2.987804878048781,10.060975609756099,12.134146341463415
18_00_53_003,-33.0,-5.0,21.0,94.0,35.0,107.0,7.0,3.0,0.8349609375,-0.189453125,0.4755859375,-2.378048780487805,13.170731707317074,15.060975609756099
18_00_53_003,12.0,-10.0,4.0,-56.0,25.0,-36.0,-128.0,-3.0,0.8544921875,-0.212890625,0.4482421875,-19.512195121951223,12.500000000000002,14.695121951219514
18_00_53_003,36.0,-8.0,-76.0,-41.0,-67.0,22.0,-28.0,-27.0,0.86181640625,-0.0703125,0.46728515625,-18.719512195121954,16.646341463414636,15.060975609756099
18_00_53_003,-65.0,12.0,44.0,-7.0,23.0,-22.0,5.0,-1.0,0.9248046875,-0.0517578125,0.4873046875,-21.03658536585366,17.134146341463417,19.634146341463417
18_00_53_003,3.0,-23.0,-67.0,-27.0,-94.0,14.0,-124.0,7.0,0.84521484375,-0.046875,0.5078125,-16.03658536585366,12.256097560975611,19.75609756097561
18_00_53_003,8.0,-7.0,12.0,64.0,106.0,38.0,109.0,3.0,0.841796875,-0.0712890625,0.48779296875,-16.097560975609756,7.439024390243903,17.682926829268293
18_00_53_003,-17.0,8.0,4.0,-46.0,-11.0,4.0,20.0,4.0,0.87548828125,-0.1220703125,0.44482421875,-23.29268292682927,-0.5487804878048781,11.951219512195124
18_00_53_003,30.0,14.0,21.0,37.0,71.0,6.0,-36.0,-4.0,0.80224609375,0.05126953125,0.4296875,-8.109756097560977,1.9512195121951221,6.52439024390244
18_00_53_003,2.0,-8.0,3.0,3.0,11.0,-4.0,-44.0,6.0,0.86767578125,0.14794921875,0.41552734375,8.414634146341465,7.01219512195122,9.573170731707318
18_00_53_050,67.0,-18.0,-20.0,-39.0,-84.0,-51.0,-128.0,34.0,0.87890625,-0.11328125,0.505859375,-26.402439024390247,14.695121951219514,14.085365853658537
18_00_53_050,18.0,9.0,-6.0,127.0,46.0,61.0,116.0,16.0,0.94677734375,-0.1005859375,0.46826171875,-7.621951219512196,12.317073170731708,15.487804878048783
18_00_53_050,0.0,-1.0,-1.0,-107.0,34.0,41.0,127.0,-5.0,0.876953125,-0.068359375,0.4716796875,2.987804878048781,10.060975609756099,12.134146341463415
18_00_53_050,8.0,1.0,3.0,70.0,54.0,-41.0,-65.0,21.0,0.8349609375,-0.189453125,0.4755859375,-2.378048780487805,13.170731707317074,15.060975609756099
18_00_53_050,8.0,-4.0,-7.0,-79.0,-57.0,-23.0,-37.0,-3.0,0.8544921875,-0.212890625,0.4482421875,-19.512195121951223,12.500000000000002,14.695121951219514
18_00_53_050,-2.0,-8.0,11.0,-48.0,53.0,-16.0,88.0,-9.0,0.86181640625,-0.0703125,0.46728515625,-18.719512195121954,16.646341463414636,15.060975609756099
18_00_53_050,-5.0,12.0,0.0,67.0,-9.0,-12.0,-21.0,-28.0,0.9248046875,-0.0517578125,0.4873046875,-21.03658536585366,17.134146341463417,19.634146341463417
18_00_53_050,3.0,-8.0,-3.0,44.0,16.0,-25.0,20.0,6.0,0.84521484375,-0.046875,0.5078125,-16.03658536585366,12.256097560975611,19.75609756097561
18_00_53_050,35.0,-1.0,-2.0,-47.0,11.0,-49.0,-5.0,6.0,0.841796875,-0.0712890625,0.48779296875,-16.097560975609756,7.439024390243903,17.682926829268293
18_00_53_050,-33.0,-5.0,21.0,94.0,35.0,107.0,7.0,3.0,0.87548828125,-0.1220703125,0.44482421875,-23.29268292682927,-0.5487804878048781,11.951219512195124
18_00_53_111,-63.0,1.0,20.0,60.0,19.0,41.0,127.0,-24.0,0.93505859375,-0.13037109375,0.4990234375,-12.134146341463415,18.29268292682927,19.573170731707318
18_00_53_111,-27.0,-6.0,-45.0,-112.0,5.0,-56.0,-16.0,1.0,0.89599609375,-0.11083984375,0.51025390625,-33.65853658536586,15.670731707317074,18.53658536585366
18_00_53_111,21.0,1.0,32.0,127.0,18.0,-1.0,-40.0,16.0,0.87890625,-0.11328125,0.505859375,-26.402439024390247,14.695121951219514,14.085365853658537
18_00_53_111,-13.0,-14.0,5.0,-82.0,-53.0,-4.0,-77.0,4.0,0.94677734375,-0.1005859375,0.46826171875,-7.621951219512196,12.317073170731708,15.487804878048783
18_00_53_111,-22.0,-33.0,-70.0,-53.0,-119.0,46.0,-6.0,-22.0,0.876953125,-0.068359375,0.4716796875,2.987804878048781,10.060975609756099,12.134146341463415
18_00_53_111,7.0,70.0,97.0,42.0,48.0,-34.0,-1.0,-18.0,0.8349609375,-0.189453125,0.4755859375,-2.378048780487805,13.170731707317074,15.060975609756099
18_00_53_111,6.0,-25.0,49.0,95.0,124.0,-8.0,-46.0,-1.0,0.8544921875,-0.212890625,0.4482421875,-19.512195121951223,12.500000000000002,14.695121951219514
18_00_53_111,-61.0,-4.0,2.0,-42.0,-57.0,-32.0,-24.0,-6.0,0.86181640625,-0.0703125,0.46728515625,-18.719512195121954,16.646341463414636,15.060975609756099
18_00_53_111,67.0,-18.0,-20.0,-39.0,-84.0,-51.0,-128.0,34.0,0.9248046875,-0.0517578125,0.4873046875,-21.03658536585366,17.134146341463417,19.634146341463417
18_00_53_111,18.0,9.0,-6.0,127.0,46.0,61.0,116.0,16.0,0.84521484375,-0.046875,0.5078125,-16.03658536585366,12.256097560975611,19.75609756097561
18_00_53_154,20.0,-5.0,-9.0,-36.0,127.0,-14.0,20.0,-7.0,0.78515625,-0.27001953125,0.49951171875,7.134146341463415,14.573170731707318,24.512195121951223
18_00_53_154,-21.0,-21.0,28.0,-24.0,-59.0,-14.0,-48.0,-55.0,0.83642578125,-0.08544921875,0.53759765625,8.719512195121952,19.512195121951223,23.84146341463415
18_00_53_154,-125.0,-5.0,34.0,33.0,-37.0,-17.0,-45.0,8.0,0.91748046875,-0.04345703125,0.53173828125,11.707317073170733,20.60975609756098,21.34146341463415
18_00_53_154,96.0,-10.0,-37.0,-26.0,-59.0,-21.0,116.0,19.0,0.93505859375,-0.13037109375,0.4990234375,-12.134146341463415,18.29268292682927,19.573170731707318
18_00_53_154,-100.0,-19.0,1.0,64.0,81.0,48.0,127.0,-40.0,0.89599609375,-0.11083984375,0.51025390625,-33.65853658536586,15.670731707317074,18.53658536585366
18_00_53_154,22.0,-5.0,11.0,-16.0,36.0,-39.0,-82.0,-2.0,0.87890625,-0.11328125,0.505859375,-26.402439024390247,14.695121951219514,14.085365853658537
18_00_53_154,-34.0,36.0,19.0,3.0,-33.0,16.0,3.0,9.0,0.94677734375,-0.1005859375,0.46826171875,-7.621951219512196,12.317073170731708,15.487804878048783
18_00_53_154,76.0,35.0,37.0,-14.0,-21.0,-39.0,6.0,14.0,0.876953125,-0.068359375,0.4716796875,2.987804878048781,10.060975609756099,12.134146341463415
18_00_53_154,-26.0,-2.0,11.0,-29.0,64.0,24.0,-10.0,-1.0,0.8349609375,-0.189453125,0.4755859375,-2.378048780487805,13.170731707317074,15.060975609756099
18_00_53_154,-57.0,5.0,12.0,65.0,19.0,15.0,-8.0,-34.0,0.8544921875,-0.212890625,0.4482421875,-19.512195121951223,12.500000000000002,14.695121951219514
18_00_53_211,-15.0,-19.0,-44.0,-128.0,0.0,26.0,35.0,-28.0,0.83544921875,-0.16748046875,0.4892578125,-1.2195121951219514,17.926829268292686,20.54878048780488
18_00_53_211,-59.0,-6.0,-29.0,90.0,-38.0,-1.0,-36.0,12.0,0.91845703125,-0.23193359375,0.44580078125,2.5609756097560976,14.329268292682928,22.134146341463417
18_00_53_211,5.0,-3.0,4.0,-55.0,-14.0,11.0,18.0,0.0,0.8056640625,-0.2373046875,0.412109375,15.182926829268293,13.231707317073171,16.402439024390244
18_00_53_211,-52.0,20.0,13.0,90.0,127.0,-63.0,-48.0,2.0,0.78515625,-0.27001953125,0.49951171875,7.134146341463415,14.573170731707318,24.512195121951223
18_00_53_211,49.0,-15.0,-10.0,-128.0,-128.0,-48.0,5.0,-38.0,0.83642578125,-0.08544921875,0.53759765625,8.719512195121952,19.512195121951223,23.84146341463415
18_00_53_211,-5.0,-17.0,-9.0,71.0,93.0,127.0,4.0,3.0,0.91748046875,-0.04345703125,0.53173828125,11.707317073170733,20.60975609756098,21.34146341463415
18_00_53_211,42.0,21.0,35.0,124.0,40.0,-103.0,26.0,48.0,0.93505859375,-0.13037109375,0.4990234375,-12.134146341463415,18.29268292682927,19.573170731707318
18_00_53_211,-26.0,-6.0,19.0,-100.0,-74.0,79.0,127.0,-12.0,0.89599609375,-0.11083984375,0.51025390625,-33.65853658536586,15.670731707317074,18.53658536585366
18_00_53_211,58.0,27.0,34.0,123.0,127.0,-19.0,1.0,3.0,0.87890625,-0.11328125,0.505859375,-26.402439024390247,14.695121951219514,14.085365853658537
18_00_53_211,-8.0,-11.0,-29.0,-47.0,-128.0,-20.0,28.0,21.0,0.94677734375,-0.1005859375,0.46826171875,-7.621951219512196,12.317073170731708,15.487804878048783
18_00_53_263,-23.0,-8.0,31.0,127.0,127.0,-51.0,27.0,-18.0,0.83544921875,-0.16748046875,0.4892578125,-1.2195121951219514,17.926829268292686,20.54878048780488
18_00_53_263,-128.0,-7.0,-61.0,-66.0,127.0,-15.0,-128.0,-47.0,0.91845703125,-0.23193359375,0.44580078125,2.5609756097560976,14.329268292682928,22.134146341463417
18_00_53_263,88.0,15.0,78.0,-128.0,-128.0,-34.0,91.0,54.0,0.8056640625,-0.2373046875,0.412109375,15.182926829268293,13.231707317073171,16.402439024390244
18_00_53_263,47.0,-12.0,-45.0,127.0,53.0,45.0,-12.0,5.0,0.78515625,-0.27001953125,0.49951171875,7.134146341463415,14.573170731707318,24.512195121951223
18_00_53_263,-6.0,2.0,13.0,-128.0,127.0,56.0,103.0,-16.0,0.83642578125,-0.08544921875,0.53759765625,8.719512195121952,19.512195121951223,23.84146341463415
18_00_53_263,-13.0,-5.0,6.0,-11.0,-91.0,-79.0,19.0,7.0,0.91748046875,-0.04345703125,0.53173828125,11.707317073170733,20.60975609756098,21.34146341463415
18_00_53_263,-15.0,-19.0,-44.0,-128.0,0.0,26.0,35.0,-28.0,0.93505859375,-0.13037109375,0.4990234375,-12.134146341463415,18.29268292682927,19.573170731707318
18_00_53_263,-59.0,-6.0,-29.0,90.0,-38.0,-1.0,-36.0,12.0,0.89599609375,-0.11083984375,0.51025390625,-33.65853658536586,15.670731707317074,18.53658536585366
18_00_53_309,16.0,-10.0,-38.0,-33.0,-128.0,103.0,-53.0,-5.0,0.97314453125,-0.240234375,0.63330078125,-3.658536585365854,35.54878048780488,21.585365853658537
18_00_53_309,-16.0,3.0,51.0,98.0,127.0,127.0,80.0,2.0,0.83056640625,-0.2119140625,0.63525390625,-11.52439024390244,25.792682926829272,23.170731707317074
18_00_53_309,7.0,-17.0,-85.0,-39.0,4.0,127.0,-10.0,-6.0,0.89794921875,-0.1494140625,0.58544921875,-17.073170731707318,24.085365853658537,21.951219512195124
18_00_53_309,25.0,19.0,64.0,79.0,63.0,-128.0,-57.0,-22.0,0.85791015625,-0.15283203125,0.5126953125,-14.146341463414636,19.26829268292683,18.902439024390244
18_00_53_309,25.0,-14.0,23.0,-60.0,-128.0,-95.0,127.0,20.0,0.83447265625,-0.1533203125,0.50048828125,-6.7682926829268295,20.975609756097562,18.719512195121954
18_00_53_309,17.0,-22.0,-39.0,46.0,-120.0,-128.0,30.0,8.0,0.83544921875,-0.16748046875,0.4892578125,-1.2195121951219514,17.926829268292686,20.54878048780488
18_00_53_309,-101.0,6.0,47.0,-70.0,-40.0,121.0,53.0,-18.0,0.91845703125,-0.23193359375,0.44580078125,2.5609756097560976,14.329268292682928,22.134146341463417
18_00_53_309,-20.0,-15.0,-16.0,127.0,127.0,95.0,-99.0,23.0,0.8056640625,-0.2373046875,0.412109375,15.182926829268293,13.231707317073171,16.402439024390244
18_00_53_309,-65.0,25.0,30.0,-47.0,-128.0,32.0,-34.0,-26.0,0.78515625,-0.27001953125,0.49951171875,7.134146341463415,14.573170731707318,24.512195121951223
18_00_53_309,-21.0,-25.0,-44.0,3.0,44.0,97.0,-128.0,-5.0,0.83642578125,-0.08544921875,0.53759765625,8.719512195121952,19.512195121951223,23.84146341463415
18_00_53_357,-5.0,-6.0,21.0,60.0,127.0,-66.0,27.0,13.0,0.81982421875,-0.21533203125,0.70947265625,-4.390243902439025,46.82926829268293,24.26829268292683
18_00_53_357,24.0,13.0,-11.0,-113.0,-128.0,-31.0,-27.0,13.0,0.88720703125,-0.2666015625,0.6455078125,-6.951219512195123,44.390243902439025,24.75609756097561
18_00_53_357,11.0,-18.0,25.0,127.0,122.0,-23.0,28.0,-4.0,0.90966796875,-0.30078125,0.642578125,-5.548780487804878,40.1219512195122,24.878048780487806
18_00_53_357,-58.0,23.0,40.0,-63.0,-104.0,-61.0,31.0,12.0,0.97314453125,-0.240234375,0.63330078125,-3.658536585365854,35.54878048780488,21.585365853658537
18_00_53_357,25.0,-6.0,-57.0,7.0,37.0,-45.0,-61.0,-1.0,0.83056640625,-0.2119140625,0.63525390625,-11.52439024390244,25.792682926829272,23.170731707317074
18_00_53_357,9.0,0.0,25.0,-58.0,-82.0,-101.0,-51.0,-25.0,0.89794921875,-0.1494140625,0.58544921875,-17.073170731707318,24.085365853658537,21.951219512195124
18_00_53_357,-92.0,-5.0,24.0,-25.0,-128.0,-51.0,91.0,19.0,0.85791015625,-0.15283203125,0.5126953125,-14.146341463414636,19.26829268292683,18.902439024390244
18_00_53_357,-2.0,-54.0,-59.0,40.0,-37.0,31.0,107.0,-38.0,0.83447265625,-0.1533203125,0.50048828125,-6.7682926829268295,20.975609756097562,18.719512195121954
18_00_53_357,7.0,44.0,80.0,108.0,127.0,127.0,-46.0,4.0,0.83544921875,-0.16748046875,0.4892578125,-1.2195121951219514,17.926829268292686,20.54878048780488
18_00_53_357,-10.0,7.0,-12.0,-28.0,127.0,8.0,-23.0,3.0,0.91845703125,-0.23193359375,0.44580078125,2.5609756097560976,14.329268292682928,22.134146341463417
18_00_53_409,-29.0,-6.0,-7.0,69.0,62.0,-17.0,-18.0,4.0,0.8603515625,-0.23583984375,0.6357421875,-0.3658536585365854,47.50000000000001,22.439024390243905
18_00_53_409,63.0,17.0,-24.0,-92.0,-17.0,33.0,-12.0,28.0,0.81982421875,-0.21533203125,0.70947265625,-4.390243902439025,46.82926829268293,24.26829268292683
18_00_53_409,13.0,3.0,78.0,51.0,-85.0,-62.0,96.0,5.0,0.88720703125,-0.2666015625,0.6455078125,-6.951219512195123,44.390243902439025,24.75609756097561
18_00_53_409,27.0,-17.0,-54.0,-93.0,-107.0,12.0,-51.0,0.0,0.90966796875,-0.30078125,0.642578125,-5.548780487804878,40.1219512195122,24.878048780487806
18_00_53_409,-16.0,-15.0,-57.0,67.0,-3.0,2.0,-1.0,-38.0,0.97314453125,-0.240234375,0.63330078125,-3.658536585365854,35.54878048780488,21.585365853658537
18_00_53_409,-5.0,-6.0,21.0,60.0,127.0,-66.0,27.0,13.0,0.83056640625,-0.2119140625,0.63525390625,-11.52439024390244,25.792682926829272,23.170731707317074
18_00_53_409,24.0,13.0,-11.0,-113.0,-128.0,-31.0,-27.0,13.0,0.89794921875,-0.1494140625,0.58544921875,-17.073170731707318,24.085365853658537,21.951219512195124
18_00_53_409,11.0,-18.0,25.0,127.0,122.0,-23.0,28.0,-4.0,0.85791015625,-0.15283203125,0.5126953125,-14.146341463414636,19.26829268292683,18.902439024390244
18_00_53_409,-58.0,23.0,40.0,-63.0,-104.0,-61.0,31.0,12.0,0.83447265625,-0.1533203125,0.50048828125,-6.7682926829268295,20.975609756097562,18.719512195121954
18_00_53_461,-27.0,0.0,-15.0,-4.0,-21.0,-50.0,-26.0,16.0,0.677734375,-0.2646484375,0.685546875,-3.5975609756097566,46.768292682926834,16.402439024390244
18_00_53_461,-23.0,-13.0,5.0,1.0,-73.0,-100.0,50.0,9.0,0.72509765625,-0.17236328125,0.66943359375,-6.036585365853659,43.29268292682927,17.682926829268293
18_00_53_461,15.0,1.0,24.0,10.0,36.0,-128.0,-23.0,-5.0,0.73974609375,-0.1640625,0.623046875,-2.7439024390243905,44.57317073170732,21.28048780487805
18_00_53_461,-50.0,2.0,-4.0,-52.0,1.0,-128.0,-27.0,8.0,0.78173828125,-0.244140625,0.5947265625,1.4634146341463417,44.451219512195124,22.134146341463417
18_00_53_461,29.0,-1.0,-3.0,-60.0,69.0,-128.0,-99.0,0.0,0.8603515625,-0.23583984375,0.6357421875,-0.3658536585365854,47.50000000000001,22.439024390243905
18_00_53_461,-61.0,-7.0,-8.0,7.0,-51.0,-24.0,127.0,-2.0,0.81982421875,-0.21533203125,0.70947265625,-4.390243902439025,46.82926829268293,24.26829268292683
18_00_53_461,78.0,-1.0,-23.0,47.0,-94.0,-38.0,-128.0,3.0,0.88720703125,-0.2666015625,0.6455078125,-6.951219512195123,44.390243902439025,24.75609756097561
18_00_53_461,27.0,-4.0,-22.0,-37.0,-128.0,127.0,127.0,9.0,0.90966796875,-0.30078125,0.642578125,-5.548780487804878,40.1219512195122,24.878048780487806
18_00_53_461,-19.0,4.0,31.0,81.0,127.0,90.0,-127.0,2.0,0.97314453125,-0.240234375,0.63330078125,-3.658536585365854,35.54878048780488,21.585365853658537
18_00_53_461,-11.0,-3.0,-1.0,67.0,-128.0,79.0,34.0,-6.0,0.83056640625,-0.2119140625,0.63525390625,-11.52439024390244,25.792682926829272,23.170731707317074
18_00_53_517,-5.0,8.0,4.0,127.0,65.0,-32.0,-19.0,13.0,0.677734375,-0.2646484375,0.685546875,-3.5975609756097566,46.768292682926834,16.402439024390244
18_00_53_517,-25.0,-14.0,-14.0,-116.0,127.0,3.0,81.0,11.0,0.72509765625,-0.17236328125,0.66943359375,-6.036585365853659,43.29268292682927,17.682926829268293
18_00_53_517,-27.0,-6.0,-22.0,22.0,127.0,-23.0,-90.0,-40.0,0.73974609375,-0.1640625,0.623046875,-2.7439024390243905,44.57317073170732,21.28048780487805
18_00_53_517,-27.0,0.0,-15.0,-4.0,-21.0,-50.0,-26.0,16.0,0.78173828125,-0.244140625,0.5947265625,1.4634146341463417,44.451219512195124,22.134146341463417
18_00_53_517,-23.0,-13.0,5.0,1.0,-73.0,-100.0,50.0,9.0,0.8603515625,-0.23583984375,0.6357421875,-0.3658536585365854,47.50000000000001,22.439024390243905
18_00_53_517,15.0,1.0,24.0,10.0,36.0,-128.0,-23.0,-5.0,0.81982421875,-0.21533203125,0.70947265625,-4.390243902439025,46.82926829268293,24.26829268292683
18_00_53_517,-50.0,2.0,-4.0,-52.0,1.0,-128.0,-27.0,8.0,0.88720703125,-0.2666015625,0.6455078125,-6.951219512195123,44.390243902439025,24.75609756097561
18_00_53_517,29.0,-1.0,-3.0,-60.0,69.0,-128.0,-99.0,0.0,0.90966796875,-0.30078125,0.642578125,-5.548780487804878,40.1219512195122,24.878048780487806
18_00_53_517,-61.0,-7.0,-8.0,7.0,-51.0,-24.0,127.0,-2.0,0.97314453125,-0.240234375,0.63330078125,-3.658536585365854,35.54878048780488,21.585365853658537
18_00_53_559,-86.0,7.0,37.0,40.0,49.0,56.0,-3.0,17.0,0.482421875,-0.32958984375,0.72216796875,13.29268292682927,59.024390243902445,16.890243902439025
18_00_53_559,-128.0,12.0,-45.0,-117.0,-128.0,24.0,-6.0,5.0,0.46728515625,-0.38818359375,0.75,1.5853658536585367,55.60975609756098,20.182926829268293
18_00_53_559,-128.0,11.0,12.0,41.0,116.0,2.0,-27.0,1.0,0.53759765625,-0.3173828125,0.81640625,-2.439024390243903,55.1219512195122,22.31707317073171
18_00_53_559,-58.0,-11.0,-35.0,-29.0,-13.0,-69.0,-6.0,-19.0,0.56298828125,-0.25244140625,0.73583984375,0.06097560975609757,54.57317073170732,19.878048780487806
18_00_53_559,125.0,5.0,61.0,90.0,5.0,-127.0,26.0,12.0,0.521484375,-0.31689453125,0.67724609375,-1.6463414634146343,50.85365853658537,18.10975609756098
18_00_53_559,51.0,-5.0,-10.0,-128.0,-128.0,-128.0,-16.0,-10.0,0.677734375,-0.2646484375,0.685546875,-3.5975609756097566,46.768292682926834,16.402439024390244
18_00_53_559,-112.0,9.0,6.0,39.0,127.0,-128.0,5.0,20.0,0.72509765625,-0.17236328125,0.66943359375,-6.036585365853659,43.29268292682927,17.682926829268293
18_00_53_559,35.0,1.0,5.0,-44.0,90.0,52.0,-116.0,-13.0,0.73974609375,-0.1640625,0.623046875,-2.7439024390243905,44.57317073170732,21.28048780487805
18_00_53_559,10.0,-30.0,45.0,127.0,112.0,127.0,70.0,2.0,0.78173828125,-0.244140625,0.5947265625,1.4634146341463417,44.451219512195124,22.134146341463417
18_00_53_559,1.0,11.0,-10.0,-89.0,-128.0,112.0,52.0,24.0,0.8603515625,-0.23583984375,0.6357421875,-0.3658536585365854,47.50000000000001,22.439024390243905
18_00_53_610,-128.0,-9.0,12.0,45.0,72.0,103.0,78.0,2.0,0.482421875,-0.32958984375,0.72216796875,13.29268292682927,59.024390243902445,16.890243902439025
18_00_53_610,-51.0,11.0,3.0,-37.0,-62.0,22.0,-70.0,-22.0,0.46728515625,-0.38818359375,0.75,1.5853658536585367,55.60975609756098,20.182926829268293
18_00_53_610,-86.0,7.0,37.0,40.0,49.0,56.0,-3.0,17.0,0.53759765625,-0.3173828125,0.81640625,-2.439024390243903,55.1219512195122,22.31707317073171
18_00_53_610,-128.0,12.0,-45.0,-117.0,-128.0,24.0,-6.0,5.0,0.56298828125,-0.25244140625,0.73583984375,0.06097560975609757,54.57317073170732,19.878048780487806
18_00_53_610,-128.0,11.0,12.0,41.0,116.0,2.0,-27.0,1.0,0.521484375,-0.31689453125,0.67724609375,-1.6463414634146343,50.85365853658537,18.10975609756098
18_00_53_610,-58.0,-11.0,-35.0,-29.0,-13.0,-69.0,-6.0,-19.0,0.677734375,-0.2646484375,0.685546875,-3.5975609756097566,46.768292682926834,16.402439024390244
18_00_53_610,125.0,5.0,61.0,90.0,5.0,-127.0,26.0,12.0,0.72509765625,-0.17236328125,0.66943359375,-6.036585365853659,43.29268292682927,17.682926829268293
18_00_53_610,51.0,-5.0,-10.0,-128.0,-128.0,-128.0,-16.0,-10.0,0.73974609375,-0.1640625,0.623046875,-2.7439024390243905,44.57317073170732,21.28048780487805
18_00_53_610,-112.0,9.0,6.0,39.0,127.0,-128.0,5.0,20.0,0.78173828125,-0.244140625,0.5947265625,1.4634146341463417,44.451219512195124,22.134146341463417
18_00_53_610,35.0,1.0,5.0,-44.0,90.0,52.0,-116.0,-13.0,0.8603515625,-0.23583984375,0.6357421875,-0.3658536585365854,47.50000000000001,22.439024390243905
18_00_53_666,127.0,73.0,-20.0,-117.0,-76.0,-90.0,17.0,-7.0,0.50830078125,-0.310546875,0.79345703125,7.8048780487804885,59.024390243902445,18.04878048780488
18_00_53_666,45.0,20.0,-4.0,26.0,-99.0,-34.0,-22.0,3.0,0.486328125,-0.28369140625,0.79345703125,2.8658536585365857,60.91463414634147,19.207317073170735
18_00_53_666,70.0,-2.0,37.0,16.0,62.0,1.0,-22.0,1.0,0.46630859375,-0.2451171875,0.75732421875,10.24390243902439,61.03658536585366,18.04878048780488
18_00_53_666,22.0,-7.0,-86.0,0.0,127.0,5.0,-59.0,-3.0,0.482421875,-0.32958984375,0.72216796875,13.29268292682927,59.024390243902445,16.890243902439025
18_00_53_666,53.0,4.0,59.0,127.0,-128.0,41.0,62.0,-4.0,0.46728515625,-0.38818359375,0.75,1.5853658536585367,55.60975609756098,20.182926829268293
18_00_53_666,60.0,-1.0,-31.0,-39.0,-128.0,22.0,15.0,20.0,0.53759765625,-0.3173828125,0.81640625,-2.439024390243903,55.1219512195122,22.31707317073171
18_00_53_666,-38.0,4.0,19.0,77.0,127.0,85.0,-39.0,-9.0,0.56298828125,-0.25244140625,0.73583984375,0.06097560975609757,54.57317073170732,19.878048780487806
18_00_53_666,-53.0,-15.0,-24.0,-128.0,-128.0,14.0,-40.0,5.0,0.521484375,-0.31689453125,0.67724609375,-1.6463414634146343,50.85365853658537,18.10975609756098
18_00_53_666,-128.0,-9.0,12.0,45.0,72.0,103.0,78.0,2.0,0.677734375,-0.2646484375,0.685546875,-3.5975609756097566,46.768292682926834,16.402439024390244
18_00_53_666,-51.0,11.0,3.0,-37.0,-62.0,22.0,-70.0,-22.0,0.72509765625,-0.17236328125,0.66943359375,-6.036585365853659,43.29268292682927,17.682926829268293
18_00_53_715,-34.0,-60.0,-48.0,-128.0,106.0,-5.0,-92.0,4.0,0.53857421875,-0.28369140625,0.75537109375,11.646341463414634,56.768292682926834,20.853658536585368
18_00_53_715,-65.0,-75.0,-3.0,42.0,-15.0,21.0,32.0,5.0,0.50830078125,-0.310546875,0.79345703125,7.8048780487804885,59.024390243902445,18.04878048780488
18_00_53_715,-13.0,-87.0,-8.0,46.0,4.0,35.0,-20.0,-30.0,0.486328125,-0.28369140625,0.79345703125,2.8658536585365857,60.91463414634147,19.207317073170735
18_00_53_715,127.0,73.0,-20.0,-117.0,-76.0,-90.0,17.0,-7.0,0.46630859375,-0.2451171875,0.75732421875,10.24390243902439,61.03658536585366,18.04878048780488
18_00_53_715,45.0,20.0,-4.0,26.0,-99.0,-34.0,-22.0,3.0,0.482421875,-0.32958984375,0.72216796875,13.29268292682927,59.024390243902445,16.890243902439025
18_00_53_715,70.0,-2.0,37.0,16.0,62.0,1.0,-22.0,1.0,0.46728515625,-0.38818359375,0.75,1.5853658536585367,55.60975609756098,20.182926829268293
18_00_53_715,22.0,-7.0,-86.0,0.0,127.0,5.0,-59.0,-3.0,0.53759765625,-0.3173828125,0.81640625,-2.439024390243903,55.1219512195122,22.31707317073171
18_00_53_715,53.0,4.0,59.0,127.0,-128.0,41.0,62.0,-4.0,0.56298828125,-0.25244140625,0.73583984375,0.06097560975609757,54.57317073170732,19.878048780487806
18_00_53_715,60.0,-1.0,-31.0,-39.0,-128.0,22.0,15.0,20.0,0.521484375,-0.31689453125,0.67724609375,-1.6463414634146343,50.85365853658537,18.10975609756098
18_00_53_766,18.0,23.0,-11.0,109.0,-113.0,-112.0,-23.0,-10.0,0.3994140625,-0.31640625,0.794921875,-4.207317073170732,48.59756097560976,14.939024390243905
18_00_53_766,80.0,21.0,-23.0,-119.0,-128.0,-128.0,62.0,13.0,0.41552734375,-0.26318359375,0.70458984375,5.487804878048781,48.59756097560976,14.26829268292683
18_00_53_766,-18.0,19.0,48.0,127.0,127.0,-128.0,-15.0,-11.0,0.4736328125,-0.32666015625,0.74560546875,12.256097560975611,49.75609756097561,16.463414634146343
18_00_53_766,-67.0,-25.0,-40.0,1.0,-128.0,100.0,8.0,14.0,0.49365234375,-0.2880859375,0.7705078125,7.134146341463415,51.34146341463415,18.04878048780488
18_00_53_766,4.0,-4.0,23.0,-96.0,75.0,22.0,-12.0,16.0,0.50048828125,-0.23486328125,0.73046875,9.634146341463415,52.6829268292683,19.878048780487806
18_00_53_766,64.0,61.0,5.0,-27.0,94.0,44.0,-40.0,-20.0,0.53857421875,-0.28369140625,0.75537109375,11.646341463414634,56.768292682926834,20.853658536585368
18_00_53_766,13.0,77.0,-34.0,127.0,-67.0,63.0,26.0,32.0,0.50830078125,-0.310546875,0.79345703125,7.8048780487804885,59.024390243902445,18.04878048780488
18_00_53_766,-10.0,43.0,73.0,-128.0,59.0,-50.0,49.0,6.0,0.486328125,-0.28369140625,0.79345703125,2.8658536585365857,60.91463414634147,19.207317073170735
18_00_53_766,-41.0,9.0,3.0,38.0,-1.0,127.0,-12.0,-18.0,0.46630859375,-0.2451171875,0.75732421875,10.24390243902439,61.03658536585366,18.04878048780488
18_00_53_766,-20.0,-11.0,29.0,127.0,127.0,127.0,2.0,9.0,0.482421875,-0.32958984375,0.72216796875,13.29268292682927,59.024390243902445,16.890243902439025
18_00_53_822,-52.0,-41.0,44.0,121.0,89.0,15.0,-128.0,-20.0,0.35302734375,-0.2529296875,0.8076171875,4.390243902439025,48.41463414634147,13.658536585365855
18_00_53_822,18.0,-67.0,-5.0,-78.0,-75.0,77.0,-5.0,13.0,0.34912109375,-0.21142578125,0.77490234375,6.52439024390244,49.63414634146342,13.414634146341465
18_00_53_822,24.0,-91.0,-22.0,33.0,-41.0,66.0,28.0,-1.0,0.41357421875,-0.3125,0.8115234375,3.5975609756097566,49.207317073170735,13.658536585365855
18_00_53_822,49.0,-16.0,-34.0,43.0,127.0,127.0,18.0,24.0,0.3994140625,-0.31640625,0.794921875,-4.207317073170732,48.59756097560976,14.939024390243905
18_00_53_822,-98.0,65.0,-27.0,-104.0,-128.0,67.0,35.0,-34.0,0.41552734375,-0.26318359375,0.70458984375,5.487804878048781,48.59756097560976,14.26829268292683
18_00_53_822,16.0,91.0,86.0,124.0,24.0,32.0,-108.0,2.0,0.4736328125,-0.32666015625,0.74560546875,12.256097560975611,49.75609756097561,16.463414634146343
18_00_53_822,40.0,28.0,-69.0,-120.0,-28.0,51.0,70.0,21.0,0.49365234375,-0.2880859375,0.7705078125,7.134146341463415,51.34146341463415,18.04878048780488
18_00_53_822,-6.0,8.0,-50.0,-37.0,-10.0,35.0,-3.0,-13.0,0.50048828125,-0.23486328125,0.73046875,9.634146341463415,52.6829268292683,19.878048780487806
18_00_53_822,55.0,4.0,46.0,127.0,127.0,18.0,3.0,10.0,0.53857421875,-0.28369140625,0.75537109375,11.646341463414634,56.768292682926834,20.853658536585368
18_00_53_822,-29.0,17.0,-62.0,-128.0,-53.0,-55.0,85.0,-19.0,0.50830078125,-0.310546875,0.79345703125,7.8048780487804885,59.024390243902445,18.04878048780488
18_00_53_868,14.0,-96.0,4.0,16.0,-128.0,22.0,-75.0,3.0,0.29736328125,-0.236328125,0.85791015625,13.719512195121952,42.50000000000001,6.829268292682928
18_00_53_868,-59.0,-107.0,3.0,-128.0,8.0,36.0,86.0,3.0,0.3564453125,-0.29443359375,0.83984375,2.7439024390243905,41.28048780487805,16.52439024390244
18_00_53_868,-37.0,-30.0,-27.0,19.0,-22.0,26.0,-59.0,-19.0,0.37744140625,-0.27978515625,0.837890625,-7.987804878048781,45.0609756097561,11.707317073170733
18_00_53_868,-88.0,87.0,59.0,91.0,71.0,32.0,-23.0,-47.0,0.35302734375,-0.2529296875,0.8076171875,4.390243902439025,48.41463414634147,13.658536585365855
18_00_53_868,-30.0,127.0,-95.0,-128.0,-93.0,-31.0,101.0,-15.0,0.34912109375,-0.21142578125,0.77490234375,6.52439024390244,49.63414634146342,13.414634146341465
18_00_53_868,91.0,38.0,45.0,127.0,-128.0,-69.0,-98.0,-25.0,0.41357421875,-0.3125,0.8115234375,3.5975609756097566,49.207317073170735,13.658536585365855
18_00_53_868,112.0,-21.0,21.0,127.0,127.0,-128.0,34.0,-6.0,0.3994140625,-0.31640625,0.794921875,-4.207317073170732,48.59756097560976,14.939024390243905
18_00_53_868,100.0,16.0,9.0,-56.0,-128.0,-128.0,2.0,-6.0,0.41552734375,-0.26318359375,0.70458984375,5.487804878048781,48.59756097560976,14.26829268292683
18_00_53_868,-128.0,25.0,-45.0,39.0,-60.0,127.0,33.0,28.0,0.4736328125,-0.32666015625,0.74560546875,12.256097560975611,49.75609756097561,16.463414634146343
18_00_53_868,127.0,10.0,-37.0,-127.0,-30.0,51.0,88.0,39.0,0.49365234375,-0.2880859375,0.7705078125,7.134146341463415,51.34146341463415,18.04878048780488
18_00_53_924,-85.0,22.0,-21.0,71.0,127.0,-128.0,-22.0,-32.0,0.32275390625,-0.2958984375,0.818359375,-4.75609756097561,38.59756097560976,10.975609756097562
18_00_53_924,-11.0,-15.0,5.0,-25.0,-128.0,127.0,65.0,-47.0,0.34130859375,-0.2373046875,0.8212890625,2.439024390243903,41.15853658536586,9.573170731707318
18_00_53_924,38.0,-22.0,-10.0,-57.0,-81.0,127.0,-33.0,-26.0,0.29736328125,-0.236328125,0.85791015625,13.719512195121952,42.50000000000001,6.829268292682928
18_00_53_924,-75.0,-28.0,-7.0,11.0,17.0,105.0,38.0,-33.0,0.3564453125,-0.29443359375,0.83984375,2.7439024390243905,41.28048780487805,16.52439024390244
18_00_53_924,-52.0,-72.0,-36.0,19.0,-13.0,11.0,41.0,36.0,0.37744140625,-0.27978515625,0.837890625,-7.987804878048781,45.0609756097561,11.707317073170733
18_00_53_924,70.0,-51.0,23.0,10.0,127.0,29.0,-81.0,103.0,0.35302734375,-0.2529296875,0.8076171875,4.390243902439025,48.41463414634147,13.658536585365855
18_00_53_924,14.0,-96.0,4.0,16.0,-128.0,22.0,-75.0,3.0,0.34912109375,-0.21142578125,0.77490234375,6.52439024390244,49.63414634146342,13.414634146341465
18_00_53_924,-59.0,-107.0,3.0,-128.0,8.0,36.0,86.0,3.0,0.41357421875,-0.3125,0.8115234375,3.5975609756097566,49.207317073170735,13.658536585365855
18_00_53_924,-37.0,-30.0,-27.0,19.0,-22.0,26.0,-59.0,-19.0,0.3994140625,-0.31640625,0.794921875,-4.207317073170732,48.59756097560976,14.939024390243905
18_00_53_924,-88.0,87.0,59.0,91.0,71.0,32.0,-23.0,-47.0,0.41552734375,-0.26318359375,0.70458984375,5.487804878048781,48.59756097560976,14.26829268292683
18_00_53_976,0.0,-122.0,-48.0,-52.0,-50.0,104.0,24.0,-1.0,0.333984375,-0.24609375,0.85791015625,2.439024390243903,41.40243902439025,8.597560975609756
18_00_53_976,19.0,-82.0,10.0,-82.0,-65.0,17.0,97.0,39.0,0.255859375,-0.3125,0.85205078125,11.829268292682928,42.50000000000001,9.146341463414634
18_00_53_976,58.0,17.0,29.0,61.0,127.0,47.0,-49.0,-20.0,0.30126953125,-0.384765625,0.875,6.463414634146342,42.5609756097561,9.939024390243903
18_00_53_976,-35.0,90.0,-17.0,-45.0,-105.0,9.0,45.0,-58.0,0.32275390625,-0.2958984375,0.818359375,-4.75609756097561,38.59756097560976,10.975609756097562
18_00_53_976,-12.0,29.0,-90.0,-18.0,-122.0,27.0,-96.0,-53.0,0.34130859375,-0.2373046875,0.8212890625,2.439024390243903,41.15853658536586,9.573170731707318
18_00_53_976,-29.0,-2.0,2.0,127.0,127.0,38.0,72.0,-75.0,0.29736328125,-0.236328125,0.85791015625,13.719512195121952,42.50000000000001,6.829268292682928
18_00_53_976,-30.0,-2.0,-11.0,-128.0,-128.0,4.0,-78.0,-17.0,0.3564453125,-0.29443359375,0.83984375,2.7439024390243905,41.28048780487805,16.52439024390244
18_00_53_976,21.0,15.0,-4.0,127.0,-119.0,28.0,15.0,20.0,0.37744140625,-0.27978515625,0.837890625,-7.987804878048781,45.0609756097561,11.707317073170733
18_00_53_976,-52.0,4.0,15.0,5.0,127.0,50.0,37.0,2.0,0.35302734375,-0.2529296875,0.8076171875,4.390243902439025,48.41463414634147,13.658536585365855
18_00_53_976,-75.0,14.0,-72.0,-105.0,-107.0,-11.0,-43.0,-8.0,0.34912109375,-0.21142578125,0.77490234375,6.52439024390244,49.63414634146342,13.414634146341465
18_00_54_025,-77.0,10.0,60.0,64.0,16.0,70.0,-9.0,-13.0,0.25244140625,-0.3779296875,0.8115234375,-0.6707317073170732,34.75609756097561,8.231707317073171
18_00_54_025,26.0,19.0,-14.0,-86.0,-51.0,30.0,31.0,18.0,0.15087890625,-0.31298828125,0.83544921875,2.0121951219512195,37.80487804878049,5.975609756097562
18_00_54_025,12.0,13.0,81.0,72.0,64.0,37.0,48.0,12.0,0.26416015625,-0.2734375,0.85009765625,-1.1585365853658538,38.23170731707317,10.731707317073171
18_00_54_025,17.0,24.0,-23.0,73.0,-33.0,31.0,-25.0,-13.0,0.333984375,-0.24609375,0.85791015625,2.439024390243903,41.40243902439025,8.597560975609756
18_00_54_025,-22.0,21.0,-24.0,-62.0,-7.0,-24.0,-25.0,19.0,0.255859375,-0.3125,0.85205078125,11.829268292682928,42.50000000000001,9.146341463414634
18_00_54_025,15.0,18.0,16.0,10.0,41.0,-80.0,53.0,28.0,0.30126953125,-0.384765625,0.875,6.463414634146342,42.5609756097561,9.939024390243903
18_00_54_025,29.0,24.0,3.0,10.0,4.0,-114.0,9.0,8.0,0.32275390625,-0.2958984375,0.818359375,-4.75609756097561,38.59756097560976,10.975609756097562
18_00_54_025,35.0,-17.0,36.0,-55.0,5.0,-128.0,-49.0,13.0,0.34130859375,-0.2373046875,0.8212890625,2.439024390243903,41.15853658536586,9.573170731707318
18_00_54_025,4.0,-37.0,-9.0,-1.0,-33.0,-51.0,102.0,22.0,0.29736328125,-0.236328125,0.85791015625,13.719512195121952,42.50000000000001,6.829268292682928
18_00_54_025,-10.0,-78.0,49.0,111.0,35.0,70.0,-78.0,56.0,0.3564453125,-0.29443359375,0.83984375,2.7439024390243905,41.28048780487805,16.52439024390244
18_00_54_072,9.0,-4.0,36.0,37.0,-17.0,14.0,20.0,-128.0,0.2197265625,-0.27783203125,0.81884765625,6.7682926829268295,32.07317073170732,5.487804878048781
18_00_54_072,-3.0,16.0,-4.0,-102.0,-45.0,-31.0,-5.0,-128.0,0.25244140625,-0.3779296875,0.8115234375,-0.6707317073170732,34.75609756097561,8.231707317073171
18_00_54_072,5.0,13.0,17.0,127.0,75.0,-78.0,51.0,127.0,0.15087890625,-0.31298828125,0.83544921875,2.0121951219512195,37.80487804878049,5.975609756097562
18_00_54_072,-52.0,-4.0,-76.0,-128.0,-128.0,-128.0,9.0,127.0,0.26416015625,-0.2734375,0.85009765625,-1.1585365853658538,38.23170731707317,10.731707317073171
18_00_54_072,46.0,4.0,-6.0,4.0,-103.0,-102.0,-1.0,85.0,0.333984375,-0.24609375,0.85791015625,2.439024390243903,41.40243902439025,8.597560975609756
18_00_54_072,-40.0,-4.0,-50.0,21.0,34.0,127.0,-4.0,6.0,0.255859375,-0.3125,0.85205078125,11.829268292682928,42.50000000000001,9.146341463414634
18_00_54_072,-77.0,10.0,60.0,64.0,16.0,70.0,-9.0,-13.0,0.30126953125,-0.384765625,0.875,6.463414634146342,42.5609756097561,9.939024390243903
18_00_54_072,26.0,19.0,-14.0,-86.0,-51.0,30.0,31.0,18.0,0.32275390625,-0.2958984375,0.818359375,-4.75609756097561,38.59756097560976,10.975609756097562
18_00_54_072,12.0,13.0,81.0,72.0,64.0,37.0,48.0,12.0,0.34130859375,-0.2373046875,0.8212890625,2.439024390243903,41.15853658536586,9.573170731707318
18_00_54_072,17.0,24.0,-23.0,73.0,-33.0,31.0,-25.0,-13.0,0.29736328125,-0.236328125,0.85791015625,13.719512195121952,42.50000000000001,6.829268292682928
18_00_54_126,-28.0,3.0,28.0,92.0,73.0,-13.0,81.0,11.0,0.16015625,-0.37451171875,0.8828125,-10.060975609756099,25.975609756097562,5.853658536585367
18_00_54_126,-44.0,1.0,24.0,-71.0,-24.0,-97.0,-12.0,16.0,0.1572265625,-0.244140625,0.869140625,-11.097560975609756,30.182926829268297,7.987804878048781
18_00_54_126,29.0,-9.0,-6.0,-128.0,-34.0,-128.0,-61.0,4.0,0.140625,-0.205078125,0.8388671875,-7.621951219512196,33.109756097560975,4.146341463414634
18_00_54_126,-2.0,3.0,28.0,42.0,-128.0,-66.0,-54.0,63.0,0.2197265625,-0.27783203125,0.81884765625,6.7682926829268295,32.07317073170732,5.487804878048781
18_00_54_126,107.0,7.0,-22.0,68.0,127.0,-48.0,127.0,62.0,0.25244140625,-0.3779296875,0.8115234375,-0.6707317073170732,34.75609756097561,8.231707317073171
18_00_54_126,-58.0,-2.0,38.0,-91.0,-128.0,60.0,-128.0,18.0,0.15087890625,-0.31298828125,0.83544921875,2.0121951219512195,37.80487804878049,5.975609756097562
18_00_54_126,8.0,-9.0,-28.0,-77.0,-57.0,114.0,4.0,44.0,0.26416015625,-0.2734375,0.85009765625,-1.1585365853658538,38.23170731707317,10.731707317073171
18_00_54_126,-21.0,-6.0,-30.0,-28.0,-54.0,21.0,-36.0,15.0,0.333984375,-0.24609375,0.85791015625,2.439024390243903,41.40243902439025,8.597560975609756
18_00_54_126,36.0,-3.0,28.0,89.0,127.0,100.0,24.0,-2.0,0.255859375,-0.3125,0.85205078125,11.829268292682928,42.50000000000001,9.146341463414634
18_00_54_126,-39.0,-4.0,4.0,-45.0,-62.0,1.0,44.0,-79.0,0.30126953125,-0.384765625,0.875,6.463414634146342,42.5609756097561,9.939024390243903
18_00_54_174,127.0,-128.0,-89.0,37.0,24.0,14.0,62.0,2.0,0.14599609375,-0.2646484375,0.8505859375,-4.146341463414634,16.82926829268293,4.390243902439025
18_00_54_174,-24.0,-55.0,44.0,41.0,-84.0,17.0,-3.0,-3.0,0.1025390625,-0.2109375,0.79833984375,7.073170731707318,21.219512195121954,3.1707317073170733
18_00_54_174,-4.0,127.0,24.0,-22.0,-5.0,-10.0,-70.0,-43.0,0.185546875,-0.3505859375,0.8388671875,7.743902439024391,23.10975609756098,7.621951219512196
18_00_54_174,-3.0,127.0,-81.0,-55.0,-64.0,33.0,0.0,24.0,0.16015625,-0.37451171875,0.8828125,-10.060975609756099,25.975609756097562,5.853658536585367
18_00_54_174,-17.0,24.0,-1.0,11.0,37.0,13.0,20.0,-23.0,0.1572265625,-0.244140625,0.869140625,-11.097560975609756,30.182926829268297,7.987804878048781
18_00_54_174,-24.0,1.0,-11.0,79.0,43.0,43.0,-38.0,9.0,0.140625,-0.205078125,0.8388671875,-7.621951219512196,33.109756097560975,4.146341463414634
18_00_54_174,26.0,-3.0,32.0,-43.0,28.0,36.0,40.0,10.0,0.2197265625,-0.27783203125,0.81884765625,6.7682926829268295,32.07317073170732,5.487804878048781
18_00_54_174,11.0,6.0,-37.0,-37.0,29.0,-1.0,-93.0,-11.0,0.25244140625,-0.3779296875,0.8115234375,-0.6707317073170732,34.75609756097561,8.231707317073171
18_00_54_174,-28.0,3.0,28.0,92.0,73.0,-13.0,81.0,11.0,0.15087890625,-0.31298828125,0.83544921875,2.0121951219512195,37.80487804878049,5.975609756097562
18_00_54_174,-44.0,1.0,24.0,-71.0,-24.0,-97.0,-12.0,16.0,0.26416015625,-0.2734375,0.85009765625,-1.1585365853658538,38.23170731707317,10.731707317073171
18_00_54_226,-71.0,1.0,73.0,-108.0,-82.0,-68.0,-30.0,-128.0,0.140625,-0.2880859375,0.861328125,7.01219512195122,9.817073170731708,-1.5853658536585367
18_00_54_226,63.0,13.0,5.0,60.0,-18.0,-128.0,-41.0,-128.0,0.10205078125,-0.3388671875,0.84326171875,-10.914634146341465,10.792682926829269,4.146341463414634
18_00_54_226,-37.0,29.0,30.0,-2.0,-7.0,-64.0,111.0,-128.0,0.10888671875,-0.294921875,0.8427734375,-9.51219512195122,15.243902439024392,3.7195121951219514
18_00_54_226,-34.0,32.0,12.0,-9.0,-105.0,127.0,-26.0,11.0,0.14599609375,-0.2646484375,0.8505859375,-4.146341463414634,16.82926829268293,4.390243902439025
18_00_54_226,-113.0,16.0,-23.0,44.0,127.0,60.0,0.0,127.0,0.1025390625,-0.2109375,0.79833984375,7.073170731707318,21.219512195121954,3.1707317073170733
18_00_54_226,-128.0,8.0,-18.0,-43.0,-59.0,-20.0,-5.0,127.0,0.185546875,-0.3505859375,0.8388671875,7.743902439024391,23.10975609756098,7.621951219512196
18_00_54_226,-128.0,6.0,116.0,-31.0,-34.0,-13.0,-15.0,44.0,0.16015625,-0.37451171875,0.8828125,-10.060975609756099,25.975609756097562,5.853658536585367
18_00_54_226,-89.0,2.0,-7.0,-29.0,-33.0,-25.0,-22.0,-9.0,0.1572265625,-0.244140625,0.869140625,-11.097560975609756,30.182926829268297,7.987804878048781
18_00_54_226,32.0,6.0,47.0,-73.0,25.0,-30.0,5.0,-5.0,0.140625,-0.205078125,0.8388671875,-7.621951219512196,33.109756097560975,4.146341463414634
18_00_54_226,127.0,-69.0,16.0,84.0,127.0,4.0,-27.0,-37.0,0.2197265625,-0.27783203125,0.81884765625,6.7682926829268295,32.07317073170732,5.487804878048781
18_00_54_273,26.0,16.0,0.0,17.0,76.0,-20.0,89.0,14.0,0.10546875,-0.3046875,0.87109375,-13.231707317073171,3.353658536585366,3.963414634146342
18_00_54_273,19.0,3.0,8.0,21.0,-29.0,-2.0,11.0,8.0,0.1044921875,-0.185546875,0.8642578125,-4.51219512195122,7.073170731707318,-0.853658536585366
18_00_54_273,-39.0,-11.0,58.0,-61.0,-102.0,-8.0,-22.0,4.0,0.140625,-0.2880859375,0.861328125,7.01219512195122,9.817073170731708,-1.5853658536585367
18_00_54_273,38.0,-17.0,-128.0,97.0,49.0,2.0,24.0,49.0,0.10205078125,-0.3388671875,0.84326171875,-10.914634146341465,10.792682926829269,4.146341463414634
18_00_54_273,-5.0,11.0,114.0,-36.0,78.0,-22.0,2.0,4.0,0.10888671875,-0.294921875,0.8427734375,-9.51219512195122,15.243902439024392,3.7195121951219514
18_00_54_273,16.0,-10.0,-8.0,78.0,-59.0,-4.0,-10.0,74.0,0.14599609375,-0.2646484375,0.8505859375,-4.146341463414634,16.82926829268293,4.390243902439025
18_00_54_273,29.0,13.0,-39.0,-37.0,-31.0,27.0,15.0,75.0,0.1025390625,-0.2109375,0.79833984375,7.073170731707318,21.219512195121954,3.1707317073170733
18_00_54_273,22.0,0.0,35.0,21.0,127.0,8.0,-3.0,13.0,0.185546875,-0.3505859375,0.8388671875,7.743902439024391,23.10975609756098,7.621951219512196
18_00_54_273,21.0,4.0,2.0,73.0,26.0,47.0,54.0,-7.0,0.16015625,-0.37451171875,0.8828125,-10.060975609756099,25.975609756097562,5.853658536585367
18_00_54_273,16.0,-1.0,-29.0,34.0,55.0,76.0,11.0,-89.0,0.1572265625,-0.244140625,0.869140625,-11.097560975609756,30.182926829268297,7.987804878048781
18_00_54_329,-31.0,8.0,83.0,127.0,127.0,7.0,42.0,6.0,0.12353515625,-0.36474609375,0.89892578125,-8.353658536585366,-1.524390243902439,-4.2682926829268295
18_00_54_329,0.0,-3.0,-112.0,-54.0,-96.0,-5.0,7.0,-4.0,0.10009765625,-0.2958984375,0.8837890625,-4.817073170731708,3.048780487804878,-2.439024390243903
18_00_54_329,21.0,-5.0,-8.0,-66.0,-35.0,-15.0,44.0,-11.0,0.10546875,-0.3046875,0.87109375,-13.231707317073171,3.353658536585366,3.963414634146342
18_00_54_329,-16.0,-3.0,5.0,-95.0,-113.0,13.0,-37.0,6.0,0.1044921875,-0.185546875,0.8642578125,-4.51219512195122,7.073170731707318,-0.853658536585366
18_00_54_329,-7.0,-3.0,108.0,127.0,127.0,-10.0,-39.0,8.0,0.140625,-0.2880859375,0.861328125,7.01219512195122,9.817073170731708,-1.5853658536585367
18_00_54_329,38.0,4.0,-43.0,67.0,-18.0,-43.0,-95.0,2.0,0.10205078125,-0.3388671875,0.84326171875,-10.914634146341465,10.792682926829269,4.146341463414634
18_00_54_329,-62.0,-16.0,6.0,-42.0,44.0,8.0,108.0,-9.0,0.10888671875,-0.294921875,0.8427734375,-9.51219512195122,15.243902439024392,3.7195121951219514
18_00_54_329,27.0,-5.0,5.0,-11.0,-2.0,4.0,-79.0,8.0,0.14599609375,-0.2646484375,0.8505859375,-4.146341463414634,16.82926829268293,4.390243902439025
18_00_54_329,26.0,16.0,0.0,17.0,76.0,-20.0,89.0,14.0,0.1025390625,-0.2109375,0.79833984375,7.073170731707318,21.219512195121954,3.1707317073170733
18_00_54_329,19.0,3.0,8.0,21.0,-29.0,-2.0,11.0,8.0,0.185546875,-0.3505859375,0.8388671875,7.743902439024391,23.10975609756098,7.621951219512196
18_00_54_373,73.0,10.0,62.0,126.0,62.0,-11.0,22.0,-1.0,0.12841796875,-0.404296875,0.86181640625,-10.060975609756099,-6.52439024390244,-3.9024390243902443
18_00_54_373,16.0,2.0,-7.0,2.0,78.0,-2.0,-23.0,-10.0,0.19921875,-0.27490234375,0.89111328125,-8.902439024390244,-5.975609756097562,-4.451219512195122
18_00_54_373,-14.0,5.0,2.0,10.0,-89.0,4.0,71.0,-10.0,0.1220703125,-0.248046875,0.880859375,-4.390243902439025,-4.634146341463415,-2.1951219512195124
18_00_54_373,-23.0,-11.0,-38.0,17.0,52.0,10.0,-47.0,3.0,0.1376953125,-0.29833984375,0.89013671875,-1.8902439024390245,-3.1707317073170733,-2.7439024390243905
18_00_54_373,-6.0,-4.0,46.0,11.0,-31.0,-20.0,36.0,-30.0,0.12353515625,-0.36474609375,0.89892578125,-8.353658536585366,-1.524390243902439,-4.2682926829268295
18_00_54_373,-23.0,12.0,34.0,12.0,-20.0,-16.0,12.0,39.0,0.10009765625,-0.2958984375,0.8837890625,-4.817073170731708,3.048780487804878,-2.439024390243903
18_00_54_373,10.0,0.0,8.0,-74.0,-20.0,-22.0,-17.0,8.0,0.10546875,-0.3046875,0.87109375,-13.231707317073171,3.353658536585366,3.963414634146342
18_00_54_373,-7.0,-9.0,37.0,19.0,22.0,-9.0,-1.0,-9.0,0.1044921875,-0.185546875,0.8642578125,-4.51219512195122,7.073170731707318,-0.853658536585366
18_00_54_373,-26.0,0.0,50.0,109.0,119.0,10.0,-11.0,-18.0,0.140625,-0.2880859375,0.861328125,7.01219512195122,9.817073170731708,-1.5853658536585367
18_00_54_373,-61.0,-4.0,-57.0,-109.0,-128.0,5.0,-6.0,9.0,0.10205078125,-0.3388671875,0.84326171875,-10.914634146341465,10.792682926829269,4.146341463414634
18_00_54_433,-8.0,1.0,8.0,127.0,127.0,76.0,8.0,-6.0,0.12841796875,-0.404296875,0.86181640625,-10.060975609756099,-6.52439024390244,-3.9024390243902443
18_00_54_433,7.0,-6.0,48.0,2.0,-92.0,43.0,-97.0,-15.0,0.19921875,-0.27490234375,0.89111328125,-8.902439024390244,-5.975609756097562,-4.451219512195122
18_00_54_433,-8.0,4.0,19.0,-27.0,-32.0,-111.0,122.0,-15.0,0.1220703125,-0.248046875,0.880859375,-4.390243902439025,-4.634146341463415,-2.1951219512195124
18_00_54_433,19.0,3.0,-109.0,-34.0,-4.0,-57.0,-29.0,5.0,0.1376953125,-0.29833984375,0.89013671875,-1.8902439024390245,-3.1707317073170733,-2.7439024390243905
18_00_54_433,-22.0,-1.0,7.0,-10.0,-82.0,73.0,23.0,9.0,0.12353515625,-0.36474609375,0.89892578125,-8.353658536585366,-1.524390243902439,-4.2682926829268295
18_00_54_433,73.0,10.0,62.0,126.0,62.0,-11.0,22.0,-1.0,0.10009765625,-0.2958984375,0.8837890625,-4.817073170731708,3.048780487804878,-2.439024390243903
18_00_54_433,16.0,2.0,-7.0,2.0,78.0,-2.0,-23.0,-10.0,0.10546875,-0.3046875,0.87109375,-13.231707317073171,3.353658536585366,3.963414634146342
18_00_54_433,-14.0,5.0,2.0,10.0,-89.0,4.0,71.0,-10.0,0.1044921875,-0.185546875,0.8642578125,-4.51219512195122,7.073170731707318,-0.853658536585366
18_00_54_433,-23.0,-11.0,-38.0,17.0,52.0,10.0,-47.0,3.0,0.140625,-0.2880859375,0.861328125,7.01219512195122,9.817073170731708,-1.5853658536585367
18_00_54_486,-19.0,16.0,-4.0,-86.0,-1.0,-19.0,-27.0,-29.0,0.17724609375,-0.37353515625,0.93896484375,-9.085365853658537,-3.231707317073171,-6.463414634146342
18_00_54_486,44.0,-2.0,-27.0,-20.0,-9.0,-17.0,10.0,15.0,0.138671875,-0.3427734375,0.91943359375,-14.573170731707318,-3.9024390243902443,-9.573170731707318
18_00_54_486,11.0,-5.0,-45.0,-86.0,82.0,16.0,26.0,6.0,0.14453125,-0.2998046875,0.880859375,-13.719512195121952,-5.426829268292684,-6.2804878048780495
18_00_54_486,30.0,-3.0,-18.0,127.0,-77.0,-3.0,-63.0,10.0,0.1630859375,-0.2666015625,0.87744140625,-5.487804878048781,-5.2439024390243905,-8.597560975609756
18_00_54_486,9.0,-2.0,-28.0,-41.0,60.0,8.0,-48.0,3.0,0.15869140625,-0.357421875,0.8662109375,-3.5975609756097566,-5.853658536585367,-7.25609756097561
18_00_54_486,-34.0,-2.0,18.0,109.0,57.0,-15.0,94.0,-10.0,0.12841796875,-0.404296875,0.86181640625,-10.060975609756099,-6.52439024390244,-3.9024390243902443
18_00_54_486,-18.0,-4.0,-16.0,21.0,8.0,-19.0,-47.0,-3.0,0.19921875,-0.27490234375,0.89111328125,-8.902439024390244,-5.975609756097562,-4.451219512195122
18_00_54_486,-14.0,2.0,-74.0,-76.0,-4.0,-17.0,-27.0,-21.0,0.1220703125,-0.248046875,0.880859375,-4.390243902439025,-4.634146341463415,-2.1951219512195124
18_00_54_486,43.0,7.0,75.0,13.0,13.0,-7.0,18.0,25.0,0.1376953125,-0.29833984375,0.89013671875,-1.8902439024390245,-3.1707317073170733,-2.7439024390243905
18_00_54_486,1.0,16.0,-24.0,-90.0,-47.0,-1.0,22.0,6.0,0.12353515625,-0.36474609375,0.89892578125,-8.353658536585366,-1.524390243902439,-4.2682926829268295
18_00_54_527,-4.0,-6.0,75.0,85.0,53.0,0.0,-33.0,-42.0,0.14599609375,-0.2587890625,0.9345703125,-4.817073170731708,-4.573170731707317,-5.548780487804878
18_00_54_527,-68.0,9.0,15.0,63.0,99.0,15.0,35.0,-7.0,0.15478515625,-0.27099609375,0.92431640625,1.2804878048780488,-3.414634146341464,-4.939024390243903
18_00_54_527,-12.0,-12.0,-59.0,-89.0,-118.0,7.0,-77.0,1.0,0.17724609375,-0.37353515625,0.93896484375,-9.085365853658537,-3.231707317073171,-6.463414634146342
18_00_54_527,30.0,3.0,38.0,-77.0,13.0,4.0,51.0,3.0,0.138671875,-0.3427734375,0.91943359375,-14.573170731707318,-3.9024390243902443,-9.573170731707318
18_00_54_527,37.0,1.0,-38.0,20.0,50.0,9.0,-8.0,-2.0,0.14453125,-0.2998046875,0.880859375,-13.719512195121952,-5.426829268292684,-6.2804878048780495
18_00_54_527,-8.0,1.0,46.0,78.0,118.0,-7.0,-8.0,-4.0,0.1630859375,-0.2666015625,0.87744140625,-5.487804878048781,-5.2439024390243905,-8.597560975609756
18_00_54_527,51.0,1.0,-35.0,-128.0,-128.0,-6.0,-69.0,-6.0,0.15869140625,-0.357421875,0.8662109375,-3.5975609756097566,-5.853658536585367,-7.25609756097561
18_00_54_527,27.0,-4.0,33.0,-72.0,-76.0,2.0,74.0,14.0,0.12841796875,-0.404296875,0.86181640625,-10.060975609756099,-6.52439024390244,-3.9024390243902443
18_00_54_527,-37.0,-7.0,-52.0,-128.0,-128.0,-6.0,127.0,-3.0,0.19921875,-0.27490234375,0.89111328125,-8.902439024390244,-5.975609756097562,-4.451219512195122
18_00_54_527,4.0,-5.0,-22.0,127.0,127.0,6.0,-65.0,15.0,0.1220703125,-0.248046875,0.880859375,-4.390243902439025,-4.634146341463415,-2.1951219512195124
18_00_54_582,-11.0,-4.0,22.0,24.0,-37.0,5.0,-53.0,-8.0,0.1865234375,-0.3515625,0.90576171875,2.804878048780488,-6.158536585365854,-2.25609756097561
18_00_54_582,11.0,-8.0,-25.0,-5.0,-84.0,-3.0,76.0,24.0,0.208984375,-0.33935546875,0.93701171875,-7.865853658536586,-5.609756097560976,-1.707317073170732
18_00_54_582,27.0,8.0,-21.0,37.0,127.0,1.0,-8.0,5.0,0.14599609375,-0.2587890625,0.9345703125,-4.817073170731708,-4.573170731707317,-5.548780487804878
18_00_54_582,-27.0,-2.0,83.0,-40.0,-128.0,-12.0,-29.0,-3.0,0.15478515625,-0.27099609375,0.92431640625,1.2804878048780488,-3.414634146341464,-4.939024390243903
18_00_54_582,-5.0,-5.0,-51.0,-128.0,-128.0,6.0,-18.0,4.0,0.17724609375,-0.37353515625,0.93896484375,-9.085365853658537,-3.231707317073171,-6.463414634146342
18_00_54_582,-29.0,-6.0,5.0,-73.0,-24.0,1.0,61.0,16.0,0.138671875,-0.3427734375,0.91943359375,-14.573170731707318,-3.9024390243902443,-9.573170731707318
18_00_54_582,-4.0,-6.0,75.0,85.0,53.0,0.0,-33.0,-42.0,0.14453125,-0.2998046875,0.880859375,-13.719512195121952,-5.426829268292684,-6.2804878048780495
18_00_54_582,-68.0,9.0,15.0,63.0,99.0,15.0,35.0,-7.0,0.1630859375,-0.2666015625,0.87744140625,-5.487804878048781,-5.2439024390243905,-8.597560975609756
18_00_54_582,-12.0,-12.0,-59.0,-89.0,-118.0,7.0,-77.0,1.0,0.15869140625,-0.357421875,0.8662109375,-3.5975609756097566,-5.853658536585367,-7.25609756097561
18_00_54_582,30.0,3.0,38.0,-77.0,13.0,4.0,51.0,3.0,0.12841796875,-0.404296875,0.86181640625,-10.060975609756099,-6.52439024390244,-3.9024390243902443
18_00_54_627,41.0,-9.0,-68.0,12.0,-34.0,7.0,4.0,34.0,0.17333984375,-0.3466796875,0.87548828125,-0.426829268292683,-2.3170731707317076,-5.121951219512195
18_00_54_627,-45.0,7.0,-20.0,51.0,57.0,-5.0,89.0,-26.0,0.1826171875,-0.34326171875,0.8740234375,-1.3414634146341464,-3.4756097560975614,-1.5853658536585367
18_00_54_627,8.0,-1.0,-45.0,-40.0,-122.0,-13.0,-64.0,-9.0,0.1552734375,-0.3134765625,0.89892578125,4.878048780487806,-4.51219512195122,-2.804878048780488
18_00_54_627,3.0,-1.0,-6.0,46.0,121.0,12.0,14.0,14.0,0.1865234375,-0.3515625,0.90576171875,2.804878048780488,-6.158536585365854,-2.25609756097561
18_00_54_627,28.0,-5.0,-13.0,-32.0,-43.0,-3.0,27.0,1.0,0.208984375,-0.33935546875,0.93701171875,-7.865853658536586,-5.609756097560976,-1.707317073170732
18_00_54_627,-8.0,4.0,53.0,31.0,87.0,-3.0,7.0,5.0,0.14599609375,-0.2587890625,0.9345703125,-4.817073170731708,-4.573170731707317,-5.548780487804878
18_00_54_627,0.0,5.0,-4.0,44.0,-30.0,-4.0,-27.0,-29.0,0.15478515625,-0.27099609375,0.92431640625,1.2804878048780488,-3.414634146341464,-4.939024390243903
18_00_54_627,14.0,3.0,-3.0,-14.0,74.0,4.0,-20.0,-3.0,0.17724609375,-0.37353515625,0.93896484375,-9.085365853658537,-3.231707317073171,-6.463414634146342
18_00_54_627,12.0,4.0,-7.0,38.0,-38.0,-4.0,-67.0,7.0,0.138671875,-0.3427734375,0.91943359375,-14.573170731707318,-3.9024390243902443,-9.573170731707318
18_00_54_627,11.0,-3.0,-30.0,-37.0,21.0,-3.0,106.0,2.0,0.14453125,-0.2998046875,0.880859375,-13.719512195121952,-5.426829268292684,-6.2804878048780495
